"success","timeout","failed_images","failed_audio","failed_video","trial_type","trial_index","time_elapsed","internal_node_id","subject_id","study_id","session_id","practiceTestResult","view_history","rt","width","height","webaudio","browser","browser_version","mobile","os","fullscreen","vsync_rate","webcam","microphone","url","stimulus","response","task","ball_X","obstacle_groundTruth_x","obstacle_groundTruth_y","stimulus_idx","trial_name","flipped","choice","timeLimit","question_order","comprehensionCheck","currentTrial","obstacle_choice_x","obstacle_choice_y"
"true","false","[]","[]","[]","preload","0","708","0.0-0.0","67884b1aa6c55d9dd2388778","67619bf32066d179f8b4b1ec","67894a96eb30b84596b5b8c5","passed","","","","","","","","","","","","","","","","","","","","","","","","","","","","","",""
"","","","","","instructions","1","10583","0.0-1.0","67884b1aa6c55d9dd2388778","67619bf32066d179f8b4b1ec","67894a96eb30b84596b5b8c5","passed","[{""page_index"":0,""viewing_time"":9873}]","9874","","","","","","","","","","","","","","","","","","","","","","","","","","","",""
"","","","","","browser-check","2","11585","0.0-2.0","67884b1aa6c55d9dd2388778","67619bf32066d179f8b4b1ec","67894a96eb30b84596b5b8c5","passed","","","1348","590","true","chrome","131.0.0","false","Windows 10","true","60.96","true","true","","","","","","","","","","","","","","","","",""
"","","","","","external-html","3","35861","0.0-3.0","67884b1aa6c55d9dd2388778","67619bf32066d179f8b4b1ec","67894a96eb30b84596b5b8c5","passed","","23983","","","","","","","","","","","","consent.html","","","","","","","","","","","","","","","",""
"true","","","","","fullscreen","4","39398","0.0-4.0","67884b1aa6c55d9dd2388778","67619bf32066d179f8b4b1ec","67894a96eb30b84596b5b8c5","passed","","3213","","","","","","","","","","","","","","","","","","","","","","","","","","","",""
"","","","","","browser-check","5","40449","0.0-5.0","67884b1aa6c55d9dd2388778","67619bf32066d179f8b4b1ec","67894a96eb30b84596b5b8c5","passed","","","1366","768","true","chrome","131.0.0","false","Windows 10","true","57.54","true","true","","","","","","","","","","","","","","","","",""
"","","","","","html-keyboard-response","6","59898","0.0-6.0","67884b1aa6c55d9dd2388778","67619bf32066d179f8b4b1ec","67894a96eb30b84596b5b8c5","passed","","19447","","","","","","","","","","","","","<p><b>This experiment requires keyboard input.</b></p> 
        <p><b>To ensure your response will be recorded successfully, please press 'Space' to continue.</b></p>
        <p>If you can't proceed, you won't be able to complete this study.</p>
        <p></p> <!-- Blank line -->
        <p id=""blinking-text"" style=""font-weight; animation: blink 2s infinite;"">Press Space to continue</p>
        <style>
            @keyframes blink {
                50% {
                    opacity: 0;
                }
            }
        </style>"," ","","","","","","","","","","","","","",""
"","","","","","html-keyboard-response","7","62943","0.0-7.0","67884b1aa6c55d9dd2388778","67619bf32066d179f8b4b1ec","67894a96eb30b84596b5b8c5","passed","","3039","","","","","","","","","","","","","<p><b>This experiment requires keyboard input.</b></p> 
        <p><b>To ensure your response will be recorded successfully, please press the 'f' key to continue.</b></p>
        <p>If you can't proceed, you won't be able to complete this study.</p>
        <p></p> <!-- Blank line -->
        <p id=""blinking-text"" style=""font-weight; animation: blink 2s infinite;"">Press f to continue</p>
        <style>
            @keyframes blink {
                50% {
                    opacity: 0;
                }
            }
        </style>","f","","","","","","","","","","","","","",""
"","","","","","html-keyboard-response","8","67319","0.0-8.0","67884b1aa6c55d9dd2388778","67619bf32066d179f8b4b1ec","67894a96eb30b84596b5b8c5","passed","","4370","","","","","","","","","","","","","<p><b>This experiment requires keyboard input.</b></p> 
        <p><b>To ensure your response will be recorded successfully, please press the 'j' key to continue.</b></p>
        <p>If you can't proceed, you won't be able to complete this study.</p>
        <p></p> <!-- Blank line -->
        <p id=""blinking-text"" style=""font-weight; animation: blink 2s infinite;"">Press j to continue</p>
        <style>
            @keyframes blink {
                50% {
                    opacity: 0;
                }
            }
        </style>","j","","","","","","","","","","","","","",""
"","","","","","browser-check","9","68327","0.0-9.0","67884b1aa6c55d9dd2388778","67619bf32066d179f8b4b1ec","67894a96eb30b84596b5b8c5","passed","","","1366","768","true","chrome","131.0.0","false","Windows 10","true","60.05","true","true","","","","","","","","","","","","","","","","",""
"","","","","","survey-text","10","92636","0.0-10.0","67884b1aa6c55d9dd2388778","67619bf32066d179f8b4b1ec","67894a96eb30b84596b5b8c5","passed","","24291","","","","","","","","","","","","","","{""prolificID"":""67884b1aa6c55d9dd2388778""}","","","","","","","","","","","","","",""
"","","","","","instructions","11","435976","0.0-11.0-0.0-0.0","67884b1aa6c55d9dd2388778","67619bf32066d179f8b4b1ec","67894a96eb30b84596b5b8c5","passed","[{""page_index"":0,""viewing_time"":310825},{""page_index"":1,""viewing_time"":11760},{""page_index"":2,""viewing_time"":10356},{""page_index"":3,""viewing_time"":10396}]","343338","","","","","","","","","","","","","","","","","","","","","","","","","","","",""
"","","","","","html-keyboard-response","12","451087","0.0-11.0-0.0-1.0","67884b1aa6c55d9dd2388778","67619bf32066d179f8b4b1ec","67894a96eb30b84596b5b8c5","passed","","14589","","","","","","","","","","","","","<br>Remember! After a ball falls, the screen will disappear, and you'll decide if the proposed position is where the hidden triangle was. <br>You will now practice this by watching a few videos and making decisions.<p>To respond:<br style=""margin-bottom: 5px; text-indent: -20px; padding-left: 20px;"">- Press <b style=""color: #12AD2B;"">J for Yes</b>, if you think the triangle is in the correct position.<br style=""margin-top: 0; text-indent: -20px; padding-left: 20px;"">- Press <b style=""color: orange;"">F for No</b>, if you think the triangle is not in the correct position.</p><p>In this practice round, there is no time limit. Focus on getting comfortable with the task first.<br>Press either J or F to begin your practice trials.</p><img src = ""YesOrNo_instruction.png"" style=""width: 65%;""></img>","j","","","","","","","","","","","","","",""
"","","","","","html-keyboard-response","13","452674","0.0-11.0-0.0-2.0-0.0","67884b1aa6c55d9dd2388778","67619bf32066d179f8b4b1ec","67894a96eb30b84596b5b8c5","passed","","","","","","","","","","","","","","","","","ballFalling_prac","416","464","296","1","fallScene","false","","","","","","",""
"","","","","","html-keyboard-response","14","456610","0.0-11.0-0.0-2.0-1.0","67884b1aa6c55d9dd2388778","67619bf32066d179f8b4b1ec","67894a96eb30b84596b5b8c5","passed","","3919","","","","","","","","","","","","","","j","yesOrNo_prac_noTimed","","","","1","","","gt","NA","","","","",""
"","","","","","html-keyboard-response","15","458191","0.0-11.0-0.0-2.0-0.1","67884b1aa6c55d9dd2388778","67619bf32066d179f8b4b1ec","67894a96eb30b84596b5b8c5","passed","","","","","","","","","","","","","","","","","ballFalling_prac","441","414","302","5","fallScene","true","","","","","","",""
"","","","","","html-keyboard-response","16","460442","0.0-11.0-0.0-2.0-1.1","67884b1aa6c55d9dd2388778","67619bf32066d179f8b4b1ec","67894a96eb30b84596b5b8c5","passed","","2249","","","","","","","","","","","","","","j","yesOrNo_prac_noTimed","","","","5","","","close gt","NA","","","","",""
"","","","","","html-keyboard-response","17","462541","0.0-11.0-0.0-2.0-0.2","67884b1aa6c55d9dd2388778","67619bf32066d179f8b4b1ec","67894a96eb30b84596b5b8c5","passed","","","","","","","","","","","","","","","","","ballFalling_prac","660","666","350","3","fallScene","false","","","","","","",""
"","","","","","html-keyboard-response","18","463960","0.0-11.0-0.0-2.0-1.2","67884b1aa6c55d9dd2388778","67619bf32066d179f8b4b1ec","67894a96eb30b84596b5b8c5","passed","","1417","","","","","","","","","","","","","","j","yesOrNo_prac_noTimed","","","","3","","","wrong direction","NA","","","","",""
"","","","","","instructions","19","555695","0.0-11.0-0.0-3.0","67884b1aa6c55d9dd2388778","67619bf32066d179f8b4b1ec","67894a96eb30b84596b5b8c5","passed","[{""page_index"":0,""viewing_time"":62844},{""page_index"":1,""viewing_time"":28888}]","91733","","","","","","","","","","","","","","","","","","","","","","","","","","","",""
"","","","","","html-button-response","20","559774","0.0-11.0-0.0-4.0","67884b1aa6c55d9dd2388778","67619bf32066d179f8b4b1ec","67894a96eb30b84596b5b8c5","passed","","3572","","","","","","","","","","","","","<p>To make sure you understood the task, we just have a <b>brief quiz</b> here.</p><p>If you need to review the instructions, click 'Previous'.</p><p>It's important to understand the task to do the study, so you have to pass the quiz to move to the study.</p>","1","","","","","","","","","","","","","",""
"","","","","","survey-multi-choice","21","578058","0.0-11.0-1.0-0.0","67884b1aa6c55d9dd2388778","67619bf32066d179f8b4b1ec","67894a96eb30b84596b5b8c5","passed","","18274","","","","","","","","","","","","","","{""generalProcedure"":""Watch a video of a ball falling, some of it behind a gray screen. After each video, decide if the triangle is at the spot where the ball hit the triangle behind the screen. There is time limit for the response.""}","","","","","","","","","","[0]","","","",""
"","","","","","survey-multi-choice","22","582827","0.0-11.0-1.0-1.0","67884b1aa6c55d9dd2388778","67619bf32066d179f8b4b1ec","67894a96eb30b84596b5b8c5","passed","","4767","","","","","","","","","","","","","","{""checkBallHitObstacle"":""Yes.""}","","","","","","","","","","[0]","","","",""
"","","","","","survey-multi-choice","23","587057","0.0-11.0-1.0-2.0","67884b1aa6c55d9dd2388778","67619bf32066d179f8b4b1ec","67894a96eb30b84596b5b8c5","passed","","4227","","","","","","","","","","","","","","{""checkTriangleVisibility"":""No, the triangle is hidden behind the gray screen.""}","","","","","","","","","","[0]","","","",""
"","","","","","survey-multi-choice","24","591774","0.0-11.0-1.0-3.0","67884b1aa6c55d9dd2388778","67619bf32066d179f8b4b1ec","67894a96eb30b84596b5b8c5","passed","","4713","","","","","","","","","","","","","","{""checkTimedResponse"":""Your response will not be recorded, and the trial will move to the next one.""}","","","","","","","","","","[0]","","","",""
"","","","","","survey-multi-choice","25","600867","0.0-11.0-1.0-4.0","67884b1aa6c55d9dd2388778","67619bf32066d179f8b4b1ec","67894a96eb30b84596b5b8c5","passed","","9089","","","","","","","","","","","","","","{""checkTimeBlockNotice"":""At the beginning of each block.""}","","","","","","","","","","[0]","","","",""
"","","","","","survey-multi-choice","26","610906","0.0-11.0-1.0-5.0","67884b1aa6c55d9dd2388778","67619bf32066d179f8b4b1ec","67894a96eb30b84596b5b8c5","passed","","10031","","","","","","","","","","","","","","{""checkTimeBlockSameness"":""No, the time limit changes for each trial within a block.""}","","","","","","","","","","[0]","","","",""
"","","","","","survey-multi-choice","27","644704","0.0-11.0-1.0-6.0","67884b1aa6c55d9dd2388778","67619bf32066d179f8b4b1ec","67894a96eb30b84596b5b8c5","passed","","33792","","","","","","","","","","","","","","{""checkTrianglePrecision"":""Yes. The proposed purple triangle is very close to the correct position, so I should choose 'Yes.'""}","","","","","","","","","","[0]","","","",""
"","","","","","html-button-response","28","648332","0.0-11.0-2.0-0.0","67884b1aa6c55d9dd2388778","67619bf32066d179f8b4b1ec","67894a96eb30b84596b5b8c5","passed","","3625","","","","","","","","","","","","","<p>Oops! You did not pass the quiz.</p><p>You will now repeat the instructions and practice.</p>","0","","","","","","","","","","","failed","","",""
"","","","","","instructions","29","677277","0.0-11.1-0.1-0.1","67884b1aa6c55d9dd2388778","67619bf32066d179f8b4b1ec","67894a96eb30b84596b5b8c5","passed","[{""page_index"":0,""viewing_time"":7816},{""page_index"":1,""viewing_time"":6551},{""page_index"":2,""viewing_time"":8130},{""page_index"":3,""viewing_time"":6445}]","28944","","","","","","","","","","","","","","","","","","","","","","","","","","","",""
"","","","","","html-keyboard-response","30","685015","0.0-11.1-0.1-1.1","67884b1aa6c55d9dd2388778","67619bf32066d179f8b4b1ec","67894a96eb30b84596b5b8c5","passed","","7224","","","","","","","","","","","","","<br>Remember! After a ball falls, the screen will disappear, and you'll decide if the proposed position is where the hidden triangle was. <br>You will now practice this by watching a few videos and making decisions.<p>To respond:<br style=""margin-bottom: 5px; text-indent: -20px; padding-left: 20px;"">- Press <b style=""color: #12AD2B;"">J for Yes</b>, if you think the triangle is in the correct position.<br style=""margin-top: 0; text-indent: -20px; padding-left: 20px;"">- Press <b style=""color: orange;"">F for No</b>, if you think the triangle is not in the correct position.</p><p>In this practice round, there is no time limit. Focus on getting comfortable with the task first.<br>Press either J or F to begin your practice trials.</p><img src = ""YesOrNo_instruction.png"" style=""width: 65%;""></img>","f","","","","","","","","","","","","","",""
"","","","","","html-keyboard-response","31","687099","0.0-11.1-0.1-2.1-0.3","67884b1aa6c55d9dd2388778","67619bf32066d179f8b4b1ec","67894a96eb30b84596b5b8c5","passed","","","","","","","","","","","","","","","","","ballFalling_prac","660","666","350","3","fallScene","false","","","","","","",""
"","","","","","html-keyboard-response","32","688287","0.0-11.1-0.1-2.1-1.3","67884b1aa6c55d9dd2388778","67619bf32066d179f8b4b1ec","67894a96eb30b84596b5b8c5","passed","","1184","","","","","","","","","","","","","","j","yesOrNo_prac_noTimed","","","","3","","","wrong direction","NA","","","","",""
"","","","","","html-keyboard-response","33","689848","0.0-11.1-0.1-2.1-0.4","67884b1aa6c55d9dd2388778","67619bf32066d179f8b4b1ec","67894a96eb30b84596b5b8c5","passed","","","","","","","","","","","","","","","","","ballFalling_prac","416","464","296","1","fallScene","false","","","","","","",""
"","","","","","html-keyboard-response","34","692199","0.0-11.1-0.1-2.1-1.4","67884b1aa6c55d9dd2388778","67619bf32066d179f8b4b1ec","67894a96eb30b84596b5b8c5","passed","","2347","","","","","","","","","","","","","","j","yesOrNo_prac_noTimed","","","","1","","","gt","NA","","","","",""
"","","","","","html-keyboard-response","35","693764","0.0-11.1-0.1-2.1-0.5","67884b1aa6c55d9dd2388778","67619bf32066d179f8b4b1ec","67894a96eb30b84596b5b8c5","passed","","","","","","","","","","","","","","","","","ballFalling_prac","441","414","302","5","fallScene","true","","","","","","",""
"","","","","","html-keyboard-response","36","694944","0.0-11.1-0.1-2.1-1.5","67884b1aa6c55d9dd2388778","67619bf32066d179f8b4b1ec","67894a96eb30b84596b5b8c5","passed","","1176","","","","","","","","","","","","","","j","yesOrNo_prac_noTimed","","","","5","","","close gt","NA","","","","",""
"","","","","","instructions","37","747882","0.0-11.1-0.1-3.1","67884b1aa6c55d9dd2388778","67619bf32066d179f8b4b1ec","67894a96eb30b84596b5b8c5","passed","[{""page_index"":0,""viewing_time"":34058},{""page_index"":1,""viewing_time"":18878}]","52937","","","","","","","","","","","","","","","","","","","","","","","","","","","",""
"","","","","","html-button-response","38","753869","0.0-11.1-0.1-4.1","67884b1aa6c55d9dd2388778","67619bf32066d179f8b4b1ec","67894a96eb30b84596b5b8c5","passed","","5467","","","","","","","","","","","","","<p>To make sure you understood the task, we just have a <b>brief quiz</b> here.</p><p>If you need to review the instructions, click 'Previous'.</p><p>It's important to understand the task to do the study, so you have to pass the quiz to move to the study.</p>","1","","","","","","","","","","","","","",""
"","","","","","survey-multi-choice","39","759924","0.0-11.1-1.1-0.1","67884b1aa6c55d9dd2388778","67619bf32066d179f8b4b1ec","67894a96eb30b84596b5b8c5","passed","","6053","","","","","","","","","","","","","","{""generalProcedure"":""Watch a video of a ball falling, some of it behind a gray screen. After each video, decide if the triangle is at the spot where the ball hit the triangle behind the screen. There is time limit for the response.""}","","","","","","","","","","[0]","","","",""
"","","","","","survey-multi-choice","40","767073","0.0-11.1-1.1-1.1","67884b1aa6c55d9dd2388778","67619bf32066d179f8b4b1ec","67894a96eb30b84596b5b8c5","passed","","7145","","","","","","","","","","","","","","{""checkBallHitObstacle"":""Yes.""}","","","","","","","","","","[0]","","","",""
"","","","","","survey-multi-choice","41","772268","0.0-11.1-1.1-2.1","67884b1aa6c55d9dd2388778","67619bf32066d179f8b4b1ec","67894a96eb30b84596b5b8c5","passed","","5192","","","","","","","","","","","","","","{""checkTriangleVisibility"":""No, the triangle is hidden behind the gray screen.""}","","","","","","","","","","[0]","","","",""
"","","","","","survey-multi-choice","42","777120","0.0-11.1-1.1-3.1","67884b1aa6c55d9dd2388778","67619bf32066d179f8b4b1ec","67894a96eb30b84596b5b8c5","passed","","4848","","","","","","","","","","","","","","{""checkTimedResponse"":""Your response will not be recorded, and the trial will move to the next one.""}","","","","","","","","","","[0]","","","",""
"","","","","","survey-multi-choice","43","791982","0.0-11.1-1.1-4.1","67884b1aa6c55d9dd2388778","67619bf32066d179f8b4b1ec","67894a96eb30b84596b5b8c5","passed","","14859","","","","","","","","","","","","","","{""checkTimeBlockNotice"":""At the beginning of each block.""}","","","","","","","","","","[0]","","","",""
"","","","","","survey-multi-choice","44","814221","0.0-11.1-1.1-5.1","67884b1aa6c55d9dd2388778","67619bf32066d179f8b4b1ec","67894a96eb30b84596b5b8c5","passed","","22236","","","","","","","","","","","","","","{""checkTimeBlockSameness"":""Yes, the time limit is the same for all trials within a block.""}","","","","","","","","","","[0]","","","",""
"","","","","","survey-multi-choice","45","838971","0.0-11.1-1.1-6.1","67884b1aa6c55d9dd2388778","67619bf32066d179f8b4b1ec","67894a96eb30b84596b5b8c5","passed","","24747","","","","","","","","","","","","","","{""checkTrianglePrecision"":""No. The proposed purple triangle is not in the correct position because it doesn't match the location of the white triangle exactly.""}","","","","","","","","","","[0]","","","",""
"","","","","","instructions","46","861384","0.0-12.0","67884b1aa6c55d9dd2388778","67619bf32066d179f8b4b1ec","67894a96eb30b84596b5b8c5","passed","[{""page_index"":0,""viewing_time"":4109},{""page_index"":1,""viewing_time"":6211},{""page_index"":2,""viewing_time"":5949},{""page_index"":3,""viewing_time"":6140}]","22410","","","","","","","","","","","","","","","","","","","","","","","","","","","",""
"","","","","","instructions","47","891844","0.0-13.0-0.0","67884b1aa6c55d9dd2388778","67619bf32066d179f8b4b1ec","67894a96eb30b84596b5b8c5","passed","[{""page_index"":0,""viewing_time"":30458}]","30458","","","","","","","","","","","","","","","","","","","","","","","","","","","",""
"","","","","","html-keyboard-response","48","895164","0.0-13.0-1.0","67884b1aa6c55d9dd2388778","67619bf32066d179f8b4b1ec","67894a96eb30b84596b5b8c5","passed","","3318","","","","","","","","","","","","","<p><span style=""font-size:40px;"">Practice BLOCK 1</span></p><p><span style=""font-size:25px;"">You have <strong>3 second(s)</strong> to respond to the following trials.</span><br></p><p id=""blinking-text"" style=""font-weight; animation: blink 2s infinite;"">Press Space to continue</p><style>
                    @keyframes blink {
                        50% {
                            opacity: 0;
                        }
                    }
                </style>"," ","","","","","","","","","","","","","",""
"","","","","","html-keyboard-response","49","896758","0.0-13.0-2.0-0.0","67884b1aa6c55d9dd2388778","67619bf32066d179f8b4b1ec","67894a96eb30b84596b5b8c5","passed","","","","","","","","","","","","","","","","","ballFalling_prac","660","610","263","4","fallScene","false","","","","","","",""
"","","","","","html-keyboard-response","50","897832","0.0-13.0-2.0-1.0","67884b1aa6c55d9dd2388778","67619bf32066d179f8b4b1ec","67894a96eb30b84596b5b8c5","passed","","1061","","","","","","","","","","","","","","j","yesOrNo_prac","","","","4","","","gt","3000","","","","",""
"","","","","","html-keyboard-response","51","899380","0.0-13.0-2.0-0.1","67884b1aa6c55d9dd2388778","67619bf32066d179f8b4b1ec","67894a96eb30b84596b5b8c5","passed","","","","","","","","","","","","","","","","","ballFalling_prac","416","464","296","1","fallScene","false","","","","","","",""
"","","","","","html-keyboard-response","52","900827","0.0-13.0-2.0-1.1","67884b1aa6c55d9dd2388778","67619bf32066d179f8b4b1ec","67894a96eb30b84596b5b8c5","passed","","1442","","","","","","","","","","","","","","j","yesOrNo_prac","","","","1","","","far gt","3000","","","","",""
"","","","","","html-keyboard-response","53","902377","0.0-13.0-2.0-0.2","67884b1aa6c55d9dd2388778","67619bf32066d179f8b4b1ec","67894a96eb30b84596b5b8c5","passed","","","","","","","","","","","","","","","","","ballFalling_prac","584","536","296","1","fallScene","true","","","","","","",""
"","","","","","html-keyboard-response","54","903430","0.0-13.0-2.0-1.2","67884b1aa6c55d9dd2388778","67619bf32066d179f8b4b1ec","67894a96eb30b84596b5b8c5","passed","","1050","","","","","","","","","","","","","","f","yesOrNo_prac","","","","1","","","close gt","3000","","","","",""
"","","","","","html-keyboard-response","55","905215","0.0-13.0-3.0","67884b1aa6c55d9dd2388778","67619bf32066d179f8b4b1ec","67894a96eb30b84596b5b8c5","passed","","1783","","","","","","","","","","","","","<p><span style=""font-size:40px;"">Practice BLOCK 2</span></p><p><span style=""font-size:25px;"">You have <strong>1 second(s)</strong> to respond to the following trials.</span><br></p><p id=""blinking-text"" style=""font-weight; animation: blink 2s infinite;"">Press Space to continue</p><style>
                    @keyframes blink {
                        50% {
                            opacity: 0;
                        }
                    }
                </style>"," ","","","","","","","","","","","","","",""
"","","","","","html-keyboard-response","56","906779","0.0-13.0-4.0-0.0","67884b1aa6c55d9dd2388778","67619bf32066d179f8b4b1ec","67894a96eb30b84596b5b8c5","passed","","","","","","","","","","","","","","","","","ballFalling_prac","441","500","317","6","fallScene","true","","","","","","",""
"","","","","","html-keyboard-response","57","907791","0.0-13.0-4.0-1.0","67884b1aa6c55d9dd2388778","67619bf32066d179f8b4b1ec","67894a96eb30b84596b5b8c5","passed","","null","","","","","","","","","","","","","","null","yesOrNo_prac","","","","6","","","gt","1000","","","","",""
"","","","","","html-keyboard-response","58","909343","0.0-13.0-4.0-0.1","67884b1aa6c55d9dd2388778","67619bf32066d179f8b4b1ec","67894a96eb30b84596b5b8c5","passed","","","","","","","","","","","","","","","","","ballFalling_prac","660","610","263","4","fallScene","false","","","","","","",""
"","","","","","html-keyboard-response","59","909713","0.0-13.0-4.0-1.1","67884b1aa6c55d9dd2388778","67619bf32066d179f8b4b1ec","67894a96eb30b84596b5b8c5","passed","","366","","","","","","","","","","","","","","j","yesOrNo_prac","","","","4","","","far gt","1000","","","","",""
"","","","","","html-keyboard-response","60","911829","0.0-13.0-4.0-0.2","67884b1aa6c55d9dd2388778","67619bf32066d179f8b4b1ec","67894a96eb30b84596b5b8c5","passed","","","","","","","","","","","","","","","","","ballFalling_prac","340","334","350","3","fallScene","true","","","","","","",""
"","","","","","html-keyboard-response","61","912277","0.0-13.0-4.0-1.2","67884b1aa6c55d9dd2388778","67619bf32066d179f8b4b1ec","67894a96eb30b84596b5b8c5","passed","","446","","","","","","","","","","","","","","f","yesOrNo_prac","","","","3","","","close gt","1000","","","","",""
"","","","","","instructions","62","913616","0.0-13.0-5.0","67884b1aa6c55d9dd2388778","67619bf32066d179f8b4b1ec","67894a96eb30b84596b5b8c5","passed","[{""page_index"":0,""viewing_time"":1337}]","1338","","","","","","","","","","","","","","","","","","","","","","","","","","","",""
"","","","","","html-keyboard-response","63","914876","0.0-13.0-6.0","67884b1aa6c55d9dd2388778","67619bf32066d179f8b4b1ec","67894a96eb30b84596b5b8c5","passed","","1259","","","","","","","","","","","","","<p><span style=""font-size:40px;"">Practice Test BLOCK 1</span></p><p><span style=""font-size:25px;"">You have <strong>1 second(s)</strong> to respond to the following trials.</span><br></p><p id=""blinking-text"" style=""font-weight; animation: blink 2s infinite;"">Press Space to continue</p><style>
                    @keyframes blink {
                        50% {
                            opacity: 0;
                        }
                    }
                </style>"," ","","","","","","","","","","","","","",""
"","","","","","html-keyboard-response","64","916459","0.0-13.0-7.0-0.0","67884b1aa6c55d9dd2388778","67619bf32066d179f8b4b1ec","67894a96eb30b84596b5b8c5","passed","","","","","","","","","","","","","","","","","ballFalling_prac","559","586","302","5","fallScene","false","","","","","","",""
"","","","","","html-keyboard-response","65","917163","0.0-13.0-7.0-1.0","67884b1aa6c55d9dd2388778","67619bf32066d179f8b4b1ec","67894a96eb30b84596b5b8c5","passed","","700","","","","","","","","","","","","","","j","yesOrNo_prac","","","","5","","","gt","1000","","","","",""
"","","","","","html-keyboard-response","66","918725","0.0-13.0-7.0-0.1","67884b1aa6c55d9dd2388778","67619bf32066d179f8b4b1ec","67894a96eb30b84596b5b8c5","passed","","","","","","","","","","","","","","","","","ballFalling_prac","441","500","317","6","fallScene","true","","","","","","",""
"","","","","","html-keyboard-response","67","919411","0.0-13.0-7.0-1.1","67884b1aa6c55d9dd2388778","67619bf32066d179f8b4b1ec","67894a96eb30b84596b5b8c5","passed","","683","","","","","","","","","","","","","","j","yesOrNo_prac","","","","6","","","close gt","1000","","","","",""
"","","","","","html-keyboard-response","68","920992","0.0-13.0-7.0-0.2","67884b1aa6c55d9dd2388778","67619bf32066d179f8b4b1ec","67894a96eb30b84596b5b8c5","passed","","","","","","","","","","","","","","","","","ballFalling_prac","340","390","263","4","fallScene","true","","","","","","",""
"","","","","","html-keyboard-response","69","921668","0.0-13.0-7.0-1.2","67884b1aa6c55d9dd2388778","67619bf32066d179f8b4b1ec","67894a96eb30b84596b5b8c5","passed","","673","","","","","","","","","","","","","","j","yesOrNo_prac","","","","4","","","far gt","1000","","","","",""
"","","","","","html-keyboard-response","70","924858","0.0-13.0-8.0","67884b1aa6c55d9dd2388778","67619bf32066d179f8b4b1ec","67894a96eb30b84596b5b8c5","passed","","3188","","","","","","","","","","","","","<p><span style=""font-size:40px;"">Practice Test BLOCK 2</span></p><p><span style=""font-size:25px;"">You have <strong>3 second(s)</strong> to respond to the following trials.</span><br></p><p id=""blinking-text"" style=""font-weight; animation: blink 2s infinite;"">Press Space to continue</p><style>
                    @keyframes blink {
                        50% {
                            opacity: 0;
                        }
                    }
                </style>"," ","","","","","","","","","","","","","",""
"","","","","","html-keyboard-response","71","926456","0.0-13.0-9.0-0.0","67884b1aa6c55d9dd2388778","67619bf32066d179f8b4b1ec","67894a96eb30b84596b5b8c5","passed","","","","","","","","","","","","","","","","","ballFalling_prac","340","390","263","4","fallScene","true","","","","","","",""
"","","","","","html-keyboard-response","72","927010","0.0-13.0-9.0-1.0","67884b1aa6c55d9dd2388778","67619bf32066d179f8b4b1ec","67894a96eb30b84596b5b8c5","passed","","549","","","","","","","","","","","","","","j","yesOrNo_prac","","","","4","","","close gt","3000","","","","",""
"","","","","","html-keyboard-response","73","928591","0.0-13.0-9.0-0.1","67884b1aa6c55d9dd2388778","67619bf32066d179f8b4b1ec","67894a96eb30b84596b5b8c5","passed","","","","","","","","","","","","","","","","","ballFalling_prac","416","365","249","2","fallScene","false","","","","","","",""
"","","","","","html-keyboard-response","74","929280","0.0-13.0-9.0-1.1","67884b1aa6c55d9dd2388778","67619bf32066d179f8b4b1ec","67894a96eb30b84596b5b8c5","passed","","686","","","","","","","","","","","","","","j","yesOrNo_prac","","","","2","","","gt","3000","","","","",""
"","","","","","html-keyboard-response","75","930858","0.0-13.0-9.0-0.2","67884b1aa6c55d9dd2388778","67619bf32066d179f8b4b1ec","67894a96eb30b84596b5b8c5","passed","","","","","","","","","","","","","","","","","ballFalling_prac","559","586","302","5","fallScene","false","","","","","","",""
"","","","","","html-keyboard-response","76","931413","0.0-13.0-9.0-1.2","67884b1aa6c55d9dd2388778","67619bf32066d179f8b4b1ec","67894a96eb30b84596b5b8c5","passed","","552","","","","","","","","","","","","","","j","yesOrNo_prac","","","","5","","","far gt","3000","","","","",""
"","","","","","instructions","77","943988","0.0-14.0","67884b1aa6c55d9dd2388778","67619bf32066d179f8b4b1ec","67894a96eb30b84596b5b8c5","passed","[{""page_index"":0,""viewing_time"":12565}]","12566","","","","","","","","","","","","","","","","","","","","","","","","","","","",""
"","","","","","html-keyboard-response","78","946516","0.0-15.0","67884b1aa6c55d9dd2388778","67619bf32066d179f8b4b1ec","67894a96eb30b84596b5b8c5","passed","","2526","","","","","","","","","","","","","<p><span style=""font-size:40px;"">BLOCK 1</span></p><p><span style=""font-size:25px;"">You have <strong>1 second(s)</strong> to respond to the following trials.</span><br></p><p></p> <!-- Blank line -->
                <p id=""blinking-text"" style=""font-weight; animation: blink 2s infinite;"">Press Space to continue</p>
                <style>
                    @keyframes blink {
                        50% {
                            opacity: 0;
                        }
                    }
                </style></p>"," ","","","","","","","","","","","","","",""
"","","","","","html-keyboard-response","79","948322","0.0-16.0-0.0","67884b1aa6c55d9dd2388778","67619bf32066d179f8b4b1ec","67894a96eb30b84596b5b8c5","passed","","","","","","","","","","","","","","","","","ballFalling","322.3","308.07114317029976","253.89","2","fallScene","false","","","","","1","",""
"","","","","","html-keyboard-response","80","948775","0.0-16.0-1.0","67884b1aa6c55d9dd2388778","67619bf32066d179f8b4b1ec","67894a96eb30b84596b5b8c5","passed","","449","","","","","","","","","","","","","","j","yesOrNo","","","","2","","","mid","1000","","","1","321.3","300"
"","","","","","html-keyboard-response","81","950557","0.0-16.0-0.1","67884b1aa6c55d9dd2388778","67619bf32066d179f8b4b1ec","67894a96eb30b84596b5b8c5","passed","","","","","","","","","","","","","","","","","ballFalling","322.3","308.07114317029976","253.89","2","fallScene","false","","","","","2","",""
"","","","","","html-keyboard-response","82","951023","0.0-16.0-1.1","67884b1aa6c55d9dd2388778","67619bf32066d179f8b4b1ec","67894a96eb30b84596b5b8c5","passed","","464","","","","","","","","","","","","","","j","yesOrNo","","","","2","","","lp","1000","","","2","321.3","151"
"","","","","","html-keyboard-response","83","952576","0.0-16.0-0.2","67884b1aa6c55d9dd2388778","67619bf32066d179f8b4b1ec","67894a96eb30b84596b5b8c5","passed","","","","","","","","","","","","","","","","","ballFalling","604.4000000000001","650.0211431702996","404.58000000000004","11","fallScene","true","","","","","3","",""
"","","","","","html-keyboard-response","84","953317","0.0-16.0-1.2","67884b1aa6c55d9dd2388778","67619bf32066d179f8b4b1ec","67894a96eb30b84596b5b8c5","passed","","738","","","","","","","","","","","","","","f","yesOrNo","","","","11","","","gt","1000","","","3","650.0211431702996","404.58"
"","","","","","html-keyboard-response","85","954876","0.0-16.0-0.3","67884b1aa6c55d9dd2388778","67619bf32066d179f8b4b1ec","67894a96eb30b84596b5b8c5","passed","","","","","","","","","","","","","","","","","ballFalling","322.3","356.42114317029973","357.87","4","fallScene","false","","","","","4","",""
"","","","","","html-keyboard-response","86","955510","0.0-16.0-1.3","67884b1aa6c55d9dd2388778","67619bf32066d179f8b4b1ec","67894a96eb30b84596b5b8c5","passed","","630","","","","","","","","","","","","","","j","yesOrNo","","","","4","","","gt","1000","","","4","356.42114317029973","357.87"
"","","","","","html-keyboard-response","87","957076","0.0-16.0-0.4","67884b1aa6c55d9dd2388778","67619bf32066d179f8b4b1ec","67894a96eb30b84596b5b8c5","passed","","","","","","","","","","","","","","","","","ballFalling","322.3","379.3711431702997","245.25","1","fallScene","true","","","","","5","",""
"","","","","","html-keyboard-response","88","957543","0.0-16.0-1.4","67884b1aa6c55d9dd2388778","67619bf32066d179f8b4b1ec","67894a96eb30b84596b5b8c5","passed","","463","","","","","","","","","","","","","","j","yesOrNo","","","","1","","","lp","1000","","","5","323.3","217.74551669457017"
"","","","","","html-keyboard-response","89","959025","0.0-16.0-0.5","67884b1aa6c55d9dd2388778","67619bf32066d179f8b4b1ec","67894a96eb30b84596b5b8c5","passed","","","","","","","","","","","","","","","","","ballFalling","604.4000000000001","667.6211431702998","201.78","9","fallScene","true","","","","","6","",""
"","","","","","html-keyboard-response","90","959538","0.0-16.0-1.5","67884b1aa6c55d9dd2388778","67619bf32066d179f8b4b1ec","67894a96eb30b84596b5b8c5","passed","","510","","","","","","","","","","","","","","j","yesOrNo","","","","9","","","gt","1000","","","6","667.6211431702998","201.78"
"","","","","","html-keyboard-response","91","961073","0.0-16.0-0.6","67884b1aa6c55d9dd2388778","67619bf32066d179f8b4b1ec","67894a96eb30b84596b5b8c5","passed","","","","","","","","","","","","","","","","","ballFalling","322.3","356.42114317029973","357.87","4","fallScene","true","","","","","7","",""
"","","","","","html-keyboard-response","92","961778","0.0-16.0-1.6","67884b1aa6c55d9dd2388778","67619bf32066d179f8b4b1ec","67894a96eb30b84596b5b8c5","passed","","701","","","","","","","","","","","","","","j","yesOrNo","","","","4","","","gt","1000","","","7","356.42114317029973","357.87"
"","","","","","html-keyboard-response","93","963339","0.0-16.0-0.7","67884b1aa6c55d9dd2388778","67619bf32066d179f8b4b1ec","67894a96eb30b84596b5b8c5","passed","","","","","","","","","","","","","","","","","ballFalling","322.3","356.42114317029973","357.87","4","fallScene","true","","","","","8","",""
"","","","","","html-keyboard-response","94","963900","0.0-16.0-1.7","67884b1aa6c55d9dd2388778","67619bf32066d179f8b4b1ec","67894a96eb30b84596b5b8c5","passed","","557","","","","","","","","","","","","","","f","yesOrNo","","","","4","","","mid","1000","","","8","390.27114317029975","300"
"","","","","","html-keyboard-response","95","965439","0.0-16.0-0.8","67884b1aa6c55d9dd2388778","67619bf32066d179f8b4b1ec","67894a96eb30b84596b5b8c5","passed","","","","","","","","","","","","","","","","","ballFalling","322.3","296.07114317029976","371.46","3","fallScene","false","","","","","9","",""
"","","","","","html-keyboard-response","96","965947","0.0-16.0-1.8","67884b1aa6c55d9dd2388778","67619bf32066d179f8b4b1ec","67894a96eb30b84596b5b8c5","passed","","505","","","","","","","","","","","","","","j","yesOrNo","","","","3","","","lp","1000","","","9","321.3","287.3327096511259"
"","","","","","html-keyboard-response","97","967571","0.0-16.0-0.9","67884b1aa6c55d9dd2388778","67619bf32066d179f8b4b1ec","67894a96eb30b84596b5b8c5","passed","","","","","","","","","","","","","","","","","ballFalling","322.3","379.3711431702997","245.25","1","fallScene","true","","","","","10","",""
"","","","","","html-keyboard-response","98","968072","0.0-16.0-1.9","67884b1aa6c55d9dd2388778","67619bf32066d179f8b4b1ec","67894a96eb30b84596b5b8c5","passed","","498","","","","","","","","","","","","","","j","yesOrNo","","","","1","","","gt","1000","","","10","379.3711431702997","245.25"
"","","","","","html-keyboard-response","99","969605","0.0-16.0-0.10","67884b1aa6c55d9dd2388778","67619bf32066d179f8b4b1ec","67894a96eb30b84596b5b8c5","passed","","","","","","","","","","","","","","","","","ballFalling","604.4000000000001","650.0211431702996","404.58000000000004","11","fallScene","false","","","","","11","",""
"","","","","","html-keyboard-response","100","970129","0.0-16.0-1.10","67884b1aa6c55d9dd2388778","67619bf32066d179f8b4b1ec","67894a96eb30b84596b5b8c5","passed","","520","","","","","","","","","","","","","","j","yesOrNo","","","","11","","","lp","1000","","","11","605.4000000000001","372.6340973215488"
"","","","","","html-keyboard-response","101","971688","0.0-16.0-0.11","67884b1aa6c55d9dd2388778","67619bf32066d179f8b4b1ec","67894a96eb30b84596b5b8c5","passed","","","","","","","","","","","","","","","","","ballFalling","322.3","356.42114317029973","357.87","4","fallScene","false","","","","","12","",""
"","","","","","html-keyboard-response","102","972376","0.0-16.0-1.11","67884b1aa6c55d9dd2388778","67619bf32066d179f8b4b1ec","67894a96eb30b84596b5b8c5","passed","","685","","","","","","","","","","","","","","j","yesOrNo","","","","4","","","lp","1000","","","12","323.3","297.4070551689986"
"","","","","","html-keyboard-response","103","974040","0.0-16.0-0.12","67884b1aa6c55d9dd2388778","67619bf32066d179f8b4b1ec","67894a96eb30b84596b5b8c5","passed","","","","","","","","","","","","","","","","","ballFalling","500","479.92114317029973","330.87","6","fallScene","false","","","","","13","",""
"","","","","","html-keyboard-response","104","974540","0.0-16.0-1.12","67884b1aa6c55d9dd2388778","67619bf32066d179f8b4b1ec","67894a96eb30b84596b5b8c5","passed","","497","","","","","","","","","","","","","","j","yesOrNo","","","","6","","","gt","1000","","","13","479.9211431702998","330.87"
"","","","","","html-keyboard-response","105","976088","0.0-16.0-0.13","67884b1aa6c55d9dd2388778","67619bf32066d179f8b4b1ec","67894a96eb30b84596b5b8c5","passed","","","","","","","","","","","","","","","","","ballFalling","322.3","296.07114317029976","371.46","3","fallScene","true","","","","","14","",""
"","","","","","html-keyboard-response","106","976851","0.0-16.0-1.13","67884b1aa6c55d9dd2388778","67619bf32066d179f8b4b1ec","67894a96eb30b84596b5b8c5","passed","","759","","","","","","","","","","","","","","j","yesOrNo","","","","3","","","gt","1000","","","14","296.07114317029976","371.46"
"","","","","","html-keyboard-response","107","978404","0.0-16.0-0.14","67884b1aa6c55d9dd2388778","67619bf32066d179f8b4b1ec","67894a96eb30b84596b5b8c5","passed","","","","","","","","","","","","","","","","","ballFalling","322.3","356.42114317029973","357.87","4","fallScene","true","","","","","15","",""
"","","","","","html-keyboard-response","108","978948","0.0-16.0-1.14","67884b1aa6c55d9dd2388778","67619bf32066d179f8b4b1ec","67894a96eb30b84596b5b8c5","passed","","540","","","","","","","","","","","","","","j","yesOrNo","","","","4","","","lp","1000","","","15","323.3","297.4070551689986"
"","","","","","html-keyboard-response","109","980936","0.0-16.0-0.15","67884b1aa6c55d9dd2388778","67619bf32066d179f8b4b1ec","67894a96eb30b84596b5b8c5","passed","","","","","","","","","","","","","","","","","ballFalling","500","510.8711431702997","369.03","8","fallScene","false","","","","","16","",""
"","","","","","html-keyboard-response","110","981739","0.0-16.0-1.15","67884b1aa6c55d9dd2388778","67619bf32066d179f8b4b1ec","67894a96eb30b84596b5b8c5","passed","","801","","","","","","","","","","","","","","j","yesOrNo","","","","8","","","gt","1000","","","16","510.8711431702997","369.03"
"","","","","","html-keyboard-response","111","983754","0.0-16.0-0.16","67884b1aa6c55d9dd2388778","67619bf32066d179f8b4b1ec","67894a96eb30b84596b5b8c5","passed","","","","","","","","","","","","","","","","","ballFalling","500","510.8711431702997","369.03","8","fallScene","false","","","","","17","",""
"","","","","","html-keyboard-response","112","984256","0.0-16.0-1.16","67884b1aa6c55d9dd2388778","67619bf32066d179f8b4b1ec","67894a96eb30b84596b5b8c5","passed","","500","","","","","","","","","","","","","","j","yesOrNo","","","","8","","","lp","1000","","","17","501","151"
"","","","","","html-keyboard-response","113","985819","0.0-16.0-0.17","67884b1aa6c55d9dd2388778","67619bf32066d179f8b4b1ec","67894a96eb30b84596b5b8c5","passed","","","","","","","","","","","","","","","","","ballFalling","604.4000000000001","575.4211431702997","266.76","12","fallScene","false","","","","","18","",""
"","","","","","html-keyboard-response","114","986402","0.0-16.0-1.17","67884b1aa6c55d9dd2388778","67619bf32066d179f8b4b1ec","67894a96eb30b84596b5b8c5","passed","","580","","","","","","","","","","","","","","f","yesOrNo","","","","12","","","mid","1000","","","18","536.4288568297004","300"
"","","","","","html-keyboard-response","115","987949","0.0-16.0-0.18","67884b1aa6c55d9dd2388778","67619bf32066d179f8b4b1ec","67894a96eb30b84596b5b8c5","passed","","","","","","","","","","","","","","","","","ballFalling","604.4000000000001","650.0211431702996","404.58000000000004","11","fallScene","true","","","","","19","",""
"","","","","","html-keyboard-response","116","988558","0.0-16.0-1.18","67884b1aa6c55d9dd2388778","67619bf32066d179f8b4b1ec","67894a96eb30b84596b5b8c5","passed","","606","","","","","","","","","","","","","","j","yesOrNo","","","","11","","","lp","1000","","","19","605.4000000000001","372.6340973215488"
"","","","","","html-keyboard-response","117","990203","0.0-16.0-0.19","67884b1aa6c55d9dd2388778","67619bf32066d179f8b4b1ec","67894a96eb30b84596b5b8c5","passed","","","","","","","","","","","","","","","","","ballFalling","500","479.92114317029973","330.87","6","fallScene","false","","","","","20","",""
"","","","","","html-keyboard-response","118","990691","0.0-16.0-1.19","67884b1aa6c55d9dd2388778","67619bf32066d179f8b4b1ec","67894a96eb30b84596b5b8c5","passed","","486","","","","","","","","","","","","","","j","yesOrNo","","","","6","","","mid","1000","","","20","499","300"
"","","","","","html-keyboard-response","119","992236","0.0-16.0-0.20","67884b1aa6c55d9dd2388778","67619bf32066d179f8b4b1ec","67894a96eb30b84596b5b8c5","passed","","","","","","","","","","","","","","","","","ballFalling","322.3","379.3711431702997","245.25","1","fallScene","true","","","","","21","",""
"","","","","","html-keyboard-response","120","992629","0.0-16.0-1.20","67884b1aa6c55d9dd2388778","67619bf32066d179f8b4b1ec","67894a96eb30b84596b5b8c5","passed","","391","","","","","","","","","","","","","","j","yesOrNo","","","","1","","","gt","1000","","","21","379.3711431702997","245.25"
"","","","","","html-keyboard-response","121","994186","0.0-16.0-0.21","67884b1aa6c55d9dd2388778","67619bf32066d179f8b4b1ec","67894a96eb30b84596b5b8c5","passed","","","","","","","","","","","","","","","","","ballFalling","604.4000000000001","575.4211431702997","266.76","12","fallScene","true","","","","","22","",""
"","","","","","html-keyboard-response","122","994782","0.0-16.0-1.21","67884b1aa6c55d9dd2388778","67619bf32066d179f8b4b1ec","67894a96eb30b84596b5b8c5","passed","","594","","","","","","","","","","","","","","j","yesOrNo","","","","12","","","lp","1000","","","22","603.4000000000001","151"
"","","","","","html-keyboard-response","123","996344","0.0-16.0-0.22","67884b1aa6c55d9dd2388778","67619bf32066d179f8b4b1ec","67894a96eb30b84596b5b8c5","passed","","","","","","","","","","","","","","","","","ballFalling","500","453.67114317029973","210.33","5","fallScene","false","","","","","23","",""
"","","","","","html-keyboard-response","124","996869","0.0-16.0-1.22","67884b1aa6c55d9dd2388778","67619bf32066d179f8b4b1ec","67894a96eb30b84596b5b8c5","passed","","522","","","","","","","","","","","","","","j","yesOrNo","","","","5","","","lp","1000","","","23","499","151"
"","","","","","html-keyboard-response","125","998667","0.0-16.0-0.23","67884b1aa6c55d9dd2388778","67619bf32066d179f8b4b1ec","67894a96eb30b84596b5b8c5","passed","","","","","","","","","","","","","","","","","ballFalling","322.3","308.07114317029976","253.89","2","fallScene","true","","","","","24","",""
"","","","","","html-keyboard-response","126","999156","0.0-16.0-1.23","67884b1aa6c55d9dd2388778","67619bf32066d179f8b4b1ec","67894a96eb30b84596b5b8c5","passed","","485","","","","","","","","","","","","","","j","yesOrNo","","","","2","","","gt","1000","","","24","308.07114317029976","253.89"
"","","","","","html-keyboard-response","127","1071278","0.0-17.0","67884b1aa6c55d9dd2388778","67619bf32066d179f8b4b1ec","67894a96eb30b84596b5b8c5","passed","","72121","","","","","","","","","","","","","<p><span style=""font-size:40px;"">BLOCK 2</span></p><p><span style=""font-size:25px;"">You have <strong>3 second(s)</strong> to respond to the following trials.</span><br></p><p></p> <!-- Blank line -->
                <p id=""blinking-text"" style=""font-weight; animation: blink 2s infinite;"">Press Space to continue</p>
                <style>
                    @keyframes blink {
                        50% {
                            opacity: 0;
                        }
                    }
                </style></p>"," ","","","","","","","","","","","","","",""
"","","","","","html-keyboard-response","128","1072864","0.0-18.0-0.0","67884b1aa6c55d9dd2388778","67619bf32066d179f8b4b1ec","67894a96eb30b84596b5b8c5","passed","","","","","","","","","","","","","","","","","ballFalling","322.3","379.3711431702997","245.25","1","fallScene","true","","","","","25","",""
"","","","","","html-keyboard-response","129","1073380","0.0-18.0-1.0","67884b1aa6c55d9dd2388778","67619bf32066d179f8b4b1ec","67894a96eb30b84596b5b8c5","passed","","512","","","","","","","","","","","","","","j","yesOrNo","","","","1","","","lp","3000","","","25","323.3","217.74551669457017"
"","","","","","html-keyboard-response","130","1074963","0.0-18.0-0.1","67884b1aa6c55d9dd2388778","67619bf32066d179f8b4b1ec","67894a96eb30b84596b5b8c5","passed","","","","","","","","","","","","","","","","","ballFalling","500","553.4711431702997","282.51","7","fallScene","true","","","","","26","",""
"","","","","","html-keyboard-response","131","1075579","0.0-18.0-1.1","67884b1aa6c55d9dd2388778","67619bf32066d179f8b4b1ec","67894a96eb30b84596b5b8c5","passed","","613","","","","","","","","","","","","","","j","yesOrNo","","","","7","","","lp","3000","","","26","501","227.2843295913261"
"","","","","","html-keyboard-response","132","1077141","0.0-18.0-0.2","67884b1aa6c55d9dd2388778","67619bf32066d179f8b4b1ec","67894a96eb30b84596b5b8c5","passed","","","","","","","","","","","","","","","","","ballFalling","604.4000000000001","650.0211431702996","404.58000000000004","11","fallScene","false","","","","","27","",""
"","","","","","html-keyboard-response","133","1077753","0.0-18.0-1.2","67884b1aa6c55d9dd2388778","67619bf32066d179f8b4b1ec","67894a96eb30b84596b5b8c5","passed","","608","","","","","","","","","","","","","","j","yesOrNo","","","","11","","","mid","3000","","","27","605.4000000000001","300"
"","","","","","html-keyboard-response","134","1079544","0.0-18.0-0.3","67884b1aa6c55d9dd2388778","67619bf32066d179f8b4b1ec","67894a96eb30b84596b5b8c5","passed","","","","","","","","","","","","","","","","","ballFalling","322.3","308.07114317029976","253.89","2","fallScene","true","","","","","28","",""
"","","","","","html-keyboard-response","135","1080250","0.0-18.0-1.3","67884b1aa6c55d9dd2388778","67619bf32066d179f8b4b1ec","67894a96eb30b84596b5b8c5","passed","","702","","","","","","","","","","","","","","j","yesOrNo","","","","2","","","gt","3000","","","28","308.07114317029976","253.89"
"","","","","","html-keyboard-response","136","1082041","0.0-18.0-0.4","67884b1aa6c55d9dd2388778","67619bf32066d179f8b4b1ec","67894a96eb30b84596b5b8c5","passed","","","","","","","","","","","","","","","","","ballFalling","322.3","308.07114317029976","253.89","2","fallScene","true","","","","","29","",""
"","","","","","html-keyboard-response","137","1082557","0.0-18.0-1.4","67884b1aa6c55d9dd2388778","67619bf32066d179f8b4b1ec","67894a96eb30b84596b5b8c5","passed","","513","","","","","","","","","","","","","","j","yesOrNo","","","","2","","","lp","3000","","","29","321.3","151"
"","","","","","html-keyboard-response","138","1084110","0.0-18.0-0.5","67884b1aa6c55d9dd2388778","67619bf32066d179f8b4b1ec","67894a96eb30b84596b5b8c5","passed","","","","","","","","","","","","","","","","","ballFalling","322.3","356.42114317029973","357.87","4","fallScene","false","","","","","30","",""
"","","","","","html-keyboard-response","139","1084962","0.0-18.0-1.5","67884b1aa6c55d9dd2388778","67619bf32066d179f8b4b1ec","67894a96eb30b84596b5b8c5","passed","","848","","","","","","","","","","","","","","j","yesOrNo","","","","4","","","lp","3000","","","30","323.3","297.4070551689986"
"","","","","","html-keyboard-response","140","1086759","0.0-18.0-0.6","67884b1aa6c55d9dd2388778","67619bf32066d179f8b4b1ec","67894a96eb30b84596b5b8c5","passed","","","","","","","","","","","","","","","","","ballFalling","322.3","308.07114317029976","253.89","2","fallScene","true","","","","","31","",""
"","","","","","html-keyboard-response","141","1087669","0.0-18.0-1.6","67884b1aa6c55d9dd2388778","67619bf32066d179f8b4b1ec","67894a96eb30b84596b5b8c5","passed","","907","","","","","","","","","","","","","","j","yesOrNo","","","","2","","","mid","3000","","","31","321.3","300"
"","","","","","html-keyboard-response","142","1089225","0.0-18.0-0.7","67884b1aa6c55d9dd2388778","67619bf32066d179f8b4b1ec","67894a96eb30b84596b5b8c5","passed","","","","","","","","","","","","","","","","","ballFalling","604.4000000000001","650.0211431702996","404.58000000000004","11","fallScene","false","","","","","32","",""
"","","","","","html-keyboard-response","143","1089852","0.0-18.0-1.7","67884b1aa6c55d9dd2388778","67619bf32066d179f8b4b1ec","67894a96eb30b84596b5b8c5","passed","","624","","","","","","","","","","","","","","j","yesOrNo","","","","11","","","lp","3000","","","32","605.4000000000001","372.6340973215488"
"","","","","","html-keyboard-response","144","1091509","0.0-18.0-0.8","67884b1aa6c55d9dd2388778","67619bf32066d179f8b4b1ec","67894a96eb30b84596b5b8c5","passed","","","","","","","","","","","","","","","","","ballFalling","500","479.92114317029973","330.87","6","fallScene","false","","","","","33","",""
"","","","","","html-keyboard-response","145","1092190","0.0-18.0-1.8","67884b1aa6c55d9dd2388778","67619bf32066d179f8b4b1ec","67894a96eb30b84596b5b8c5","passed","","679","","","","","","","","","","","","","","j","yesOrNo","","","","6","","","gt","3000","","","33","479.9211431702998","330.87"
"","","","","","html-keyboard-response","146","1093748","0.0-18.0-0.9","67884b1aa6c55d9dd2388778","67619bf32066d179f8b4b1ec","67894a96eb30b84596b5b8c5","passed","","","","","","","","","","","","","","","","","ballFalling","500","453.67114317029973","210.33","5","fallScene","false","","","","","34","",""
"","","","","","html-keyboard-response","147","1094361","0.0-18.0-1.9","67884b1aa6c55d9dd2388778","67619bf32066d179f8b4b1ec","67894a96eb30b84596b5b8c5","passed","","610","","","","","","","","","","","","","","j","yesOrNo","","","","5","","","gt","3000","","","34","453.6711431702998","210.33"
"","","","","","html-keyboard-response","148","1095924","0.0-18.0-0.10","67884b1aa6c55d9dd2388778","67619bf32066d179f8b4b1ec","67894a96eb30b84596b5b8c5","passed","","","","","","","","","","","","","","","","","ballFalling","322.3","379.3711431702997","245.25","1","fallScene","false","","","","","35","",""
"","","","","","html-keyboard-response","149","1096517","0.0-18.0-1.10","67884b1aa6c55d9dd2388778","67619bf32066d179f8b4b1ec","67894a96eb30b84596b5b8c5","passed","","590","","","","","","","","","","","","","","f","yesOrNo","","","","1","","","gt","3000","","","35","379.3711431702997","245.25"
"","","","","","html-keyboard-response","150","1098075","0.0-18.0-0.11","67884b1aa6c55d9dd2388778","67619bf32066d179f8b4b1ec","67894a96eb30b84596b5b8c5","passed","","","","","","","","","","","","","","","","","ballFalling","322.3","296.07114317029976","371.46","3","fallScene","false","","","","","36","",""
"","","","","","html-keyboard-response","151","1098764","0.0-18.0-1.11","67884b1aa6c55d9dd2388778","67619bf32066d179f8b4b1ec","67894a96eb30b84596b5b8c5","passed","","687","","","","","","","","","","","","","","j","yesOrNo","","","","3","","","gt","3000","","","36","296.07114317029976","371.46"
"","","","","","html-keyboard-response","152","1100759","0.0-18.0-0.12","67884b1aa6c55d9dd2388778","67619bf32066d179f8b4b1ec","67894a96eb30b84596b5b8c5","passed","","","","","","","","","","","","","","","","","ballFalling","604.4000000000001","596.8711431702998","394.5","10","fallScene","false","","","","","37","",""
"","","","","","html-keyboard-response","153","1101251","0.0-18.0-1.12","67884b1aa6c55d9dd2388778","67619bf32066d179f8b4b1ec","67894a96eb30b84596b5b8c5","passed","","489","","","","","","","","","","","","","","j","yesOrNo","","","","10","","","lp","3000","","","37","603.4000000000001","215.50214355555383"
"","","","","","html-keyboard-response","154","1103258","0.0-18.0-0.13","67884b1aa6c55d9dd2388778","67619bf32066d179f8b4b1ec","67894a96eb30b84596b5b8c5","passed","","","","","","","","","","","","","","","","","ballFalling","604.4000000000001","596.8711431702998","394.5","10","fallScene","false","","","","","38","",""
"","","","","","html-keyboard-response","155","1103986","0.0-18.0-1.13","67884b1aa6c55d9dd2388778","67619bf32066d179f8b4b1ec","67894a96eb30b84596b5b8c5","passed","","725","","","","","","","","","","","","","","f","yesOrNo","","","","10","","","mid","3000","","","38","536.4288568297004","300"
"","","","","","html-keyboard-response","156","1105991","0.0-18.0-0.14","67884b1aa6c55d9dd2388778","67619bf32066d179f8b4b1ec","67894a96eb30b84596b5b8c5","passed","","","","","","","","","","","","","","","","","ballFalling","604.4000000000001","596.8711431702998","394.5","10","fallScene","true","","","","","39","",""
"","","","","","html-keyboard-response","157","1106846","0.0-18.0-1.14","67884b1aa6c55d9dd2388778","67619bf32066d179f8b4b1ec","67894a96eb30b84596b5b8c5","passed","","852","","","","","","","","","","","","","","j","yesOrNo","","","","10","","","mid","3000","","","39","536.4288568297004","300"
"","","","","","html-keyboard-response","158","1108870","0.0-18.0-0.15","67884b1aa6c55d9dd2388778","67619bf32066d179f8b4b1ec","67894a96eb30b84596b5b8c5","passed","","","","","","","","","","","","","","","","","ballFalling","500","510.8711431702997","369.03","8","fallScene","false","","","","","40","",""
"","","","","","html-keyboard-response","159","1109662","0.0-18.0-1.15","67884b1aa6c55d9dd2388778","67619bf32066d179f8b4b1ec","67894a96eb30b84596b5b8c5","passed","","786","","","","","","","","","","","","","","j","yesOrNo","","","","8","","","gt","3000","","","40","510.8711431702997","369.03"
"","","","","","html-keyboard-response","160","1111220","0.0-18.0-0.16","67884b1aa6c55d9dd2388778","67619bf32066d179f8b4b1ec","67894a96eb30b84596b5b8c5","passed","","","","","","","","","","","","","","","","","ballFalling","604.4000000000001","575.4211431702997","266.76","12","fallScene","false","","","","","41","",""
"","","","","","html-keyboard-response","161","1112147","0.0-18.0-1.16","67884b1aa6c55d9dd2388778","67619bf32066d179f8b4b1ec","67894a96eb30b84596b5b8c5","passed","","924","","","","","","","","","","","","","","f","yesOrNo","","","","12","","","mid","3000","","","41","536.4288568297004","300"
"","","","","","html-keyboard-response","162","1113707","0.0-18.0-0.17","67884b1aa6c55d9dd2388778","67619bf32066d179f8b4b1ec","67894a96eb30b84596b5b8c5","passed","","","","","","","","","","","","","","","","","ballFalling","604.4000000000001","575.4211431702997","266.76","12","fallScene","true","","","","","42","",""
"","","","","","html-keyboard-response","163","1114375","0.0-18.0-1.17","67884b1aa6c55d9dd2388778","67619bf32066d179f8b4b1ec","67894a96eb30b84596b5b8c5","passed","","666","","","","","","","","","","","","","","j","yesOrNo","","","","12","","","lp","3000","","","42","603.4000000000001","151"
"","","","","","html-keyboard-response","164","1116174","0.0-18.0-0.18","67884b1aa6c55d9dd2388778","67619bf32066d179f8b4b1ec","67894a96eb30b84596b5b8c5","passed","","","","","","","","","","","","","","","","","ballFalling","322.3","308.07114317029976","253.89","2","fallScene","false","","","","","43","",""
"","","","","","html-keyboard-response","165","1117085","0.0-18.0-1.18","67884b1aa6c55d9dd2388778","67619bf32066d179f8b4b1ec","67894a96eb30b84596b5b8c5","passed","","909","","","","","","","","","","","","","","j","yesOrNo","","","","2","","","gt","3000","","","43","308.07114317029976","253.89"
"","","","","","html-keyboard-response","166","1118639","0.0-18.0-0.19","67884b1aa6c55d9dd2388778","67619bf32066d179f8b4b1ec","67894a96eb30b84596b5b8c5","passed","","","","","","","","","","","","","","","","","ballFalling","500","553.4711431702997","282.51","7","fallScene","true","","","","","44","",""
"","","","","","html-keyboard-response","167","1119516","0.0-18.0-1.19","67884b1aa6c55d9dd2388778","67619bf32066d179f8b4b1ec","67894a96eb30b84596b5b8c5","passed","","874","","","","","","","","","","","","","","j","yesOrNo","","","","7","","","mid","3000","","","44","501","300"
"","","","","","html-keyboard-response","168","1121073","0.0-18.0-0.20","67884b1aa6c55d9dd2388778","67619bf32066d179f8b4b1ec","67894a96eb30b84596b5b8c5","passed","","","","","","","","","","","","","","","","","ballFalling","322.3","296.07114317029976","371.46","3","fallScene","true","","","","","45","",""
"","","","","","html-keyboard-response","169","1122090","0.0-18.0-1.20","67884b1aa6c55d9dd2388778","67619bf32066d179f8b4b1ec","67894a96eb30b84596b5b8c5","passed","","1014","","","","","","","","","","","","","","j","yesOrNo","","","","3","","","mid","3000","","","45","321.3","300"
"","","","","","html-keyboard-response","170","1123704","0.0-18.0-0.21","67884b1aa6c55d9dd2388778","67619bf32066d179f8b4b1ec","67894a96eb30b84596b5b8c5","passed","","","","","","","","","","","","","","","","","ballFalling","500","553.4711431702997","282.51","7","fallScene","true","","","","","46","",""
"","","","","","html-keyboard-response","171","1124364","0.0-18.0-1.21","67884b1aa6c55d9dd2388778","67619bf32066d179f8b4b1ec","67894a96eb30b84596b5b8c5","passed","","657","","","","","","","","","","","","","","j","yesOrNo","","","","7","","","lp","3000","","","46","501","227.2843295913261"
"","","","","","html-keyboard-response","172","1126138","0.0-18.0-0.22","67884b1aa6c55d9dd2388778","67619bf32066d179f8b4b1ec","67894a96eb30b84596b5b8c5","passed","","","","","","","","","","","","","","","","","ballFalling","322.3","308.07114317029976","253.89","2","fallScene","true","","","","","47","",""
"","","","","","html-keyboard-response","173","1126715","0.0-18.0-1.22","67884b1aa6c55d9dd2388778","67619bf32066d179f8b4b1ec","67894a96eb30b84596b5b8c5","passed","","573","","","","","","","","","","","","","","j","yesOrNo","","","","2","","","lp","3000","","","47","321.3","151"
"","","","","","html-keyboard-response","174","1128272","0.0-18.0-0.23","67884b1aa6c55d9dd2388778","67619bf32066d179f8b4b1ec","67894a96eb30b84596b5b8c5","passed","","","","","","","","","","","","","","","","","ballFalling","604.4000000000001","575.4211431702997","266.76","12","fallScene","true","","","","","48","",""
"","","","","","html-keyboard-response","175","1129014","0.0-18.0-1.23","67884b1aa6c55d9dd2388778","67619bf32066d179f8b4b1ec","67894a96eb30b84596b5b8c5","passed","","739","","","","","","","","","","","","","","j","yesOrNo","","","","12","","","lp","3000","","","48","603.4000000000001","151"
"","","","","","html-keyboard-response","176","1215782","0.0-19.0","67884b1aa6c55d9dd2388778","67619bf32066d179f8b4b1ec","67894a96eb30b84596b5b8c5","passed","","86766","","","","","","","","","","","","","<p><span style=""font-size:40px;"">BLOCK 3</span></p><p><span style=""font-size:25px;"">You have <strong>3 second(s)</strong> to respond to the following trials.</span><br></p><p></p> <!-- Blank line -->
                <p id=""blinking-text"" style=""font-weight; animation: blink 2s infinite;"">Press Space to continue</p>
                <style>
                    @keyframes blink {
                        50% {
                            opacity: 0;
                        }
                    }
                </style></p>"," ","","","","","","","","","","","","","",""
"","","","","","html-keyboard-response","177","1217797","0.0-20.0-0.0","67884b1aa6c55d9dd2388778","67619bf32066d179f8b4b1ec","67894a96eb30b84596b5b8c5","passed","","","","","","","","","","","","","","","","","ballFalling","604.4000000000001","596.8711431702998","394.5","10","fallScene","true","","","","","49","",""
"","","","","","html-keyboard-response","178","1218335","0.0-20.0-1.0","67884b1aa6c55d9dd2388778","67619bf32066d179f8b4b1ec","67894a96eb30b84596b5b8c5","passed","","536","","","","","","","","","","","","","","j","yesOrNo","","","","10","","","lp","3000","","","49","603.4000000000001","215.50214355555383"
"","","","","","html-keyboard-response","179","1219843","0.0-20.0-0.1","67884b1aa6c55d9dd2388778","67619bf32066d179f8b4b1ec","67894a96eb30b84596b5b8c5","passed","","","","","","","","","","","","","","","","","ballFalling","604.4000000000001","667.6211431702998","201.78","9","fallScene","true","","","","","50","",""
"","","","","","html-keyboard-response","180","1220389","0.0-20.0-1.1","67884b1aa6c55d9dd2388778","67619bf32066d179f8b4b1ec","67894a96eb30b84596b5b8c5","passed","","543","","","","","","","","","","","","","","j","yesOrNo","","","","9","","","lp","3000","","","50","605.4000000000001","151"
"","","","","","html-keyboard-response","181","1221946","0.0-20.0-0.2","67884b1aa6c55d9dd2388778","67619bf32066d179f8b4b1ec","67894a96eb30b84596b5b8c5","passed","","","","","","","","","","","","","","","","","ballFalling","604.4000000000001","650.0211431702996","404.58000000000004","11","fallScene","false","","","","","51","",""
"","","","","","html-keyboard-response","182","1222969","0.0-20.0-1.2","67884b1aa6c55d9dd2388778","67619bf32066d179f8b4b1ec","67894a96eb30b84596b5b8c5","passed","","987","","","","","","","","","","","","","","f","yesOrNo","","","","11","","","gt","3000","","","51","650.0211431702996","404.58"
"","","","","","html-keyboard-response","183","1224529","0.0-20.0-0.3","67884b1aa6c55d9dd2388778","67619bf32066d179f8b4b1ec","67894a96eb30b84596b5b8c5","passed","","","","","","","","","","","","","","","","","ballFalling","604.4000000000001","575.4211431702997","266.76","12","fallScene","false","","","","","52","",""
"","","","","","html-keyboard-response","184","1225216","0.0-20.0-1.3","67884b1aa6c55d9dd2388778","67619bf32066d179f8b4b1ec","67894a96eb30b84596b5b8c5","passed","","684","","","","","","","","","","","","","","f","yesOrNo","","","","12","","","mid","3000","","","52","536.4288568297004","300"
"","","","","","html-keyboard-response","185","1226796","0.0-20.0-0.4","67884b1aa6c55d9dd2388778","67619bf32066d179f8b4b1ec","67894a96eb30b84596b5b8c5","passed","","","","","","","","","","","","","","","","","ballFalling","322.3","379.3711431702997","245.25","1","fallScene","true","","","","","53","",""
"","","","","","html-keyboard-response","186","1228032","0.0-20.0-1.4","67884b1aa6c55d9dd2388778","67619bf32066d179f8b4b1ec","67894a96eb30b84596b5b8c5","passed","","1234","","","","","","","","","","","","","","j","yesOrNo","","","","1","","","mid","3000","","","53","390.27114317029975","300"
"","","","","","html-keyboard-response","187","1229595","0.0-20.0-0.5","67884b1aa6c55d9dd2388778","67619bf32066d179f8b4b1ec","67894a96eb30b84596b5b8c5","passed","","","","","","","","","","","","","","","","","ballFalling","500","453.67114317029973","210.33","5","fallScene","false","","","","","54","",""
"","","","","","html-keyboard-response","188","1230233","0.0-20.0-1.5","67884b1aa6c55d9dd2388778","67619bf32066d179f8b4b1ec","67894a96eb30b84596b5b8c5","passed","","635","","","","","","","","","","","","","","j","yesOrNo","","","","5","","","mid","3000","","","54","499","300"
"","","","","","html-keyboard-response","189","1231795","0.0-20.0-0.6","67884b1aa6c55d9dd2388778","67619bf32066d179f8b4b1ec","67894a96eb30b84596b5b8c5","passed","","","","","","","","","","","","","","","","","ballFalling","322.3","379.3711431702997","245.25","1","fallScene","true","","","","","55","",""
"","","","","","html-keyboard-response","190","1232351","0.0-20.0-1.6","67884b1aa6c55d9dd2388778","67619bf32066d179f8b4b1ec","67894a96eb30b84596b5b8c5","passed","","554","","","","","","","","","","","","","","j","yesOrNo","","","","1","","","lp","3000","","","55","323.3","217.74551669457017"
"","","","","","html-keyboard-response","191","1233910","0.0-20.0-0.7","67884b1aa6c55d9dd2388778","67619bf32066d179f8b4b1ec","67894a96eb30b84596b5b8c5","passed","","","","","","","","","","","","","","","","","ballFalling","322.3","379.3711431702997","245.25","1","fallScene","true","","","","","56","",""
"","","","","","html-keyboard-response","192","1234944","0.0-20.0-1.7","67884b1aa6c55d9dd2388778","67619bf32066d179f8b4b1ec","67894a96eb30b84596b5b8c5","passed","","1032","","","","","","","","","","","","","","j","yesOrNo","","","","1","","","gt","3000","","","56","379.3711431702997","245.25"
"","","","","","html-keyboard-response","193","1236495","0.0-20.0-0.8","67884b1aa6c55d9dd2388778","67619bf32066d179f8b4b1ec","67894a96eb30b84596b5b8c5","passed","","","","","","","","","","","","","","","","","ballFalling","322.3","356.42114317029973","357.87","4","fallScene","false","","","","","57","",""
"","","","","","html-keyboard-response","194","1237284","0.0-20.0-1.8","67884b1aa6c55d9dd2388778","67619bf32066d179f8b4b1ec","67894a96eb30b84596b5b8c5","passed","","786","","","","","","","","","","","","","","f","yesOrNo","","","","4","","","mid","3000","","","57","390.27114317029975","300"
"","","","","","html-keyboard-response","195","1238843","0.0-20.0-0.9","67884b1aa6c55d9dd2388778","67619bf32066d179f8b4b1ec","67894a96eb30b84596b5b8c5","passed","","","","","","","","","","","","","","","","","ballFalling","322.3","296.07114317029976","371.46","3","fallScene","true","","","","","58","",""
"","","","","","html-keyboard-response","196","1239559","0.0-20.0-1.9","67884b1aa6c55d9dd2388778","67619bf32066d179f8b4b1ec","67894a96eb30b84596b5b8c5","passed","","714","","","","","","","","","","","","","","j","yesOrNo","","","","3","","","lp","3000","","","58","321.3","287.3327096511259"
"","","","","","html-keyboard-response","197","1241109","0.0-20.0-0.10","67884b1aa6c55d9dd2388778","67619bf32066d179f8b4b1ec","67894a96eb30b84596b5b8c5","passed","","","","","","","","","","","","","","","","","ballFalling","322.3","356.42114317029973","357.87","4","fallScene","false","","","","","59","",""
"","","","","","html-keyboard-response","198","1242113","0.0-20.0-1.10","67884b1aa6c55d9dd2388778","67619bf32066d179f8b4b1ec","67894a96eb30b84596b5b8c5","passed","","1002","","","","","","","","","","","","","","j","yesOrNo","","","","4","","","gt","3000","","","59","356.42114317029973","357.87"
"","","","","","html-keyboard-response","199","1243708","0.0-20.0-0.11","67884b1aa6c55d9dd2388778","67619bf32066d179f8b4b1ec","67894a96eb30b84596b5b8c5","passed","","","","","","","","","","","","","","","","","ballFalling","322.3","379.3711431702997","245.25","1","fallScene","true","","","","","60","",""
"","","","","","html-keyboard-response","200","1244579","0.0-20.0-1.11","67884b1aa6c55d9dd2388778","67619bf32066d179f8b4b1ec","67894a96eb30b84596b5b8c5","passed","","868","","","","","","","","","","","","","","f","yesOrNo","","","","1","","","mid","3000","","","60","390.27114317029975","300"
"","","","","","html-keyboard-response","201","1246143","0.0-20.0-0.12","67884b1aa6c55d9dd2388778","67619bf32066d179f8b4b1ec","67894a96eb30b84596b5b8c5","passed","","","","","","","","","","","","","","","","","ballFalling","500","453.67114317029973","210.33","5","fallScene","true","","","","","61","",""
"","","","","","html-keyboard-response","202","1246795","0.0-20.0-1.12","67884b1aa6c55d9dd2388778","67619bf32066d179f8b4b1ec","67894a96eb30b84596b5b8c5","passed","","650","","","","","","","","","","","","","","j","yesOrNo","","","","5","","","lp","3000","","","61","499","151"
"","","","","","html-keyboard-response","203","1248443","0.0-20.0-0.13","67884b1aa6c55d9dd2388778","67619bf32066d179f8b4b1ec","67894a96eb30b84596b5b8c5","passed","","","","","","","","","","","","","","","","","ballFalling","500","479.92114317029973","330.87","6","fallScene","true","","","","","62","",""
"","","","","","html-keyboard-response","204","1249266","0.0-20.0-1.13","67884b1aa6c55d9dd2388778","67619bf32066d179f8b4b1ec","67894a96eb30b84596b5b8c5","passed","","820","","","","","","","","","","","","","","j","yesOrNo","","","","6","","","lp","3000","","","62","499","189.92909825697632"
"","","","","","html-keyboard-response","205","1250810","0.0-20.0-0.14","67884b1aa6c55d9dd2388778","67619bf32066d179f8b4b1ec","67894a96eb30b84596b5b8c5","passed","","","","","","","","","","","","","","","","","ballFalling","604.4000000000001","650.0211431702996","404.58000000000004","11","fallScene","true","","","","","63","",""
"","","","","","html-keyboard-response","206","1251713","0.0-20.0-1.14","67884b1aa6c55d9dd2388778","67619bf32066d179f8b4b1ec","67894a96eb30b84596b5b8c5","passed","","900","","","","","","","","","","","","","","f","yesOrNo","","","","11","","","gt","3000","","","63","650.0211431702996","404.58"
"","","","","","html-keyboard-response","207","1253295","0.0-20.0-0.15","67884b1aa6c55d9dd2388778","67619bf32066d179f8b4b1ec","67894a96eb30b84596b5b8c5","passed","","","","","","","","","","","","","","","","","ballFalling","322.3","356.42114317029973","357.87","4","fallScene","true","","","","","64","",""
"","","","","","html-keyboard-response","208","1254069","0.0-20.0-1.15","67884b1aa6c55d9dd2388778","67619bf32066d179f8b4b1ec","67894a96eb30b84596b5b8c5","passed","","771","","","","","","","","","","","","","","j","yesOrNo","","","","4","","","gt","3000","","","64","356.42114317029973","357.87"
"","","","","","html-keyboard-response","209","1255628","0.0-20.0-0.16","67884b1aa6c55d9dd2388778","67619bf32066d179f8b4b1ec","67894a96eb30b84596b5b8c5","passed","","","","","","","","","","","","","","","","","ballFalling","500","453.67114317029973","210.33","5","fallScene","true","","","","","65","",""
"","","","","","html-keyboard-response","210","1256599","0.0-20.0-1.16","67884b1aa6c55d9dd2388778","67619bf32066d179f8b4b1ec","67894a96eb30b84596b5b8c5","passed","","968","","","","","","","","","","","","","","j","yesOrNo","","","","5","","","mid","3000","","","65","499","300"
"","","","","","html-keyboard-response","211","1258178","0.0-20.0-0.17","67884b1aa6c55d9dd2388778","67619bf32066d179f8b4b1ec","67894a96eb30b84596b5b8c5","passed","","","","","","","","","","","","","","","","","ballFalling","500","553.4711431702997","282.51","7","fallScene","true","","","","","66","",""
"","","","","","html-keyboard-response","212","1258865","0.0-20.0-1.17","67884b1aa6c55d9dd2388778","67619bf32066d179f8b4b1ec","67894a96eb30b84596b5b8c5","passed","","684","","","","","","","","","","","","","","j","yesOrNo","","","","7","","","mid","3000","","","66","501","300"
"","","","","","html-keyboard-response","213","1260423","0.0-20.0-0.18","67884b1aa6c55d9dd2388778","67619bf32066d179f8b4b1ec","67894a96eb30b84596b5b8c5","passed","","","","","","","","","","","","","","","","","ballFalling","604.4000000000001","575.4211431702997","266.76","12","fallScene","false","","","","","67","",""
"","","","","","html-keyboard-response","214","1261283","0.0-20.0-1.18","67884b1aa6c55d9dd2388778","67619bf32066d179f8b4b1ec","67894a96eb30b84596b5b8c5","passed","","857","","","","","","","","","","","","","","j","yesOrNo","","","","12","","","gt","3000","","","67","575.4211431702997","266.76"
"","","","","","html-keyboard-response","215","1263295","0.0-20.0-0.19","67884b1aa6c55d9dd2388778","67619bf32066d179f8b4b1ec","67894a96eb30b84596b5b8c5","passed","","","","","","","","","","","","","","","","","ballFalling","500","510.8711431702997","369.03","8","fallScene","true","","","","","68","",""
"","","","","","html-keyboard-response","216","1264028","0.0-20.0-1.19","67884b1aa6c55d9dd2388778","67619bf32066d179f8b4b1ec","67894a96eb30b84596b5b8c5","passed","","730","","","","","","","","","","","","","","j","yesOrNo","","","","8","","","mid","3000","","","68","501","300"
"","","","","","html-keyboard-response","217","1265508","0.0-20.0-0.20","67884b1aa6c55d9dd2388778","67619bf32066d179f8b4b1ec","67894a96eb30b84596b5b8c5","passed","","","","","","","","","","","","","","","","","ballFalling","604.4000000000001","667.6211431702998","201.78","9","fallScene","false","","","","","69","",""
"","","","","","html-keyboard-response","218","1266096","0.0-20.0-1.20","67884b1aa6c55d9dd2388778","67619bf32066d179f8b4b1ec","67894a96eb30b84596b5b8c5","passed","","585","","","","","","","","","","","","","","j","yesOrNo","","","","9","","","lp","3000","","","69","605.4000000000001","151"
"","","","","","html-keyboard-response","219","1268124","0.0-20.0-0.21","67884b1aa6c55d9dd2388778","67619bf32066d179f8b4b1ec","67894a96eb30b84596b5b8c5","passed","","","","","","","","","","","","","","","","","ballFalling","500","510.8711431702997","369.03","8","fallScene","false","","","","","70","",""
"","","","","","html-keyboard-response","220","1268841","0.0-20.0-1.21","67884b1aa6c55d9dd2388778","67619bf32066d179f8b4b1ec","67894a96eb30b84596b5b8c5","passed","","714","","","","","","","","","","","","","","j","yesOrNo","","","","8","","","mid","3000","","","70","501","300"
"","","","","","html-keyboard-response","221","1270391","0.0-20.0-0.22","67884b1aa6c55d9dd2388778","67619bf32066d179f8b4b1ec","67894a96eb30b84596b5b8c5","passed","","","","","","","","","","","","","","","","","ballFalling","500","453.67114317029973","210.33","5","fallScene","true","","","","","71","",""
"","","","","","html-keyboard-response","222","1271054","0.0-20.0-1.22","67884b1aa6c55d9dd2388778","67619bf32066d179f8b4b1ec","67894a96eb30b84596b5b8c5","passed","","659","","","","","","","","","","","","","","j","yesOrNo","","","","5","","","gt","3000","","","71","453.6711431702998","210.33"
"","","","","","html-keyboard-response","223","1272708","0.0-20.0-0.23","67884b1aa6c55d9dd2388778","67619bf32066d179f8b4b1ec","67894a96eb30b84596b5b8c5","passed","","","","","","","","","","","","","","","","","ballFalling","500","479.92114317029973","330.87","6","fallScene","true","","","","","72","",""
"","","","","","html-keyboard-response","224","1273507","0.0-20.0-1.23","67884b1aa6c55d9dd2388778","67619bf32066d179f8b4b1ec","67894a96eb30b84596b5b8c5","passed","","796","","","","","","","","","","","","","","j","yesOrNo","","","","6","","","gt","3000","","","72","479.9211431702998","330.87"
"","","","","","html-keyboard-response","225","1330718","0.0-21.0","67884b1aa6c55d9dd2388778","67619bf32066d179f8b4b1ec","67894a96eb30b84596b5b8c5","passed","","57210","","","","","","","","","","","","","<p><span style=""font-size:40px;"">BLOCK 4</span></p><p><span style=""font-size:25px;"">You have <strong>1 second(s)</strong> to respond to the following trials.</span><br></p><p></p> <!-- Blank line -->
                <p id=""blinking-text"" style=""font-weight; animation: blink 2s infinite;"">Press Space to continue</p>
                <style>
                    @keyframes blink {
                        50% {
                            opacity: 0;
                        }
                    }
                </style></p>"," ","","","","","","","","","","","","","",""
"","","","","","html-keyboard-response","226","1332301","0.0-22.0-0.0","67884b1aa6c55d9dd2388778","67619bf32066d179f8b4b1ec","67894a96eb30b84596b5b8c5","passed","","","","","","","","","","","","","","","","","ballFalling","322.3","379.3711431702997","245.25","1","fallScene","true","","","","","73","",""
"","","","","","html-keyboard-response","227","1332904","0.0-22.0-1.0","67884b1aa6c55d9dd2388778","67619bf32066d179f8b4b1ec","67894a96eb30b84596b5b8c5","passed","","601","","","","","","","","","","","","","","j","yesOrNo","","","","1","","","lp","1000","","","73","323.3","217.74551669457017"
"","","","","","html-keyboard-response","228","1334484","0.0-22.0-0.1","67884b1aa6c55d9dd2388778","67619bf32066d179f8b4b1ec","67894a96eb30b84596b5b8c5","passed","","","","","","","","","","","","","","","","","ballFalling","500","553.4711431702997","282.51","7","fallScene","false","","","","","74","",""
"","","","","","html-keyboard-response","229","1335290","0.0-22.0-1.1","67884b1aa6c55d9dd2388778","67619bf32066d179f8b4b1ec","67894a96eb30b84596b5b8c5","passed","","803","","","","","","","","","","","","","","j","yesOrNo","","","","7","","","gt","1000","","","74","553.4711431702997","282.51"
"","","","","","html-keyboard-response","230","1336832","0.0-22.0-0.2","67884b1aa6c55d9dd2388778","67619bf32066d179f8b4b1ec","67894a96eb30b84596b5b8c5","passed","","","","","","","","","","","","","","","","","ballFalling","322.3","296.07114317029976","371.46","3","fallScene","true","","","","","75","",""
"","","","","","html-keyboard-response","231","1337342","0.0-22.0-1.2","67884b1aa6c55d9dd2388778","67619bf32066d179f8b4b1ec","67894a96eb30b84596b5b8c5","passed","","507","","","","","","","","","","","","","","j","yesOrNo","","","","3","","","mid","1000","","","75","321.3","300"
"","","","","","html-keyboard-response","232","1339349","0.0-22.0-0.3","67884b1aa6c55d9dd2388778","67619bf32066d179f8b4b1ec","67894a96eb30b84596b5b8c5","passed","","","","","","","","","","","","","","","","","ballFalling","604.4000000000001","596.8711431702998","394.5","10","fallScene","true","","","","","76","",""
"","","","","","html-keyboard-response","233","1339978","0.0-22.0-1.3","67884b1aa6c55d9dd2388778","67619bf32066d179f8b4b1ec","67894a96eb30b84596b5b8c5","passed","","626","","","","","","","","","","","","","","j","yesOrNo","","","","10","","","gt","1000","","","76","596.8711431702998","394.5"
"","","","","","html-keyboard-response","234","1341532","0.0-22.0-0.4","67884b1aa6c55d9dd2388778","67619bf32066d179f8b4b1ec","67894a96eb30b84596b5b8c5","passed","","","","","","","","","","","","","","","","","ballFalling","322.3","296.07114317029976","371.46","3","fallScene","false","","","","","77","",""
"","","","","","html-keyboard-response","235","1342186","0.0-22.0-1.4","67884b1aa6c55d9dd2388778","67619bf32066d179f8b4b1ec","67894a96eb30b84596b5b8c5","passed","","652","","","","","","","","","","","","","","j","yesOrNo","","","","3","","","gt","1000","","","77","296.07114317029976","371.46"
"","","","","","html-keyboard-response","236","1343750","0.0-22.0-0.5","67884b1aa6c55d9dd2388778","67619bf32066d179f8b4b1ec","67894a96eb30b84596b5b8c5","passed","","","","","","","","","","","","","","","","","ballFalling","322.3","379.3711431702997","245.25","1","fallScene","false","","","","","78","",""
"","","","","","html-keyboard-response","237","1344433","0.0-22.0-1.5","67884b1aa6c55d9dd2388778","67619bf32066d179f8b4b1ec","67894a96eb30b84596b5b8c5","passed","","681","","","","","","","","","","","","","","f","yesOrNo","","","","1","","","mid","1000","","","78","390.27114317029975","300"
"","","","","","html-keyboard-response","238","1345983","0.0-22.0-0.6","67884b1aa6c55d9dd2388778","67619bf32066d179f8b4b1ec","67894a96eb30b84596b5b8c5","passed","","","","","","","","","","","","","","","","","ballFalling","500","553.4711431702997","282.51","7","fallScene","false","","","","","79","",""
"","","","","","html-keyboard-response","239","1346487","0.0-22.0-1.6","67884b1aa6c55d9dd2388778","67619bf32066d179f8b4b1ec","67894a96eb30b84596b5b8c5","passed","","502","","","","","","","","","","","","","","j","yesOrNo","","","","7","","","lp","1000","","","79","501","227.2843295913261"
"","","","","","html-keyboard-response","240","1348132","0.0-22.0-0.7","67884b1aa6c55d9dd2388778","67619bf32066d179f8b4b1ec","67894a96eb30b84596b5b8c5","passed","","","","","","","","","","","","","","","","","ballFalling","500","479.92114317029973","330.87","6","fallScene","false","","","","","80","",""
"","","","","","html-keyboard-response","241","1348711","0.0-22.0-1.7","67884b1aa6c55d9dd2388778","67619bf32066d179f8b4b1ec","67894a96eb30b84596b5b8c5","passed","","577","","","","","","","","","","","","","","j","yesOrNo","","","","6","","","lp","1000","","","80","499","189.92909825697632"
"","","","","","html-keyboard-response","242","1350211","0.0-22.0-0.8","67884b1aa6c55d9dd2388778","67619bf32066d179f8b4b1ec","67894a96eb30b84596b5b8c5","passed","","","","","","","","","","","","","","","","","ballFalling","604.4000000000001","667.6211431702998","201.78","9","fallScene","false","","","","","81","",""
"","","","","","html-keyboard-response","243","1351057","0.0-22.0-1.8","67884b1aa6c55d9dd2388778","67619bf32066d179f8b4b1ec","67894a96eb30b84596b5b8c5","passed","","841","","","","","","","","","","","","","","j","yesOrNo","","","","9","","","lp","1000","","","81","605.4000000000001","151"
"","","","","","html-keyboard-response","244","1353066","0.0-22.0-0.9","67884b1aa6c55d9dd2388778","67619bf32066d179f8b4b1ec","67894a96eb30b84596b5b8c5","passed","","","","","","","","","","","","","","","","","ballFalling","500","510.8711431702997","369.03","8","fallScene","true","","","","","82","",""
"","","","","","html-keyboard-response","245","1353708","0.0-22.0-1.9","67884b1aa6c55d9dd2388778","67619bf32066d179f8b4b1ec","67894a96eb30b84596b5b8c5","passed","","639","","","","","","","","","","","","","","j","yesOrNo","","","","8","","","mid","1000","","","82","501","300"
"","","","","","html-keyboard-response","246","1355249","0.0-22.0-0.10","67884b1aa6c55d9dd2388778","67619bf32066d179f8b4b1ec","67894a96eb30b84596b5b8c5","passed","","","","","","","","","","","","","","","","","ballFalling","604.4000000000001","650.0211431702996","404.58000000000004","11","fallScene","false","","","","","83","",""
"","","","","","html-keyboard-response","247","1356059","0.0-22.0-1.10","67884b1aa6c55d9dd2388778","67619bf32066d179f8b4b1ec","67894a96eb30b84596b5b8c5","passed","","807","","","","","","","","","","","","","","j","yesOrNo","","","","11","","","mid","1000","","","83","605.4000000000001","300"
"","","","","","html-keyboard-response","248","1357631","0.0-22.0-0.11","67884b1aa6c55d9dd2388778","67619bf32066d179f8b4b1ec","67894a96eb30b84596b5b8c5","passed","","","","","","","","","","","","","","","","","ballFalling","500","553.4711431702997","282.51","7","fallScene","false","","","","","84","",""
"","","","","","html-keyboard-response","249","1358182","0.0-22.0-1.11","67884b1aa6c55d9dd2388778","67619bf32066d179f8b4b1ec","67894a96eb30b84596b5b8c5","passed","","549","","","","","","","","","","","","","","j","yesOrNo","","","","7","","","lp","1000","","","84","501","227.2843295913261"
"","","","","","html-keyboard-response","250","1359732","0.0-22.0-0.12","67884b1aa6c55d9dd2388778","67619bf32066d179f8b4b1ec","67894a96eb30b84596b5b8c5","passed","","","","","","","","","","","","","","","","","ballFalling","604.4000000000001","650.0211431702996","404.58000000000004","11","fallScene","false","","","","","85","",""
"","","","","","html-keyboard-response","251","1360399","0.0-22.0-1.12","67884b1aa6c55d9dd2388778","67619bf32066d179f8b4b1ec","67894a96eb30b84596b5b8c5","passed","","664","","","","","","","","","","","","","","j","yesOrNo","","","","11","","","mid","1000","","","85","605.4000000000001","300"
"","","","","","html-keyboard-response","252","1361881","0.0-22.0-0.13","67884b1aa6c55d9dd2388778","67619bf32066d179f8b4b1ec","67894a96eb30b84596b5b8c5","passed","","","","","","","","","","","","","","","","","ballFalling","604.4000000000001","667.6211431702998","201.78","9","fallScene","true","","","","","86","",""
"","","","","","html-keyboard-response","253","1362635","0.0-22.0-1.13","67884b1aa6c55d9dd2388778","67619bf32066d179f8b4b1ec","67894a96eb30b84596b5b8c5","passed","","751","","","","","","","","","","","","","","f","yesOrNo","","","","9","","","gt","1000","","","86","667.6211431702998","201.78"
"","","","","","html-keyboard-response","254","1364165","0.0-22.0-0.14","67884b1aa6c55d9dd2388778","67619bf32066d179f8b4b1ec","67894a96eb30b84596b5b8c5","passed","","","","","","","","","","","","","","","","","ballFalling","604.4000000000001","667.6211431702998","201.78","9","fallScene","false","","","","","87","",""
"","","","","","html-keyboard-response","255","1364971","0.0-22.0-1.14","67884b1aa6c55d9dd2388778","67619bf32066d179f8b4b1ec","67894a96eb30b84596b5b8c5","passed","","803","","","","","","","","","","","","","","j","yesOrNo","","","","9","","","mid","1000","","","87","605.4000000000001","300"
"","","","","","html-keyboard-response","256","1366548","0.0-22.0-0.15","67884b1aa6c55d9dd2388778","67619bf32066d179f8b4b1ec","67894a96eb30b84596b5b8c5","passed","","","","","","","","","","","","","","","","","ballFalling","500","553.4711431702997","282.51","7","fallScene","false","","","","","88","",""
"","","","","","html-keyboard-response","257","1367564","0.0-22.0-1.15","67884b1aa6c55d9dd2388778","67619bf32066d179f8b4b1ec","67894a96eb30b84596b5b8c5","passed","","996","","","","","","","","","","","","","","f","yesOrNo","","","","7","","","gt","1000","","","88","553.4711431702997","282.51"
"","","","","","html-keyboard-response","258","1369563","0.0-22.0-0.16","67884b1aa6c55d9dd2388778","67619bf32066d179f8b4b1ec","67894a96eb30b84596b5b8c5","passed","","","","","","","","","","","","","","","","","ballFalling","500","510.8711431702997","369.03","8","fallScene","true","","","","","89","",""
"","","","","","html-keyboard-response","259","1370042","0.0-22.0-1.16","67884b1aa6c55d9dd2388778","67619bf32066d179f8b4b1ec","67894a96eb30b84596b5b8c5","passed","","476","","","","","","","","","","","","","","j","yesOrNo","","","","8","","","mid","1000","","","89","501","300"
"","","","","","html-keyboard-response","260","1372031","0.0-22.0-0.17","67884b1aa6c55d9dd2388778","67619bf32066d179f8b4b1ec","67894a96eb30b84596b5b8c5","passed","","","","","","","","","","","","","","","","","ballFalling","604.4000000000001","596.8711431702998","394.5","10","fallScene","true","","","","","90","",""
"","","","","","html-keyboard-response","261","1372758","0.0-22.0-1.17","67884b1aa6c55d9dd2388778","67619bf32066d179f8b4b1ec","67894a96eb30b84596b5b8c5","passed","","723","","","","","","","","","","","","","","j","yesOrNo","","","","10","","","lp","1000","","","90","603.4000000000001","215.50214355555383"
"","","","","","html-keyboard-response","262","1374295","0.0-22.0-0.18","67884b1aa6c55d9dd2388778","67619bf32066d179f8b4b1ec","67894a96eb30b84596b5b8c5","passed","","","","","","","","","","","","","","","","","ballFalling","500","453.67114317029973","210.33","5","fallScene","true","","","","","91","",""
"","","","","","html-keyboard-response","263","1374948","0.0-22.0-1.18","67884b1aa6c55d9dd2388778","67619bf32066d179f8b4b1ec","67894a96eb30b84596b5b8c5","passed","","650","","","","","","","","","","","","","","j","yesOrNo","","","","5","","","gt","1000","","","91","453.6711431702998","210.33"
"","","","","","html-keyboard-response","264","1376500","0.0-22.0-0.19","67884b1aa6c55d9dd2388778","67619bf32066d179f8b4b1ec","67894a96eb30b84596b5b8c5","passed","","","","","","","","","","","","","","","","","ballFalling","604.4000000000001","575.4211431702997","266.76","12","fallScene","true","","","","","92","",""
"","","","","","html-keyboard-response","265","1377332","0.0-22.0-1.19","67884b1aa6c55d9dd2388778","67619bf32066d179f8b4b1ec","67894a96eb30b84596b5b8c5","passed","","828","","","","","","","","","","","","","","j","yesOrNo","","","","12","","","gt","1000","","","92","575.4211431702997","266.76"
"","","","","","html-keyboard-response","266","1378816","0.0-22.0-0.20","67884b1aa6c55d9dd2388778","67619bf32066d179f8b4b1ec","67894a96eb30b84596b5b8c5","passed","","","","","","","","","","","","","","","","","ballFalling","604.4000000000001","667.6211431702998","201.78","9","fallScene","true","","","","","93","",""
"","","","","","html-keyboard-response","267","1379436","0.0-22.0-1.20","67884b1aa6c55d9dd2388778","67619bf32066d179f8b4b1ec","67894a96eb30b84596b5b8c5","passed","","617","","","","","","","","","","","","","","j","yesOrNo","","","","9","","","lp","1000","","","93","605.4000000000001","151"
"","","","","","html-keyboard-response","268","1381108","0.0-22.0-0.21","67884b1aa6c55d9dd2388778","67619bf32066d179f8b4b1ec","67894a96eb30b84596b5b8c5","passed","","","","","","","","","","","","","","","","","ballFalling","500","479.92114317029973","330.87","6","fallScene","false","","","","","94","",""
"","","","","","html-keyboard-response","269","1381938","0.0-22.0-1.21","67884b1aa6c55d9dd2388778","67619bf32066d179f8b4b1ec","67894a96eb30b84596b5b8c5","passed","","823","","","","","","","","","","","","","","j","yesOrNo","","","","6","","","gt","1000","","","94","479.9211431702998","330.87"
"","","","","","html-keyboard-response","270","1383495","0.0-22.0-0.22","67884b1aa6c55d9dd2388778","67619bf32066d179f8b4b1ec","67894a96eb30b84596b5b8c5","passed","","","","","","","","","","","","","","","","","ballFalling","604.4000000000001","575.4211431702997","266.76","12","fallScene","true","","","","","95","",""
"","","","","","html-keyboard-response","271","1384131","0.0-22.0-1.22","67884b1aa6c55d9dd2388778","67619bf32066d179f8b4b1ec","67894a96eb30b84596b5b8c5","passed","","633","","","","","","","","","","","","","","j","yesOrNo","","","","12","","","lp","1000","","","95","603.4000000000001","151"
"","","","","","html-keyboard-response","272","1385695","0.0-22.0-0.23","67884b1aa6c55d9dd2388778","67619bf32066d179f8b4b1ec","67894a96eb30b84596b5b8c5","passed","","","","","","","","","","","","","","","","","ballFalling","500","453.67114317029973","210.33","5","fallScene","false","","","","","96","",""
"","","","","","html-keyboard-response","273","1386663","0.0-22.0-1.23","67884b1aa6c55d9dd2388778","67619bf32066d179f8b4b1ec","67894a96eb30b84596b5b8c5","passed","","964","","","","","","","","","","","","","","j","yesOrNo","","","","5","","","mid","1000","","","96","499","300"
"","","","","","html-keyboard-response","274","1443810","0.0-23.0","67884b1aa6c55d9dd2388778","67619bf32066d179f8b4b1ec","67894a96eb30b84596b5b8c5","passed","","57146","","","","","","","","","","","","","<p><span style=""font-size:40px;"">BLOCK 5</span></p><p><span style=""font-size:25px;"">You have <strong>3 second(s)</strong> to respond to the following trials.</span><br></p><p></p> <!-- Blank line -->
                <p id=""blinking-text"" style=""font-weight; animation: blink 2s infinite;"">Press Space to continue</p>
                <style>
                    @keyframes blink {
                        50% {
                            opacity: 0;
                        }
                    }
                </style></p>"," ","","","","","","","","","","","","","",""
"","","","","","html-keyboard-response","275","1445387","0.0-24.0-0.0","67884b1aa6c55d9dd2388778","67619bf32066d179f8b4b1ec","67894a96eb30b84596b5b8c5","passed","","","","","","","","","","","","","","","","","ballFalling","604.4000000000001","575.4211431702997","266.76","12","fallScene","true","","","","","97","",""
"","","","","","html-keyboard-response","276","1446245","0.0-24.0-1.0","67884b1aa6c55d9dd2388778","67619bf32066d179f8b4b1ec","67894a96eb30b84596b5b8c5","passed","","854","","","","","","","","","","","","","","j","yesOrNo","","","","12","","","gt","3000","","","97","575.4211431702997","266.76"
"","","","","","html-keyboard-response","277","1448256","0.0-24.0-0.1","67884b1aa6c55d9dd2388778","67619bf32066d179f8b4b1ec","67894a96eb30b84596b5b8c5","passed","","","","","","","","","","","","","","","","","ballFalling","604.4000000000001","596.8711431702998","394.5","10","fallScene","true","","","","","98","",""
"","","","","","html-keyboard-response","278","1448956","0.0-24.0-1.1","67884b1aa6c55d9dd2388778","67619bf32066d179f8b4b1ec","67894a96eb30b84596b5b8c5","passed","","698","","","","","","","","","","","","","","j","yesOrNo","","","","10","","","gt","3000","","","98","596.8711431702998","394.5"
"","","","","","html-keyboard-response","279","1450439","0.0-24.0-0.2","67884b1aa6c55d9dd2388778","67619bf32066d179f8b4b1ec","67894a96eb30b84596b5b8c5","passed","","","","","","","","","","","","","","","","","ballFalling","604.4000000000001","667.6211431702998","201.78","9","fallScene","false","","","","","99","",""
"","","","","","html-keyboard-response","280","1451397","0.0-24.0-1.2","67884b1aa6c55d9dd2388778","67619bf32066d179f8b4b1ec","67894a96eb30b84596b5b8c5","passed","","956","","","","","","","","","","","","","","f","yesOrNo","","","","9","","","gt","3000","","","99","667.6211431702998","201.78"
"","","","","","html-keyboard-response","281","1453189","0.0-24.0-0.3","67884b1aa6c55d9dd2388778","67619bf32066d179f8b4b1ec","67894a96eb30b84596b5b8c5","passed","","","","","","","","","","","","","","","","","ballFalling","322.3","308.07114317029976","253.89","2","fallScene","true","","","","","100","",""
"","","","","","html-keyboard-response","282","1453779","0.0-24.0-1.3","67884b1aa6c55d9dd2388778","67619bf32066d179f8b4b1ec","67894a96eb30b84596b5b8c5","passed","","588","","","","","","","","","","","","","","j","yesOrNo","","","","2","","","mid","3000","","","100","321.3","300"
"","","","","","html-keyboard-response","283","1455337","0.0-24.0-0.4","67884b1aa6c55d9dd2388778","67619bf32066d179f8b4b1ec","67894a96eb30b84596b5b8c5","passed","","","","","","","","","","","","","","","","","ballFalling","322.3","296.07114317029976","371.46","3","fallScene","true","","","","","101","",""
"","","","","","html-keyboard-response","284","1456051","0.0-24.0-1.4","67884b1aa6c55d9dd2388778","67619bf32066d179f8b4b1ec","67894a96eb30b84596b5b8c5","passed","","710","","","","","","","","","","","","","","j","yesOrNo","","","","3","","","gt","3000","","","101","296.07114317029976","371.46"
"","","","","","html-keyboard-response","285","1457604","0.0-24.0-0.5","67884b1aa6c55d9dd2388778","67619bf32066d179f8b4b1ec","67894a96eb30b84596b5b8c5","passed","","","","","","","","","","","","","","","","","ballFalling","604.4000000000001","650.0211431702996","404.58000000000004","11","fallScene","false","","","","","102","",""
"","","","","","html-keyboard-response","286","1458297","0.0-24.0-1.5","67884b1aa6c55d9dd2388778","67619bf32066d179f8b4b1ec","67894a96eb30b84596b5b8c5","passed","","691","","","","","","","","","","","","","","j","yesOrNo","","","","11","","","lp","3000","","","102","605.4000000000001","372.6340973215488"
"","","","","","html-keyboard-response","287","1459837","0.0-24.0-0.6","67884b1aa6c55d9dd2388778","67619bf32066d179f8b4b1ec","67894a96eb30b84596b5b8c5","passed","","","","","","","","","","","","","","","","","ballFalling","604.4000000000001","667.6211431702998","201.78","9","fallScene","false","","","","","103","",""
"","","","","","html-keyboard-response","288","1460722","0.0-24.0-1.6","67884b1aa6c55d9dd2388778","67619bf32066d179f8b4b1ec","67894a96eb30b84596b5b8c5","passed","","883","","","","","","","","","","","","","","f","yesOrNo","","","","9","","","gt","3000","","","103","667.6211431702998","201.78"
"","","","","","html-keyboard-response","289","1462736","0.0-24.0-0.7","67884b1aa6c55d9dd2388778","67619bf32066d179f8b4b1ec","67894a96eb30b84596b5b8c5","passed","","","","","","","","","","","","","","","","","ballFalling","500","510.8711431702997","369.03","8","fallScene","false","","","","","104","",""
"","","","","","html-keyboard-response","290","1463260","0.0-24.0-1.7","67884b1aa6c55d9dd2388778","67619bf32066d179f8b4b1ec","67894a96eb30b84596b5b8c5","passed","","521","","","","","","","","","","","","","","j","yesOrNo","","","","8","","","gt","3000","","","104","510.8711431702997","369.03"
"","","","","","html-keyboard-response","291","1464904","0.0-24.0-0.8","67884b1aa6c55d9dd2388778","67619bf32066d179f8b4b1ec","67894a96eb30b84596b5b8c5","passed","","","","","","","","","","","","","","","","","ballFalling","500","479.92114317029973","330.87","6","fallScene","false","","","","","105","",""
"","","","","","html-keyboard-response","292","1465776","0.0-24.0-1.8","67884b1aa6c55d9dd2388778","67619bf32066d179f8b4b1ec","67894a96eb30b84596b5b8c5","passed","","870","","","","","","","","","","","","","","j","yesOrNo","","","","6","","","mid","3000","","","105","499","300"
"","","","","","html-keyboard-response","293","1467287","0.0-24.0-0.9","67884b1aa6c55d9dd2388778","67619bf32066d179f8b4b1ec","67894a96eb30b84596b5b8c5","passed","","","","","","","","","","","","","","","","","ballFalling","604.4000000000001","667.6211431702998","201.78","9","fallScene","true","","","","","106","",""
"","","","","","html-keyboard-response","294","1467935","0.0-24.0-1.9","67884b1aa6c55d9dd2388778","67619bf32066d179f8b4b1ec","67894a96eb30b84596b5b8c5","passed","","645","","","","","","","","","","","","","","j","yesOrNo","","","","9","","","mid","3000","","","106","605.4000000000001","300"
"","","","","","html-keyboard-response","295","1469486","0.0-24.0-0.10","67884b1aa6c55d9dd2388778","67619bf32066d179f8b4b1ec","67894a96eb30b84596b5b8c5","passed","","","","","","","","","","","","","","","","","ballFalling","500","453.67114317029973","210.33","5","fallScene","false","","","","","107","",""
"","","","","","html-keyboard-response","296","1470165","0.0-24.0-1.10","67884b1aa6c55d9dd2388778","67619bf32066d179f8b4b1ec","67894a96eb30b84596b5b8c5","passed","","676","","","","","","","","","","","","","","j","yesOrNo","","","","5","","","lp","3000","","","107","499","151"
"","","","","","html-keyboard-response","297","1471704","0.0-24.0-0.11","67884b1aa6c55d9dd2388778","67619bf32066d179f8b4b1ec","67894a96eb30b84596b5b8c5","passed","","","","","","","","","","","","","","","","","ballFalling","322.3","356.42114317029973","357.87","4","fallScene","true","","","","","108","",""
"","","","","","html-keyboard-response","298","1472418","0.0-24.0-1.11","67884b1aa6c55d9dd2388778","67619bf32066d179f8b4b1ec","67894a96eb30b84596b5b8c5","passed","","710","","","","","","","","","","","","","","j","yesOrNo","","","","4","","","lp","3000","","","108","323.3","297.4070551689986"
"","","","","","html-keyboard-response","299","1474403","0.0-24.0-0.12","67884b1aa6c55d9dd2388778","67619bf32066d179f8b4b1ec","67894a96eb30b84596b5b8c5","passed","","","","","","","","","","","","","","","","","ballFalling","500","510.8711431702997","369.03","8","fallScene","false","","","","","109","",""
"","","","","","html-keyboard-response","300","1474978","0.0-24.0-1.12","67884b1aa6c55d9dd2388778","67619bf32066d179f8b4b1ec","67894a96eb30b84596b5b8c5","passed","","572","","","","","","","","","","","","","","j","yesOrNo","","","","8","","","lp","3000","","","109","501","151"
