"success","timeout","failed_images","failed_audio","failed_video","trial_type","trial_index","time_elapsed","internal_node_id","subject_id","study_id","session_id","view_history","rt","width","height","webaudio","browser","browser_version","mobile","os","fullscreen","vsync_rate","webcam","microphone","url","response","triangle_prac_final_x","triangle_prac_final_y","trial_name","stimulus","ball_X_prac_occ","ball_Y_prac_occ","obstacle_X_prac_occ","obstacle_Y_prac_occ","triangle_final_x","triangle_final_y","response_time","obstacle_X_prac_occ_init","obstacle_Y_prac_occ_init","question_order","flipped","runnerFPS","ball_X","obstacle_groundTruth_x","obstacle_groundTruth_y","stimulus_idx","currentTrial","obstacle_idx","obstacle_initial_x","obstacle_initial_y"
"true","false","[]","[]","[]","preload","0","120","0.0-0.0","571cea664ca277001153c045","64d3ef96556dbe1f0e02b5aa","64da90a6688be4e4d3f110d7","","","","","","","","","","","","","","","","","","","","","","","","","","","","","","","","","","","","","","",""
"","","","","","instructions","1","24600","0.0-1.0","571cea664ca277001153c045","64d3ef96556dbe1f0e02b5aa","64da90a6688be4e4d3f110d7","[{""page_index"":0,""viewing_time"":24478}]","24479","","","","","","","","","","","","","","","","","","","","","","","","","","","","","","","","","","","","",""
"","","","","","browser-check","2","25589","0.0-2.0","571cea664ca277001153c045","64d3ef96556dbe1f0e02b5aa","64da90a6688be4e4d3f110d7","","","1536","747","true","chrome","115.0.0","false","Windows 10","true","60.86","true","true","","","","","","","","","","","","","","","","","","","","","","","","","",""
"","","","","","external-html","3","41602","0.0-3.0","571cea664ca277001153c045","64d3ef96556dbe1f0e02b5aa","64da90a6688be4e4d3f110d7","","15951","","","","","","","","","","","","consent.html","","","","","","","","","","","","","","","","","","","","","","","","",""
"true","","","","","fullscreen","4","44066","0.0-4.0","571cea664ca277001153c045","64d3ef96556dbe1f0e02b5aa","64da90a6688be4e4d3f110d7","","1947","","","","","","","","","","","","","","","","","","","","","","","","","","","","","","","","","","","","",""
"","","","","","survey-text","5","53000","0.0-5.0","571cea664ca277001153c045","64d3ef96556dbe1f0e02b5aa","64da90a6688be4e4d3f110d7","","8926","","","","","","","","","","","","","{""prolificID"":""571cea664ca277001153c045""}","","","","","","","","","","","","","","","","","","","","","","","",""
"","","","","","browser-check","6","53981","0.0-6.0","571cea664ca277001153c045","64d3ef96556dbe1f0e02b5aa","64da90a6688be4e4d3f110d7","","","1536","747","true","chrome","115.0.0","false","Windows 10","true","61.42","true","true","","","","","","","","","","","","","","","","","","","","","","","","","",""
"","","","","","instructions","7","101925","0.0-7.0-0.0-0.0","571cea664ca277001153c045","64d3ef96556dbe1f0e02b5aa","64da90a6688be4e4d3f110d7","[{""page_index"":0,""viewing_time"":28121},{""page_index"":1,""viewing_time"":9978},{""page_index"":2,""viewing_time"":6313},{""page_index"":3,""viewing_time"":3531}]","47943","","","","","","","","","","","","","","","","","","","","","","","","","","","","","","","","","","","","",""
"","","","","","html-keyboard-response","8","109037","0.0-7.0-0.0-1.0","571cea664ca277001153c045","64d3ef96556dbe1f0e02b5aa","64da90a6688be4e4d3f110d7","","","","","","","","","","","","","","","","574.0099888484925","347.0004721290013","","","","","","","","","","","","","","","","","","","","","",""
"","","","","","html-keyboard-response","8","109037","0.0-7.0-0.0-1.0","571cea664ca277001153c045","64d3ef96556dbe1f0e02b5aa","64da90a6688be4e4d3f110d7","","","","","","","","","","","","","","","","","","practiceTrial_move","","","","","","","","","","","","","","","","","","","","",""
"","","","","","html-button-response","9","111079","0.0-7.0-0.0-2.0","571cea664ca277001153c045","64d3ef96556dbe1f0e02b5aa","64da90a6688be4e4d3f110d7","","2039","","","","","","","","","","","","","0","","","","<p>To help you get more comfortable with the task, let's begin with a practice trial first!</p><p>As described previously, you will first see a video of a ball falling, some of it behind a gray screen.</p><p>After the video, you will drag a triangle to the spot you think the ball hit the triangle behind the screen.</p><p>Click 'Next' to start your practice trial.</p>","","","","","","","","","","","","","","","","","","","",""
"","","","","","html-keyboard-response","10","114084","0.0-7.0-0.0-3.0","571cea664ca277001153c045","64d3ef96556dbe1f0e02b5aa","64da90a6688be4e4d3f110d7","","null","","","","","","","","","","","","","null","","","fallScene_practiceTrial_withOccluder","","400","50","420","415","","","","","","","","","","","","","","","",""
"","","","","","html-keyboard-response","11","117818","0.0-7.0-0.0-4.0","571cea664ca277001153c045","64d3ef96556dbe1f0e02b5aa","64da90a6688be4e4d3f110d7","","","","","","","","","","","","","","","","","","","","","","","","360.00002774163136","319.00999996152","3731.7999999523163","","","","","","","","","","","","",""
"","","","","","html-keyboard-response","11","117818","0.0-7.0-0.0-4.0","571cea664ca277001153c045","64d3ef96556dbe1f0e02b5aa","64da90a6688be4e4d3f110d7","","","","","","","","","","","","","","","","","","reconstruct_practiceTrial_withOccluder","","","","","","360.00002774163136","319.00999996152","3731.7999999523163","500","300","","","","","","","","","","",""
"","","","","","html-button-response","12","119744","0.0-7.0-0.0-5.0","571cea664ca277001153c045","64d3ef96556dbe1f0e02b5aa","64da90a6688be4e4d3f110d7","","1922","","","","","","","","","","","","","1","","","","<p>Ok! We're almost ready to get started.</p><p>We just have a <b>brief quiz</b>, to make sure you understood the task.</p><p>If you need to review the instructions, click 'Previous'.</p><p>It's important to understand the task to do the study, so you have to pass the quiz to move to the study.</p>","","","","","","","","","","","","","","","","","","","",""
"","","","","","survey-multi-choice","13","134592","0.0-7.0-1.0-0.0","571cea664ca277001153c045","64d3ef96556dbe1f0e02b5aa","64da90a6688be4e4d3f110d7","","14844","","","","","","","","","","","","","{""generalProcedure"":""Watch a video of a ball falling, some of it behind a gray screen. After each video, drag a triangle to where I think the ball hit the triangle behind the screen.""}","","","","","","","","","","","","","","[0]","","","","","","","","","",""
"","","","","","survey-multi-choice","14","139346","0.0-7.0-1.0-1.0","571cea664ca277001153c045","64d3ef96556dbe1f0e02b5aa","64da90a6688be4e4d3f110d7","","4745","","","","","","","","","","","","","{""checkBallHitObstacle"":""Yes.""}","","","","","","","","","","","","","","[0]","","","","","","","","","",""
"","","","","","survey-multi-choice","15","142969","0.0-7.0-1.0-2.0","571cea664ca277001153c045","64d3ef96556dbe1f0e02b5aa","64da90a6688be4e4d3f110d7","","3615","","","","","","","","","","","","","{""checkTriangleVisibility"":""No, the triangle is hidden behind the gray screen.""}","","","","","","","","","","","","","","[0]","","","","","","","","","",""
"","","","","","instructions","16","145339","0.0-8.0","571cea664ca277001153c045","64d3ef96556dbe1f0e02b5aa","64da90a6688be4e4d3f110d7","[{""page_index"":0,""viewing_time"":2364}]","2364","","","","","","","","","","","","","","","","","","","","","","","","","","","","","","","","","","","","",""
"","","","","","html-keyboard-response","17","148354","0.0-9.0-0.0","571cea664ca277001153c045","64d3ef96556dbe1f0e02b5aa","64da90a6688be4e4d3f110d7","","null","","","","","","","","","","","","","null","","","fallScene","","","","","","","","","","","","true","61.94794000000049","500","510.8711431702997","369.03","8","1","","",""
"","","","","","html-keyboard-response","18","150684","0.0-9.0-1.0","571cea664ca277001153c045","64d3ef96556dbe1f0e02b5aa","64da90a6688be4e4d3f110d7","","","","","","","","","","","","","","","","","","","","","","","","490.9967718516493","321.990535378601","2328.800000011921","","","","","","","","","","","","",""
"","","","","","html-keyboard-response","18","150684","0.0-9.0-1.0","571cea664ca277001153c045","64d3ef96556dbe1f0e02b5aa","64da90a6688be4e4d3f110d7","","","","","","","","","","","","","","","","","","reconstruct","","","","","","490.9967718516493","321.990535378601","2328.800000011921","","","","","","","","","","1","5","625","250"
"","","","","","html-keyboard-response","19","153693","0.0-9.0-0.1","571cea664ca277001153c045","64d3ef96556dbe1f0e02b5aa","64da90a6688be4e4d3f110d7","","null","","","","","","","","","","","","","null","","","fallScene","","","","","","","","","","","","false","61.95190499999887","604.4000000000001","650.0211431702996","404.58000000000004","11","2","","",""
"","","","","","html-keyboard-response","20","155991","0.0-9.0-1.1","571cea664ca277001153c045","64d3ef96556dbe1f0e02b5aa","64da90a6688be4e4d3f110d7","","","","","","","","","","","","","","","","","","","","","","","","656.9998507299699","342.99000111413915","2297","","","","","","","","","","","","",""
"","","","","","html-keyboard-response","20","155991","0.0-9.0-1.1","571cea664ca277001153c045","64d3ef96556dbe1f0e02b5aa","64da90a6688be4e4d3f110d7","","","","","","","","","","","","","","","","","","reconstruct","","","","","","656.9998507299699","342.99000111413915","2297","","","","","","","","","","2","1","375","250"
"","","","","","html-keyboard-response","21","159006","0.0-9.0-0.2","571cea664ca277001153c045","64d3ef96556dbe1f0e02b5aa","64da90a6688be4e4d3f110d7","","null","","","","","","","","","","","","","null","","","fallScene","","","","","","","","","","","","false","61.95751699999912","322.3","308.07114317029976","253.89","2","3","","",""
"","","","","","html-keyboard-response","22","161132","0.0-9.0-1.2","571cea664ca277001153c045","64d3ef96556dbe1f0e02b5aa","64da90a6688be4e4d3f110d7","","","","","","","","","","","","","","","","","","","","","","","","322.0000321510361","299.0099999483154","2124.800000011921","","","","","","","","","","","","",""
"","","","","","html-keyboard-response","22","161132","0.0-9.0-1.2","571cea664ca277001153c045","64d3ef96556dbe1f0e02b5aa","64da90a6688be4e4d3f110d7","","","","","","","","","","","","","","","","","","reconstruct","","","","","","322.0000321510361","299.0099999483154","2124.800000011921","","","","","","","","","","3","2","375","350"
"","","","","","html-keyboard-response","23","164136","0.0-9.0-0.3","571cea664ca277001153c045","64d3ef96556dbe1f0e02b5aa","64da90a6688be4e4d3f110d7","","null","","","","","","","","","","","","","null","","","fallScene","","","","","","","","","","","","false","61.96855799999982","500","553.4711431702997","282.51","7","4","","",""
"","","","","","html-keyboard-response","24","166204","0.0-9.0-1.3","571cea664ca277001153c045","64d3ef96556dbe1f0e02b5aa","64da90a6688be4e4d3f110d7","","","","","","","","","","","","","","","","","","","","","","","","512.0003830868393","295.00999265952953","2066.800000011921","","","","","","","","","","","","",""
"","","","","","html-keyboard-response","24","166204","0.0-9.0-1.3","571cea664ca277001153c045","64d3ef96556dbe1f0e02b5aa","64da90a6688be4e4d3f110d7","","","","","","","","","","","","","","","","","","reconstruct","","","","","","512.0003830868393","295.00999265952953","2066.800000011921","","","","","","","","","","4","4","500","350"
"","","","","","html-keyboard-response","25","169208","0.0-9.0-0.4","571cea664ca277001153c045","64d3ef96556dbe1f0e02b5aa","64da90a6688be4e4d3f110d7","","null","","","","","","","","","","","","","null","","","fallScene","","","","","","","","","","","","false","61.977159000000015","500","479.92114317029973","330.87","6","5","","",""
"","","","","","html-keyboard-response","26","171879","0.0-9.0-1.4","571cea664ca277001153c045","64d3ef96556dbe1f0e02b5aa","64da90a6688be4e4d3f110d7","","","","","","","","","","","","","","","","","","","","","","","","481.99","305.9999999999694","2669.900000035763","","","","","","","","","","","","",""
"","","","","","html-keyboard-response","26","171879","0.0-9.0-1.4","571cea664ca277001153c045","64d3ef96556dbe1f0e02b5aa","64da90a6688be4e4d3f110d7","","","","","","","","","","","","","","","","","","reconstruct","","","","","","481.99","305.9999999999694","2669.900000035763","","","","","","","","","","5","1","375","250"
"","","","","","html-keyboard-response","27","174891","0.0-9.0-0.5","571cea664ca277001153c045","64d3ef96556dbe1f0e02b5aa","64da90a6688be4e4d3f110d7","","null","","","","","","","","","","","","","null","","","fallScene","","","","","","","","","","","","true","61.970022000000114","604.4000000000001","575.4211431702997","266.76","12","6","","",""
"","","","","","html-keyboard-response","28","177604","0.0-9.0-1.5","571cea664ca277001153c045","64d3ef96556dbe1f0e02b5aa","64da90a6688be4e4d3f110d7","","","","","","","","","","","","","","","","","","","","","","","","388.001568573684","381.00987621266466","2712.099999964237","","","","","","","","","","","","",""
"","","","","","html-keyboard-response","28","177604","0.0-9.0-1.5","571cea664ca277001153c045","64d3ef96556dbe1f0e02b5aa","64da90a6688be4e4d3f110d7","","","","","","","","","","","","","","","","","","reconstruct","","","","","","388.001568573684","381.00987621266466","2712.099999964237","","","","","","","","","","6","4","500","350"
"","","","","","html-keyboard-response","29","180613","0.0-9.0-0.6","571cea664ca277001153c045","64d3ef96556dbe1f0e02b5aa","64da90a6688be4e4d3f110d7","","null","","","","","","","","","","","","","null","","","fallScene","","","","","","","","","","","","true","61.96367800000059","604.4000000000001","575.4211431702997","266.76","12","7","","",""
"","","","","","html-keyboard-response","30","183216","0.0-9.0-1.6","571cea664ca277001153c045","64d3ef96556dbe1f0e02b5aa","64da90a6688be4e4d3f110d7","","","","","","","","","","","","","","","","","","","","","","","","370.01","347","2602.400000035763","","","","","","","","","","","","",""
"","","","","","html-keyboard-response","30","183216","0.0-9.0-1.6","571cea664ca277001153c045","64d3ef96556dbe1f0e02b5aa","64da90a6688be4e4d3f110d7","","","","","","","","","","","","","","","","","","reconstruct","","","","","","370.01","347","2602.400000035763","","","","","","","","","","7","2","375","350"
"","","","","","html-keyboard-response","31","186231","0.0-9.0-0.7","571cea664ca277001153c045","64d3ef96556dbe1f0e02b5aa","64da90a6688be4e4d3f110d7","","null","","","","","","","","","","","","","null","","","fallScene","","","","","","","","","","","","true","61.96410499999957","500","553.4711431702997","282.51","7","8","","",""
"","","","","","html-keyboard-response","32","188809","0.0-9.0-1.7","571cea664ca277001153c045","64d3ef96556dbe1f0e02b5aa","64da90a6688be4e4d3f110d7","","","","","","","","","","","","","","","","","","","","","","","","466.0078351514891","346.0062137268321","2577.199999988079","","","","","","","","","","","","",""
"","","","","","html-keyboard-response","32","188809","0.0-9.0-1.7","571cea664ca277001153c045","64d3ef96556dbe1f0e02b5aa","64da90a6688be4e4d3f110d7","","","","","","","","","","","","","","","","","","reconstruct","","","","","","466.0078351514891","346.0062137268321","2577.199999988079","","","","","","","","","","8","1","375","250"
"","","","","","html-keyboard-response","33","191821","0.0-9.0-0.8","571cea664ca277001153c045","64d3ef96556dbe1f0e02b5aa","64da90a6688be4e4d3f110d7","","null","","","","","","","","","","","","","null","","","fallScene","","","","","","","","","","","","true","61.961543000000376","322.3","379.3711431702997","245.25","1","9","","",""
"","","","","","html-keyboard-response","34","195560","0.0-9.0-1.8","571cea664ca277001153c045","64d3ef96556dbe1f0e02b5aa","64da90a6688be4e4d3f110d7","","","","","","","","","","","","","","","","","","","","","","","","659.0070376124805","354.0071043655997","3738.900000035763","","","","","","","","","","","","",""
"","","","","","html-keyboard-response","34","195560","0.0-9.0-1.8","571cea664ca277001153c045","64d3ef96556dbe1f0e02b5aa","64da90a6688be4e4d3f110d7","","","","","","","","","","","","","","","","","","reconstruct","","","","","","659.0070376124805","354.0071043655997","3738.900000035763","","","","","","","","","","9","4","500","350"
"","","","","","html-keyboard-response","35","198569","0.0-9.0-0.9","571cea664ca277001153c045","64d3ef96556dbe1f0e02b5aa","64da90a6688be4e4d3f110d7","","null","","","","","","","","","","","","","null","","","fallScene","","","","","","","","","","","","false","61.96160399999974","604.4000000000001","596.8711431702998","394.5","10","10","","",""
"","","","","","html-keyboard-response","36","201184","0.0-9.0-1.9","571cea664ca277001153c045","64d3ef96556dbe1f0e02b5aa","64da90a6688be4e4d3f110d7","","","","","","","","","","","","","","","","","","","","","","","","578.9999983993528","356.9900000001281","2614.699999988079","","","","","","","","","","","","",""
"","","","","","html-keyboard-response","36","201184","0.0-9.0-1.9","571cea664ca277001153c045","64d3ef96556dbe1f0e02b5aa","64da90a6688be4e4d3f110d7","","","","","","","","","","","","","","","","","","reconstruct","","","","","","578.9999983993528","356.9900000001281","2614.699999988079","","","","","","","","","","10","3","500","250"
"","","","","","html-keyboard-response","37","204199","0.0-9.0-0.10","571cea664ca277001153c045","64d3ef96556dbe1f0e02b5aa","64da90a6688be4e4d3f110d7","","null","","","","","","","","","","","","","null","","","fallScene","","","","","","","","","","","","false","61.970753999999374","500","453.67114317029973","210.33","5","11","","",""
"","","","","","html-keyboard-response","38","207051","0.0-9.0-1.10","571cea664ca277001153c045","64d3ef96556dbe1f0e02b5aa","64da90a6688be4e4d3f110d7","","","","","","","","","","","","","","","","","","","","","","","","505.00707358698446","357.9929314522586","2852","","","","","","","","","","","","",""
"","","","","","html-keyboard-response","38","207051","0.0-9.0-1.10","571cea664ca277001153c045","64d3ef96556dbe1f0e02b5aa","64da90a6688be4e4d3f110d7","","","","","","","","","","","","","","","","","","reconstruct","","","","","","505.00707358698446","357.9929314522586","2852","","","","","","","","","","11","6","625","350"
"","","","","","html-keyboard-response","39","210058","0.0-9.0-0.11","571cea664ca277001153c045","64d3ef96556dbe1f0e02b5aa","64da90a6688be4e4d3f110d7","","null","","","","","","","","","","","","","null","","","fallScene","","","","","","","","","","","","true","61.96099399999916","322.3","296.07114317029976","371.46","3","12","","",""
"","","","","","html-keyboard-response","40","213128","0.0-9.0-1.11","571cea664ca277001153c045","64d3ef96556dbe1f0e02b5aa","64da90a6688be4e4d3f110d7","","","","","","","","","","","","","","","","","","","","","","","","675.0000054912517","366.00999999849233","3069.899999976158","","","","","","","","","","","","",""
"","","","","","html-keyboard-response","40","213128","0.0-9.0-1.11","571cea664ca277001153c045","64d3ef96556dbe1f0e02b5aa","64da90a6688be4e4d3f110d7","","","","","","","","","","","","","","","","","","reconstruct","","","","","","675.0000054912517","366.00999999849233","3069.899999976158","","","","","","","","","","12","3","500","250"
"","","","","","html-keyboard-response","41","216138","0.0-9.0-0.12","571cea664ca277001153c045","64d3ef96556dbe1f0e02b5aa","64da90a6688be4e4d3f110d7","","null","","","","","","","","","","","","","null","","","fallScene","","","","","","","","","","","","false","61.976853999999726","322.3","296.07114317029976","371.46","3","13","","",""
"","","","","","html-keyboard-response","42","218956","0.0-9.0-1.12","571cea664ca277001153c045","64d3ef96556dbe1f0e02b5aa","64da90a6688be4e4d3f110d7","","","","","","","","","","","","","","","","","","","","","","","","289.9900000000016","379.0000001777107","2817.199999988079","","","","","","","","","","","","",""
"","","","","","html-keyboard-response","42","218956","0.0-9.0-1.12","571cea664ca277001153c045","64d3ef96556dbe1f0e02b5aa","64da90a6688be4e4d3f110d7","","","","","","","","","","","","","","","","","","reconstruct","","","","","","289.9900000000016","379.0000001777107","2817.199999988079","","","","","","","","","","13","6","625","350"
"","","","","","html-keyboard-response","43","221966","0.0-9.0-0.13","571cea664ca277001153c045","64d3ef96556dbe1f0e02b5aa","64da90a6688be4e4d3f110d7","","null","","","","","","","","","","","","","null","","","fallScene","","","","","","","","","","","","true","61.95513799999974","500","510.8711431702997","369.03","8","14","","",""
"","","","","","html-keyboard-response","44","223902","0.0-9.0-1.13","571cea664ca277001153c045","64d3ef96556dbe1f0e02b5aa","64da90a6688be4e4d3f110d7","","","","","","","","","","","","","","","","","","","","","","","","481.00998747113545","365.0005004201423","1934.9000000357628","","","","","","","","","","","","",""
"","","","","","html-keyboard-response","44","223902","0.0-9.0-1.13","571cea664ca277001153c045","64d3ef96556dbe1f0e02b5aa","64da90a6688be4e4d3f110d7","","","","","","","","","","","","","","","","","","reconstruct","","","","","","481.00998747113545","365.0005004201423","1934.9000000357628","","","","","","","","","","14","4","500","350"
"","","","","","html-keyboard-response","45","226912","0.0-9.0-0.14","571cea664ca277001153c045","64d3ef96556dbe1f0e02b5aa","64da90a6688be4e4d3f110d7","","null","","","","","","","","","","","","","null","","","fallScene","","","","","","","","","","","","false","61.97057099999955","604.4000000000001","667.6211431702998","201.78","9","15","","",""
"","","","","","html-keyboard-response","46","229771","0.0-9.0-1.14","571cea664ca277001153c045","64d3ef96556dbe1f0e02b5aa","64da90a6688be4e4d3f110d7","","","","","","","","","","","","","","","","","","","","","","","","630.9986317223173","358.00990594852516","2858.2999999523163","","","","","","","","","","","","",""
"","","","","","html-keyboard-response","46","229771","0.0-9.0-1.14","571cea664ca277001153c045","64d3ef96556dbe1f0e02b5aa","64da90a6688be4e4d3f110d7","","","","","","","","","","","","","","","","","","reconstruct","","","","","","630.9986317223173","358.00990594852516","2858.2999999523163","","","","","","","","","","15","2","375","350"
"","","","","","html-keyboard-response","47","232774","0.0-9.0-0.15","571cea664ca277001153c045","64d3ef96556dbe1f0e02b5aa","64da90a6688be4e4d3f110d7","","null","","","","","","","","","","","","","null","","","fallScene","","","","","","","","","","","","false","61.95702899999902","500","510.8711431702997","369.03","8","16","","",""
"","","","","","html-keyboard-response","48","235179","0.0-9.0-1.15","571cea664ca277001153c045","64d3ef96556dbe1f0e02b5aa","64da90a6688be4e4d3f110d7","","","","","","","","","","","","","","","","","","","","","","","","462.00027989142984","341.0099960822719","2405","","","","","","","","","","","","",""
"","","","","","html-keyboard-response","48","235179","0.0-9.0-1.15","571cea664ca277001153c045","64d3ef96556dbe1f0e02b5aa","64da90a6688be4e4d3f110d7","","","","","","","","","","","","","","","","","","reconstruct","","","","","","462.00027989142984","341.0099960822719","2405","","","","","","","","","","16","2","375","350"
"","","","","","html-keyboard-response","49","238185","0.0-9.0-0.16","571cea664ca277001153c045","64d3ef96556dbe1f0e02b5aa","64da90a6688be4e4d3f110d7","","null","","","","","","","","","","","","","null","","","fallScene","","","","","","","","","","","","true","61.95904199999877","322.3","308.07114317029976","253.89","2","17","","",""
"","","","","","html-keyboard-response","50","241038","0.0-9.0-1.16","571cea664ca277001153c045","64d3ef96556dbe1f0e02b5aa","64da90a6688be4e4d3f110d7","","","","","","","","","","","","","","","","","","","","","","","","681.9999816234414","377.0099999831151","2852.300000011921","","","","","","","","","","","","",""
"","","","","","html-keyboard-response","50","241038","0.0-9.0-1.16","571cea664ca277001153c045","64d3ef96556dbe1f0e02b5aa","64da90a6688be4e4d3f110d7","","","","","","","","","","","","","","","","","","reconstruct","","","","","","681.9999816234414","377.0099999831151","2852.300000011921","","","","","","","","","","17","3","500","250"
"","","","","","html-keyboard-response","51","244047","0.0-9.0-0.17","571cea664ca277001153c045","64d3ef96556dbe1f0e02b5aa","64da90a6688be4e4d3f110d7","","null","","","","","","","","","","","","","null","","","fallScene","","","","","","","","","","","","true","61.96227499999964","322.3","296.07114317029976","371.46","3","18","","",""
"","","","","","html-keyboard-response","52","246457","0.0-9.0-1.17","571cea664ca277001153c045","64d3ef96556dbe1f0e02b5aa","64da90a6688be4e4d3f110d7","","","","","","","","","","","","","","","","","","","","","","","","699.9997041117424","413.9900043784516","2409.399999976158","","","","","","","","","","","","",""
"","","","","","html-keyboard-response","52","246457","0.0-9.0-1.17","571cea664ca277001153c045","64d3ef96556dbe1f0e02b5aa","64da90a6688be4e4d3f110d7","","","","","","","","","","","","","","","","","","reconstruct","","","","","","699.9997041117424","413.9900043784516","2409.399999976158","","","","","","","","","","18","1","375","250"
"","","","","","html-button-response","53","309958","0.0-10.0","571cea664ca277001153c045","64d3ef96556dbe1f0e02b5aa","64da90a6688be4e4d3f110d7","","63499","","","","","","","","","","","","","0","","","","<p><span style = ""font-size:40px;"">BREAK</span></p><p>You are doing great! Click 'Next' when you are ready for the next set.</p>","","","","","","","","","","","","","","","","","","","",""
"","","","","","html-keyboard-response","54","312973","0.0-11.0-0.0","571cea664ca277001153c045","64d3ef96556dbe1f0e02b5aa","64da90a6688be4e4d3f110d7","","null","","","","","","","","","","","","","null","","","fallScene","","","","","","","","","","","","false","61.96123800000011","604.4000000000001","650.0211431702996","404.58000000000004","11","19","","",""
"","","","","","html-keyboard-response","55","315772","0.0-11.0-1.0","571cea664ca277001153c045","64d3ef96556dbe1f0e02b5aa","64da90a6688be4e4d3f110d7","","","","","","","","","","","","","","","","","","","","","","","","626.0000000112731","371.99","2798.2999999523163","","","","","","","","","","","","",""
"","","","","","html-keyboard-response","55","315772","0.0-11.0-1.0","571cea664ca277001153c045","64d3ef96556dbe1f0e02b5aa","64da90a6688be4e4d3f110d7","","","","","","","","","","","","","","","","","","reconstruct","","","","","","626.0000000112731","371.99","2798.2999999523163","","","","","","","","","","19","5","625","250"
"","","","","","html-keyboard-response","56","318784","0.0-11.0-0.1","571cea664ca277001153c045","64d3ef96556dbe1f0e02b5aa","64da90a6688be4e4d3f110d7","","null","","","","","","","","","","","","","null","","","fallScene","","","","","","","","","","","","true","61.96312900000293","322.3","379.3711431702997","245.25","1","20","","",""
"","","","","","html-keyboard-response","57","321387","0.0-11.0-1.1","571cea664ca277001153c045","64d3ef96556dbe1f0e02b5aa","64da90a6688be4e4d3f110d7","","","","","","","","","","","","","","","","","","","","","","","","646.0000008306681","377.9900000000345","2601.7999999523163","","","","","","","","","","","","",""
"","","","","","html-keyboard-response","57","321387","0.0-11.0-1.1","571cea664ca277001153c045","64d3ef96556dbe1f0e02b5aa","64da90a6688be4e4d3f110d7","","","","","","","","","","","","","","","","","","reconstruct","","","","","","646.0000008306681","377.9900000000345","2601.7999999523163","","","","","","","","","","20","1","375","250"
"","","","","","html-keyboard-response","58","324397","0.0-11.0-0.2","571cea664ca277001153c045","64d3ef96556dbe1f0e02b5aa","64da90a6688be4e4d3f110d7","","null","","","","","","","","","","","","","null","","","fallScene","","","","","","","","","","","","false","61.959285999997924","500","453.67114317029973","210.33","5","21","","",""
"","","","","","html-keyboard-response","59","326737","0.0-11.0-1.2","571cea664ca277001153c045","64d3ef96556dbe1f0e02b5aa","64da90a6688be4e4d3f110d7","","","","","","","","","","","","","","","","","","","","","","","","485.99430815480287","357.991777901834","2339.600000023842","","","","","","","","","","","","",""
"","","","","","html-keyboard-response","59","326737","0.0-11.0-1.2","571cea664ca277001153c045","64d3ef96556dbe1f0e02b5aa","64da90a6688be4e4d3f110d7","","","","","","","","","","","","","","","","","","reconstruct","","","","","","485.99430815480287","357.991777901834","2339.600000023842","","","","","","","","","","21","2","375","350"
"","","","","","html-keyboard-response","60","329742","0.0-11.0-0.3","571cea664ca277001153c045","64d3ef96556dbe1f0e02b5aa","64da90a6688be4e4d3f110d7","","null","","","","","","","","","","","","","null","","","fallScene","","","","","","","","","","","","true","61.9596520000011","500","453.67114317029973","210.33","5","22","","",""
"","","","","","html-keyboard-response","61","332468","0.0-11.0-1.3","571cea664ca277001153c045","64d3ef96556dbe1f0e02b5aa","64da90a6688be4e4d3f110d7","","","","","","","","","","","","","","","","","","","","","","","","517.9900486175002","359.00098487884674","2724.7999999523163","","","","","","","","","","","","",""
"","","","","","html-keyboard-response","61","332468","0.0-11.0-1.3","571cea664ca277001153c045","64d3ef96556dbe1f0e02b5aa","64da90a6688be4e4d3f110d7","","","","","","","","","","","","","","","","","","reconstruct","","","","","","517.9900486175002","359.00098487884674","2724.7999999523163","","","","","","","","","","22","4","500","350"
"","","","","","html-keyboard-response","62","335470","0.0-11.0-0.4","571cea664ca277001153c045","64d3ef96556dbe1f0e02b5aa","64da90a6688be4e4d3f110d7","","null","","","","","","","","","","","","","null","","","fallScene","","","","","","","","","","","","true","61.960505999999064","322.3","308.07114317029976","253.89","2","23","","",""
"","","","","","html-keyboard-response","63","338286","0.0-11.0-1.4","571cea664ca277001153c045","64d3ef96556dbe1f0e02b5aa","64da90a6688be4e4d3f110d7","","","","","","","","","","","","","","","","","","","","","","","","687.0000885533533","384.9900003920925","2815.300000011921","","","","","","","","","","","","",""
"","","","","","html-keyboard-response","63","338286","0.0-11.0-1.4","571cea664ca277001153c045","64d3ef96556dbe1f0e02b5aa","64da90a6688be4e4d3f110d7","","","","","","","","","","","","","","","","","","reconstruct","","","","","","687.0000885533533","384.9900003920925","2815.300000011921","","","","","","","","","","23","5","625","250"
"","","","","","html-keyboard-response","64","341293","0.0-11.0-0.5","571cea664ca277001153c045","64d3ef96556dbe1f0e02b5aa","64da90a6688be4e4d3f110d7","","null","","","","","","","","","","","","","null","","","fallScene","","","","","","","","","","","","true","61.96733799999691","322.3","296.07114317029976","371.46","3","24","","",""
"","","","","","html-keyboard-response","65","344968","0.0-11.0-1.5","571cea664ca277001153c045","64d3ef96556dbe1f0e02b5aa","64da90a6688be4e4d3f110d7","","","","","","","","","","","","","","","","","","","","","","","","701.990000500006","399.0000999993463","3674.800000011921","","","","","","","","","","","","",""
"","","","","","html-keyboard-response","65","344968","0.0-11.0-1.5","571cea664ca277001153c045","64d3ef96556dbe1f0e02b5aa","64da90a6688be4e4d3f110d7","","","","","","","","","","","","","","","","","","reconstruct","","","","","","701.990000500006","399.0000999993463","3674.800000011921","","","","","","","","","","24","4","500","350"
"","","","","","html-keyboard-response","66","347976","0.0-11.0-0.6","571cea664ca277001153c045","64d3ef96556dbe1f0e02b5aa","64da90a6688be4e4d3f110d7","","null","","","","","","","","","","","","","null","","","fallScene","","","","","","","","","","","","false","61.9646540000008","604.4000000000001","596.8711431702998","394.5","10","25","","",""
"","","","","","html-keyboard-response","67","349988","0.0-11.0-1.6","571cea664ca277001153c045","64d3ef96556dbe1f0e02b5aa","64da90a6688be4e4d3f110d7","","","","","","","","","","","","","","","","","","","","","","","","549.99","350","2010.5999999642372","","","","","","","","","","","","",""
"","","","","","html-keyboard-response","67","349988","0.0-11.0-1.6","571cea664ca277001153c045","64d3ef96556dbe1f0e02b5aa","64da90a6688be4e4d3f110d7","","","","","","","","","","","","","","","","","","reconstruct","","","","","","549.99","350","2010.5999999642372","","","","","","","","","","25","4","500","350"
"","","","","","html-keyboard-response","68","352992","0.0-11.0-0.7","571cea664ca277001153c045","64d3ef96556dbe1f0e02b5aa","64da90a6688be4e4d3f110d7","","null","","","","","","","","","","","","","null","","","fallScene","","","","","","","","","","","","true","61.96190900000178","322.3","356.42114317029973","357.87","4","26","","",""
"","","","","","html-keyboard-response","69","356123","0.0-11.0-1.7","571cea664ca277001153c045","64d3ef96556dbe1f0e02b5aa","64da90a6688be4e4d3f110d7","","","","","","","","","","","","","","","","","","","","","","","","603.0099990262756","380.9900000000474","3130.800000011921","","","","","","","","","","","","",""
"","","","","","html-keyboard-response","69","356123","0.0-11.0-1.7","571cea664ca277001153c045","64d3ef96556dbe1f0e02b5aa","64da90a6688be4e4d3f110d7","","","","","","","","","","","","","","","","","","reconstruct","","","","","","603.0099990262756","380.9900000000474","3130.800000011921","","","","","","","","","","26","6","625","350"
"","","","","","html-keyboard-response","70","359133","0.0-11.0-0.8","571cea664ca277001153c045","64d3ef96556dbe1f0e02b5aa","64da90a6688be4e4d3f110d7","","null","","","","","","","","","","","","","null","","","fallScene","","","","","","","","","","","","false","61.95971300000046","604.4000000000001","650.0211431702996","404.58000000000004","11","27","","",""
"","","","","","html-keyboard-response","71","361378","0.0-11.0-1.8","571cea664ca277001153c045","64d3ef96556dbe1f0e02b5aa","64da90a6688be4e4d3f110d7","","","","","","","","","","","","","","","","","","","","","","","","640.0099995000373","373.9999000049809","2244.300000011921","","","","","","","","","","","","",""
"","","","","","html-keyboard-response","71","361378","0.0-11.0-1.8","571cea664ca277001153c045","64d3ef96556dbe1f0e02b5aa","64da90a6688be4e4d3f110d7","","","","","","","","","","","","","","","","","","reconstruct","","","","","","640.0099995000373","373.9999000049809","2244.300000011921","","","","","","","","","","27","4","500","350"
"","","","","","html-keyboard-response","72","364395","0.0-11.0-0.9","571cea664ca277001153c045","64d3ef96556dbe1f0e02b5aa","64da90a6688be4e4d3f110d7","","null","","","","","","","","","","","","","null","","","fallScene","","","","","","","","","","","","true","61.96538600000006","322.3","308.07114317029976","253.89","2","28","","",""
"","","","","","html-keyboard-response","73","366870","0.0-11.0-1.9","571cea664ca277001153c045","64d3ef96556dbe1f0e02b5aa","64da90a6688be4e4d3f110d7","","","","","","","","","","","","","","","","","","","","","","","","668.9900013063784","379.00016163496514","2474","","","","","","","","","","","","",""
"","","","","","html-keyboard-response","73","366870","0.0-11.0-1.9","571cea664ca277001153c045","64d3ef96556dbe1f0e02b5aa","64da90a6688be4e4d3f110d7","","","","","","","","","","","","","","","","","","reconstruct","","","","","","668.9900013063784","379.00016163496514","2474","","","","","","","","","","28","1","375","250"
"","","","","","html-keyboard-response","74","369874","0.0-11.0-0.10","571cea664ca277001153c045","64d3ef96556dbe1f0e02b5aa","64da90a6688be4e4d3f110d7","","null","","","","","","","","","","","","","null","","","fallScene","","","","","","","","","","","","true","61.96148199999926","604.4000000000001","667.6211431702998","201.78","9","29","","",""
"","","","","","html-keyboard-response","75","373342","0.0-11.0-1.10","571cea664ca277001153c045","64d3ef96556dbe1f0e02b5aa","64da90a6688be4e4d3f110d7","","","","","","","","","","","","","","","","","","","","","","","","373.99999999927786","382.01","3467.5","","","","","","","","","","","","",""
"","","","","","html-keyboard-response","75","373342","0.0-11.0-1.10","571cea664ca277001153c045","64d3ef96556dbe1f0e02b5aa","64da90a6688be4e4d3f110d7","","","","","","","","","","","","","","","","","","reconstruct","","","","","","373.99999999927786","382.01","3467.5","","","","","","","","","","29","1","375","250"
"","","","","","html-keyboard-response","76","376352","0.0-11.0-0.11","571cea664ca277001153c045","64d3ef96556dbe1f0e02b5aa","64da90a6688be4e4d3f110d7","","null","","","","","","","","","","","","","null","","","fallScene","","","","","","","","","","","","false","61.96148199999926","322.3","296.07114317029976","371.46","3","30","","",""
"","","","","","html-keyboard-response","77","379652","0.0-11.0-1.11","571cea664ca277001153c045","64d3ef96556dbe1f0e02b5aa","64da90a6688be4e4d3f110d7","","","","","","","","","","","","","","","","","","","","","","","","311.99000049971545","377.99990002970986","3299.7000000476837","","","","","","","","","","","","",""
"","","","","","html-keyboard-response","77","379652","0.0-11.0-1.11","571cea664ca277001153c045","64d3ef96556dbe1f0e02b5aa","64da90a6688be4e4d3f110d7","","","","","","","","","","","","","","","","","","reconstruct","","","","","","311.99000049971545","377.99990002970986","3299.7000000476837","","","","","","","","","","30","5","625","250"
"","","","","","html-keyboard-response","78","382662","0.0-11.0-0.12","571cea664ca277001153c045","64d3ef96556dbe1f0e02b5aa","64da90a6688be4e4d3f110d7","","null","","","","","","","","","","","","","null","","","fallScene","","","","","","","","","","","","false","61.963860999998644","500","553.4711431702997","282.51","7","31","","",""
"","","","","","html-keyboard-response","79","385390","0.0-11.0-1.12","571cea664ca277001153c045","64d3ef96556dbe1f0e02b5aa","64da90a6688be4e4d3f110d7","","","","","","","","","","","","","","","","","","","","","","","","529","374.99","2727.100000023842","","","","","","","","","","","","",""
"","","","","","html-keyboard-response","79","385390","0.0-11.0-1.12","571cea664ca277001153c045","64d3ef96556dbe1f0e02b5aa","64da90a6688be4e4d3f110d7","","","","","","","","","","","","","","","","","","reconstruct","","","","","","529","374.99","2727.100000023842","","","","","","","","","","31","3","500","250"
"","","","","","html-keyboard-response","80","388402","0.0-11.0-0.13","571cea664ca277001153c045","64d3ef96556dbe1f0e02b5aa","64da90a6688be4e4d3f110d7","","null","","","","","","","","","","","","","null","","","fallScene","","","","","","","","","","","","true","61.96556900000164","322.3","379.3711431702997","245.25","1","32","","",""
"","","","","","html-keyboard-response","81","391534","0.0-11.0-1.13","571cea664ca277001153c045","64d3ef96556dbe1f0e02b5aa","64da90a6688be4e4d3f110d7","","","","","","","","","","","","","","","","","","","","","","","","626.99","371.0000000000098","3131.100000023842","","","","","","","","","","","","",""
"","","","","","html-keyboard-response","81","391534","0.0-11.0-1.13","571cea664ca277001153c045","64d3ef96556dbe1f0e02b5aa","64da90a6688be4e4d3f110d7","","","","","","","","","","","","","","","","","","reconstruct","","","","","","626.99","371.0000000000098","3131.100000023842","","","","","","","","","","32","5","625","250"
"","","","","","html-keyboard-response","82","394536","0.0-11.0-0.14","571cea664ca277001153c045","64d3ef96556dbe1f0e02b5aa","64da90a6688be4e4d3f110d7","","null","","","","","","","","","","","","","null","","","fallScene","","","","","","","","","","","","true","61.96239700000012","604.4000000000001","667.6211431702998","201.78","9","33","","",""
"","","","","","html-keyboard-response","83","397119","0.0-11.0-1.14","571cea664ca277001153c045","64d3ef96556dbe1f0e02b5aa","64da90a6688be4e4d3f110d7","","","","","","","","","","","","","","","","","","","","","","","","342.0082563966343","373.9943580221006","2582.100000023842","","","","","","","","","","","","",""
"","","","","","html-keyboard-response","83","397119","0.0-11.0-1.14","571cea664ca277001153c045","64d3ef96556dbe1f0e02b5aa","64da90a6688be4e4d3f110d7","","","","","","","","","","","","","","","","","","reconstruct","","","","","","342.0082563966343","373.9943580221006","2582.100000023842","","","","","","","","","","33","4","500","350"
"","","","","","html-keyboard-response","84","400131","0.0-11.0-0.15","571cea664ca277001153c045","64d3ef96556dbe1f0e02b5aa","64da90a6688be4e4d3f110d7","","null","","","","","","","","","","","","","null","","","fallScene","","","","","","","","","","","","true","61.96032300000102","604.4000000000001","667.6211431702998","201.78","9","34","","",""
"","","","","","html-keyboard-response","85","402149","0.0-11.0-1.15","571cea664ca277001153c045","64d3ef96556dbe1f0e02b5aa","64da90a6688be4e4d3f110d7","","","","","","","","","","","","","","","","","","","","","","","","349.00999999999874","358.0000001601116","2016.6000000238419","","","","","","","","","","","","",""
"","","","","","html-keyboard-response","85","402149","0.0-11.0-1.15","571cea664ca277001153c045","64d3ef96556dbe1f0e02b5aa","64da90a6688be4e4d3f110d7","","","","","","","","","","","","","","","","","","reconstruct","","","","","","349.00999999999874","358.0000001601116","2016.6000000238419","","","","","","","","","","34","6","625","350"
"","","","","","html-keyboard-response","86","405153","0.0-11.0-0.16","571cea664ca277001153c045","64d3ef96556dbe1f0e02b5aa","64da90a6688be4e4d3f110d7","","null","","","","","","","","","","","","","null","","","fallScene","","","","","","","","","","","","true","61.963189999998725","322.3","356.42114317029973","357.87","4","35","","",""
"","","","","","html-keyboard-response","87","407278","0.0-11.0-1.16","571cea664ca277001153c045","64d3ef96556dbe1f0e02b5aa","64da90a6688be4e4d3f110d7","","","","","","","","","","","","","","","","","","","","","","","","638.9999000049175","371.00999950003666","2124.399999976158","","","","","","","","","","","","",""
"","","","","","html-keyboard-response","87","407279","0.0-11.0-1.16","571cea664ca277001153c045","64d3ef96556dbe1f0e02b5aa","64da90a6688be4e4d3f110d7","","","","","","","","","","","","","","","","","","reconstruct","","","","","","638.9999000049175","371.00999950003666","2124.399999976158","","","","","","","","","","35","4","500","350"
"","","","","","html-keyboard-response","88","410287","0.0-11.0-0.17","571cea664ca277001153c045","64d3ef96556dbe1f0e02b5aa","64da90a6688be4e4d3f110d7","","null","","","","","","","","","","","","","null","","","fallScene","","","","","","","","","","","","false","61.962579999998155","604.4000000000001","667.6211431702998","201.78","9","36","","",""
"","","","","","html-keyboard-response","89","412658","0.0-11.0-1.17","571cea664ca277001153c045","64d3ef96556dbe1f0e02b5aa","64da90a6688be4e4d3f110d7","","","","","","","","","","","","","","","","","","","","","","","","608.0052152289638","375.9914676271263","2369.699999988079","","","","","","","","","","","","",""
"","","","","","html-keyboard-response","89","412658","0.0-11.0-1.17","571cea664ca277001153c045","64d3ef96556dbe1f0e02b5aa","64da90a6688be4e4d3f110d7","","","","","","","","","","","","","","","","","","reconstruct","","","","","","608.0052152289638","375.9914676271263","2369.699999988079","","","","","","","","","","36","5","625","250"
"","","","","","html-button-response","90","414068","0.0-12.0","571cea664ca277001153c045","64d3ef96556dbe1f0e02b5aa","64da90a6688be4e4d3f110d7","","1408","","","","","","","","","","","","","0","","","","<p><span style = ""font-size:40px;"">BREAK</span></p><p>You are halfway done! Click 'Next' when you are ready for the next set.</p>","","","","","","","","","","","","","","","","","","","",""
"","","","","","html-keyboard-response","91","417072","0.0-13.0-0.0","571cea664ca277001153c045","64d3ef96556dbe1f0e02b5aa","64da90a6688be4e4d3f110d7","","null","","","","","","","","","","","","","null","","","fallScene","","","","","","","","","","","","true","61.962945999997785","604.4000000000001","596.8711431702998","394.5","10","37","","",""
"","","","","","html-keyboard-response","92","420452","0.0-13.0-1.0","571cea664ca277001153c045","64d3ef96556dbe1f0e02b5aa","64da90a6688be4e4d3f110d7","","","","","","","","","","","","","","","","","","","","","","","","423.00614453584524","389.9921104702772","3378.800000011921","","","","","","","","","","","","",""
"","","","","","html-keyboard-response","92","420452","0.0-13.0-1.0","571cea664ca277001153c045","64d3ef96556dbe1f0e02b5aa","64da90a6688be4e4d3f110d7","","","","","","","","","","","","","","","","","","reconstruct","","","","","","423.00614453584524","389.9921104702772","3378.800000011921","","","","","","","","","","37","5","625","250"
"","","","","","html-keyboard-response","93","423457","0.0-13.0-0.1","571cea664ca277001153c045","64d3ef96556dbe1f0e02b5aa","64da90a6688be4e4d3f110d7","","null","","","","","","","","","","","","","null","","","fallScene","","","","","","","","","","","","true","61.96544699999941","500","479.92114317029973","330.87","6","38","","",""
"","","","","","html-keyboard-response","94","425983","0.0-13.0-1.1","571cea664ca277001153c045","64d3ef96556dbe1f0e02b5aa","64da90a6688be4e4d3f110d7","","","","","","","","","","","","","","","","","","","","","","","","474.99999990834027","363.0099999999996","2525.5","","","","","","","","","","","","",""
"","","","","","html-keyboard-response","94","425983","0.0-13.0-1.1","571cea664ca277001153c045","64d3ef96556dbe1f0e02b5aa","64da90a6688be4e4d3f110d7","","","","","","","","","","","","","","","","","","reconstruct","","","","","","474.99999990834027","363.0099999999996","2525.5","","","","","","","","","","38","4","500","350"
"","","","","","html-keyboard-response","95","428991","0.0-13.0-0.2","571cea664ca277001153c045","64d3ef96556dbe1f0e02b5aa","64da90a6688be4e4d3f110d7","","null","","","","","","","","","","","","","null","","","fallScene","","","","","","","","","","","","true","61.96532500000072","500","453.67114317029973","210.33","5","39","","",""
"","","","","","html-keyboard-response","96","432414","0.0-13.0-1.2","571cea664ca277001153c045","64d3ef96556dbe1f0e02b5aa","64da90a6688be4e4d3f110d7","","","","","","","","","","","","","","","","","","","","","","","","467.9900000000004","368.0000000908298","3422.899999976158","","","","","","","","","","","","",""
"","","","","","html-keyboard-response","96","432414","0.0-13.0-1.2","571cea664ca277001153c045","64d3ef96556dbe1f0e02b5aa","64da90a6688be4e4d3f110d7","","","","","","","","","","","","","","","","","","reconstruct","","","","","","467.9900000000004","368.0000000908298","3422.899999976158","","","","","","","","","","39","5","625","250"
"","","","","","html-keyboard-response","97","435419","0.0-13.0-0.3","571cea664ca277001153c045","64d3ef96556dbe1f0e02b5aa","64da90a6688be4e4d3f110d7","","null","","","","","","","","","","","","","null","","","fallScene","","","","","","","","","","","","true","61.966422999999594","322.3","356.42114317029973","357.87","4","40","","",""
"","","","","","html-keyboard-response","98","441920","0.0-13.0-1.3","571cea664ca277001153c045","64d3ef96556dbe1f0e02b5aa","64da90a6688be4e4d3f110d7","","","","","","","","","","","","","","","","","","","","","","","","624.9988037270274","346.00007188220843","6500.299999952316","","","","","","","","","","","","",""
"","","","","","html-keyboard-response","98","441920","0.0-13.0-1.3","571cea664ca277001153c045","64d3ef96556dbe1f0e02b5aa","64da90a6688be4e4d3f110d7","","","","","","","","","","","","","","","","","","reconstruct","","","","","","624.9988037270274","346.00007188220843","6500.299999952316","","","","","","","","","","40","2","375","350"
"","","","","","html-keyboard-response","99","444926","0.0-13.0-0.4","571cea664ca277001153c045","64d3ef96556dbe1f0e02b5aa","64da90a6688be4e4d3f110d7","","null","","","","","","","","","","","","","null","","","fallScene","","","","","","","","","","","","false","61.96306800000002","322.3","379.3711431702997","245.25","1","41","","",""
"","","","","","html-keyboard-response","100","455451","0.0-13.0-1.4","571cea664ca277001153c045","64d3ef96556dbe1f0e02b5aa","64da90a6688be4e4d3f110d7","","","","","","","","","","","","","","","","","","","","","","","","381.01","350","10524.200000047684","","","","","","","","","","","","",""
"","","","","","html-keyboard-response","100","455451","0.0-13.0-1.4","571cea664ca277001153c045","64d3ef96556dbe1f0e02b5aa","64da90a6688be4e4d3f110d7","","","","","","","","","","","","","","","","","","reconstruct","","","","","","381.01","350","10524.200000047684","","","","","","","","","","41","6","625","350"
"","","","","","html-keyboard-response","101","458458","0.0-13.0-0.5","571cea664ca277001153c045","64d3ef96556dbe1f0e02b5aa","64da90a6688be4e4d3f110d7","","null","","","","","","","","","","","","","null","","","fallScene","","","","","","","","","","","","true","61.96209199999983","322.3","308.07114317029976","253.89","2","42","","",""
"","","","","","html-keyboard-response","102","461728","0.0-13.0-1.5","571cea664ca277001153c045","64d3ef96556dbe1f0e02b5aa","64da90a6688be4e4d3f110d7","","","","","","","","","","","","","","","","","","","","","","","","651.9982420204301","352.00984426268604","3269.900000035763","","","","","","","","","","","","",""
"","","","","","html-keyboard-response","102","461728","0.0-13.0-1.5","571cea664ca277001153c045","64d3ef96556dbe1f0e02b5aa","64da90a6688be4e4d3f110d7","","","","","","","","","","","","","","","","","","reconstruct","","","","","","651.9982420204301","352.00984426268604","3269.900000035763","","","","","","","","","","42","4","500","350"
"","","","","","html-keyboard-response","103","464743","0.0-13.0-0.6","571cea664ca277001153c045","64d3ef96556dbe1f0e02b5aa","64da90a6688be4e4d3f110d7","","null","","","","","","","","","","","","","null","","","fallScene","","","","","","","","","","","","true","61.96538600000006","604.4000000000001","575.4211431702997","266.76","12","43","","",""
"","","","","","html-keyboard-response","104","467647","0.0-13.0-1.6","571cea664ca277001153c045","64d3ef96556dbe1f0e02b5aa","64da90a6688be4e4d3f110d7","","","","","","","","","","","","","","","","","","","","","","","","398.9999928820207","348.0099999974667","2901.7999999523163","","","","","","","","","","","","",""
"","","","","","html-keyboard-response","104","467647","0.0-13.0-1.6","571cea664ca277001153c045","64d3ef96556dbe1f0e02b5aa","64da90a6688be4e4d3f110d7","","","","","","","","","","","","","","","","","","reconstruct","","","","","","398.9999928820207","348.0099999974667","2901.7999999523163","","","","","","","","","","43","3","500","250"
"","","","","","html-keyboard-response","105","470654","0.0-13.0-0.7","571cea664ca277001153c045","64d3ef96556dbe1f0e02b5aa","64da90a6688be4e4d3f110d7","","null","","","","","","","","","","","","","null","","","fallScene","","","","","","","","","","","","false","61.96422700000182","604.4000000000001","650.0211431702996","404.58000000000004","11","44","","",""
"","","","","","html-keyboard-response","106","474484","0.0-13.0-1.7","571cea664ca277001153c045","64d3ef96556dbe1f0e02b5aa","64da90a6688be4e4d3f110d7","","","","","","","","","","","","","","","","","","","","","","","","667","373.99","3829.099999964237","","","","","","","","","","","","",""
"","","","","","html-keyboard-response","106","474484","0.0-13.0-1.7","571cea664ca277001153c045","64d3ef96556dbe1f0e02b5aa","64da90a6688be4e4d3f110d7","","","","","","","","","","","","","","","","","","reconstruct","","","","","","667","373.99","3829.099999964237","","","","","","","","","","44","3","500","250"
"","","","","","html-keyboard-response","107","477495","0.0-13.0-0.8","571cea664ca277001153c045","64d3ef96556dbe1f0e02b5aa","64da90a6688be4e4d3f110d7","","null","","","","","","","","","","","","","null","","","fallScene","","","","","","","","","","","","true","61.961970000001145","604.4000000000001","575.4211431702997","266.76","12","45","","",""
"","","","","","html-keyboard-response","108","480738","0.0-13.0-1.8","571cea664ca277001153c045","64d3ef96556dbe1f0e02b5aa","64da90a6688be4e4d3f110d7","","","","","","","","","","","","","","","","","","","","","","","","414.0000262473625","340.99000003444627","3241.699999988079","","","","","","","","","","","","",""
"","","","","","html-keyboard-response","108","480738","0.0-13.0-1.8","571cea664ca277001153c045","64d3ef96556dbe1f0e02b5aa","64da90a6688be4e4d3f110d7","","","","","","","","","","","","","","","","","","reconstruct","","","","","","414.0000262473625","340.99000003444627","3241.699999988079","","","","","","","","","","45","1","375","250"
"","","","","","html-keyboard-response","109","483756","0.0-13.0-0.9","571cea664ca277001153c045","64d3ef96556dbe1f0e02b5aa","64da90a6688be4e4d3f110d7","","null","","","","","","","","","","","","","null","","","fallScene","","","","","","","","","","","","true","61.955869999999","604.4000000000001","650.0211431702996","404.58000000000004","11","46","","",""
"","","","","","html-keyboard-response","110","486797","0.0-13.0-1.9","571cea664ca277001153c045","64d3ef96556dbe1f0e02b5aa","64da90a6688be4e4d3f110d7","","","","","","","","","","","","","","","","","","","","","","","","353.00000000772746","382.99","3039.800000011921","","","","","","","","","","","","",""
"","","","","","html-keyboard-response","110","486797","0.0-13.0-1.9","571cea664ca277001153c045","64d3ef96556dbe1f0e02b5aa","64da90a6688be4e4d3f110d7","","","","","","","","","","","","","","","","","","reconstruct","","","","","","353.00000000772746","382.99","3039.800000011921","","","","","","","","","","46","6","625","350"
"","","","","","html-keyboard-response","111","489817","0.0-13.0-0.10","571cea664ca277001153c045","64d3ef96556dbe1f0e02b5aa","64da90a6688be4e4d3f110d7","","null","","","","","","","","","","","","","null","","","fallScene","","","","","","","","","","","","true","61.96129899999767","500","553.4711431702997","282.51","7","47","","",""
"","","","","","html-keyboard-response","112","502696","0.0-13.0-1.10","571cea664ca277001153c045","64d3ef96556dbe1f0e02b5aa","64da90a6688be4e4d3f110d7","","","","","","","","","","","","","","","","","","","","","","","","494.0000260110085","350.99000003382866","12877","","","","","","","","","","","","",""
"","","","","","html-keyboard-response","112","502696","0.0-13.0-1.10","571cea664ca277001153c045","64d3ef96556dbe1f0e02b5aa","64da90a6688be4e4d3f110d7","","","","","","","","","","","","","","","","","","reconstruct","","","","","","494.0000260110085","350.99000003382866","12877","","","","","","","","","","47","2","375","350"
"","","","","","html-keyboard-response","113","505703","0.0-13.0-0.11","571cea664ca277001153c045","64d3ef96556dbe1f0e02b5aa","64da90a6688be4e4d3f110d7","","null","","","","","","","","","","","","","null","","","fallScene","","","","","","","","","","","","false","61.96227499999787","322.3","356.42114317029973","357.87","4","48","","",""
"","","","","","html-keyboard-response","114","508431","0.0-13.0-1.11","571cea664ca277001153c045","64d3ef96556dbe1f0e02b5aa","64da90a6688be4e4d3f110d7","","","","","","","","","","","","","","","","","","","","","","","","317.00962490425155","393.99728684350833","2727","","","","","","","","","","","","",""
"","","","","","html-keyboard-response","114","508431","0.0-13.0-1.11","571cea664ca277001153c045","64d3ef96556dbe1f0e02b5aa","64da90a6688be4e4d3f110d7","","","","","","","","","","","","","","","","","","reconstruct","","","","","","317.00962490425155","393.99728684350833","2727","","","","","","","","","","48","3","500","250"
"","","","","","html-keyboard-response","115","511442","0.0-13.0-0.12","571cea664ca277001153c045","64d3ef96556dbe1f0e02b5aa","64da90a6688be4e4d3f110d7","","null","","","","","","","","","","","","","null","","","fallScene","","","","","","","","","","","","true","61.96312899999938","604.4000000000001","575.4211431702997","266.76","12","49","","",""
"","","","","","html-keyboard-response","116","514669","0.0-13.0-1.12","571cea664ca277001153c045","64d3ef96556dbe1f0e02b5aa","64da90a6688be4e4d3f110d7","","","","","","","","","","","","","","","","","","","","","","","","407.00001373612463","370.0099999905659","3225.5","","","","","","","","","","","","",""
"","","","","","html-keyboard-response","116","514669","0.0-13.0-1.12","571cea664ca277001153c045","64d3ef96556dbe1f0e02b5aa","64da90a6688be4e4d3f110d7","","","","","","","","","","","","","","","","","","reconstruct","","","","","","407.00001373612463","370.0099999905659","3225.5","","","","","","","","","","49","5","625","250"
"","","","","","html-keyboard-response","117","517676","0.0-13.0-0.13","571cea664ca277001153c045","64d3ef96556dbe1f0e02b5aa","64da90a6688be4e4d3f110d7","","null","","","","","","","","","","","","","null","","","fallScene","","","","","","","","","","","","true","60.93870000000111","322.3","356.42114317029973","357.87","4","50","","",""
"","","","","","html-keyboard-response","118","520528","0.0-13.0-1.13","571cea664ca277001153c045","64d3ef96556dbe1f0e02b5aa","64da90a6688be4e4d3f110d7","","","","","","","","","","","","","","","","","","","","","","","","645.9948578758875","367.99142337131434","2851.100000023842","","","","","","","","","","","","",""
"","","","","","html-keyboard-response","118","520528","0.0-13.0-1.13","571cea664ca277001153c045","64d3ef96556dbe1f0e02b5aa","64da90a6688be4e4d3f110d7","","","","","","","","","","","","","","","","","","reconstruct","","","","","","645.9948578758875","367.99142337131434","2851.100000023842","","","","","","","","","","50","1","375","250"
"","","","","","html-keyboard-response","119","523537","0.0-13.0-0.14","571cea664ca277001153c045","64d3ef96556dbe1f0e02b5aa","64da90a6688be4e4d3f110d7","","null","","","","","","","","","","","","","null","","","fallScene","","","","","","","","","","","","false","61.96813099999906","500","510.8711431702997","369.03","8","51","","",""
"","","","","","html-keyboard-response","120","527026","0.0-13.0-1.14","571cea664ca277001153c045","64d3ef96556dbe1f0e02b5aa","64da90a6688be4e4d3f110d7","","","","","","","","","","","","","","","","","","","","","","","","437.01","349","3488","","","","","","","","","","","","",""
"","","","","","html-keyboard-response","120","527027","0.0-13.0-1.14","571cea664ca277001153c045","64d3ef96556dbe1f0e02b5aa","64da90a6688be4e4d3f110d7","","","","","","","","","","","","","","","","","","reconstruct","","","","","","437.01","349","3488","","","","","","","","","","51","6","625","350"
"","","","","","html-keyboard-response","121","530035","0.0-13.0-0.15","571cea664ca277001153c045","64d3ef96556dbe1f0e02b5aa","64da90a6688be4e4d3f110d7","","null","","","","","","","","","","","","","null","","","fallScene","","","","","","","","","","","","true","59.94063699999825","604.4000000000001","667.6211431702998","201.78","9","52","","",""
"","","","","","html-keyboard-response","122","532830","0.0-13.0-1.15","571cea664ca277001153c045","64d3ef96556dbe1f0e02b5aa","64da90a6688be4e4d3f110d7","","","","","","","","","","","","","","","","","","","","","","","","371.9997851994826","377.9900023072293","2793.800000011921","","","","","","","","","","","","",""
"","","","","","html-keyboard-response","122","532830","0.0-13.0-1.15","571cea664ca277001153c045","64d3ef96556dbe1f0e02b5aa","64da90a6688be4e4d3f110d7","","","","","","","","","","","","","","","","","","reconstruct","","","","","","371.9997851994826","377.9900023072293","2793.800000011921","","","","","","","","","","52","3","500","250"
"","","","","","html-keyboard-response","123","535837","0.0-13.0-0.16","571cea664ca277001153c045","64d3ef96556dbe1f0e02b5aa","64da90a6688be4e4d3f110d7","","null","","","","","","","","","","","","","null","","","fallScene","","","","","","","","","","","","false","58.91837200000184","322.3","308.07114317029976","253.89","2","53","","",""
"","","","","","html-keyboard-response","124","539251","0.0-13.0-1.16","571cea664ca277001153c045","64d3ef96556dbe1f0e02b5aa","64da90a6688be4e4d3f110d7","","","","","","","","","","","","","","","","","","","","","","","","341.99000011417365","373.99995221444","3414","","","","","","","","","","","","",""
"","","","","","html-keyboard-response","124","539251","0.0-13.0-1.16","571cea664ca277001153c045","64d3ef96556dbe1f0e02b5aa","64da90a6688be4e4d3f110d7","","","","","","","","","","","","","","","","","","reconstruct","","","","","","341.99000011417365","373.99995221444","3414","","","","","","","","","","53","6","625","350"
"","","","","","html-keyboard-response","125","542260","0.0-13.0-0.17","571cea664ca277001153c045","64d3ef96556dbe1f0e02b5aa","64da90a6688be4e4d3f110d7","","null","","","","","","","","","","","","","null","","","fallScene","","","","","","","","","","","","false","57.9001440000009","322.3","379.3711431702997","245.25","1","54","","",""
"","","","","","html-keyboard-response","126","544814","0.0-13.0-1.17","571cea664ca277001153c045","64d3ef96556dbe1f0e02b5aa","64da90a6688be4e4d3f110d7","","","","","","","","","","","","","","","","","","","","","","","","339.008900177875","365.99544074196893","2553.7000000476837","","","","","","","","","","","","",""
"","","","","","html-keyboard-response","126","544814","0.0-13.0-1.17","571cea664ca277001153c045","64d3ef96556dbe1f0e02b5aa","64da90a6688be4e4d3f110d7","","","","","","","","","","","","","","","","","","reconstruct","","","","","","339.008900177875","365.99544074196893","2553.7000000476837","","","","","","","","","","54","3","500","250"
"","","","","","html-button-response","127","547049","0.0-14.0","571cea664ca277001153c045","64d3ef96556dbe1f0e02b5aa","64da90a6688be4e4d3f110d7","","2233","","","","","","","","","","","","","0","","","","<p><span style = ""font-size:40px;"">BREAK</span></p><p>You are almost done! Click 'Next' when you are ready for the next set.</p>","","","","","","","","","","","","","","","","","","","",""
"","","","","","html-keyboard-response","128","550052","0.0-15.0-0.0","571cea664ca277001153c045","64d3ef96556dbe1f0e02b5aa","64da90a6688be4e4d3f110d7","","null","","","","","","","","","","","","","null","","","fallScene","","","","","","","","","","","","false","57.89946000000159","322.3","379.3711431702997","245.25","1","55","","",""
"","","","","","html-keyboard-response","129","552346","0.0-15.0-1.0","571cea664ca277001153c045","64d3ef96556dbe1f0e02b5aa","64da90a6688be4e4d3f110d7","","","","","","","","","","","","","","","","","","","","","","","","365.0000058055243","338.0099999983148","2293.2999999523163","","","","","","","","","","","","",""
"","","","","","html-keyboard-response","129","552346","0.0-15.0-1.0","571cea664ca277001153c045","64d3ef96556dbe1f0e02b5aa","64da90a6688be4e4d3f110d7","","","","","","","","","","","","","","","","","","reconstruct","","","","","","365.0000058055243","338.0099999983148","2293.2999999523163","","","","","","","","","","55","2","375","350"
"","","","","","html-keyboard-response","130","555355","0.0-15.0-0.1","571cea664ca277001153c045","64d3ef96556dbe1f0e02b5aa","64da90a6688be4e4d3f110d7","","null","","","","","","","","","","","","","null","","","fallScene","","","","","","","","","","","","true","56.8834000000013","604.4000000000001","596.8711431702998","394.5","10","56","","",""
"","","","","","html-keyboard-response","131","558038","0.0-15.0-1.1","571cea664ca277001153c045","64d3ef96556dbe1f0e02b5aa","64da90a6688be4e4d3f110d7","","","","","","","","","","","","","","","","","","","","","","","","414.01","348.0000000000009","2682.099999964237","","","","","","","","","","","","",""
"","","","","","html-keyboard-response","131","558038","0.0-15.0-1.1","571cea664ca277001153c045","64d3ef96556dbe1f0e02b5aa","64da90a6688be4e4d3f110d7","","","","","","","","","","","","","","","","","","reconstruct","","","","","","414.01","348.0000000000009","2682.099999964237","","","","","","","","","","56","6","625","350"
"","","","","","html-keyboard-response","132","561044","0.0-15.0-0.2","571cea664ca277001153c045","64d3ef96556dbe1f0e02b5aa","64da90a6688be4e4d3f110d7","","null","","","","","","","","","","","","","null","","","fallScene","","","","","","","","","","","","true","54.850985999997945","604.4000000000001","575.4211431702997","266.76","12","57","","",""
"","","","","","html-keyboard-response","133","563068","0.0-15.0-1.2","571cea664ca277001153c045","64d3ef96556dbe1f0e02b5aa","64da90a6688be4e4d3f110d7","","","","","","","","","","","","","","","","","","","","","","","","410.99004882985656","357.0009870221765","2023.800000011921","","","","","","","","","","","","",""
"","","","","","html-keyboard-response","133","563068","0.0-15.0-1.2","571cea664ca277001153c045","64d3ef96556dbe1f0e02b5aa","64da90a6688be4e4d3f110d7","","","","","","","","","","","","","","","","","","reconstruct","","","","","","410.99004882985656","357.0009870221765","2023.800000011921","","","","","","","","","","57","6","625","350"
"","","","","","html-keyboard-response","134","566079","0.0-15.0-0.3","571cea664ca277001153c045","64d3ef96556dbe1f0e02b5aa","64da90a6688be4e4d3f110d7","","null","","","","","","","","","","","","","null","","","fallScene","","","","","","","","","","","","true","52.81915599999531","500","453.67114317029973","210.33","5","58","","",""
"","","","","","html-keyboard-response","135","569987","0.0-15.0-1.3","571cea664ca277001153c045","64d3ef96556dbe1f0e02b5aa","64da90a6688be4e4d3f110d7","","","","","","","","","","","","","","","","","","","","","","","","454.99999642586135","340.9900000006387","3907.199999988079","","","","","","","","","","","","",""
"","","","","","html-keyboard-response","135","569987","0.0-15.0-1.3","571cea664ca277001153c045","64d3ef96556dbe1f0e02b5aa","64da90a6688be4e4d3f110d7","","","","","","","","","","","","","","","","","","reconstruct","","","","","","454.99999642586135","340.9900000006387","3907.199999988079","","","","","","","","","","58","1","375","250"
"","","","","","html-keyboard-response","136","572992","0.0-15.0-0.4","571cea664ca277001153c045","64d3ef96556dbe1f0e02b5aa","64da90a6688be4e4d3f110d7","","null","","","","","","","","","","","","","null","","","fallScene","","","","","","","","","","","","true","54.71884299999906","500","453.67114317029973","210.33","5","59","","",""
"","","","","","html-keyboard-response","137","576917","0.0-15.0-1.4","571cea664ca277001153c045","64d3ef96556dbe1f0e02b5aa","64da90a6688be4e4d3f110d7","","","","","","","","","","","","","","","","","","","","","","","","495.0047352718528","365.9911922079679","3924","","","","","","","","","","","","",""
"","","","","","html-keyboard-response","137","576917","0.0-15.0-1.4","571cea664ca277001153c045","64d3ef96556dbe1f0e02b5aa","64da90a6688be4e4d3f110d7","","","","","","","","","","","","","","","","","","reconstruct","","","","","","495.0047352718528","365.9911922079679","3924","","","","","","","","","","59","3","500","250"
"","","","","","html-keyboard-response","138","579932","0.0-15.0-0.5","571cea664ca277001153c045","64d3ef96556dbe1f0e02b5aa","64da90a6688be4e4d3f110d7","","null","","","","","","","","","","","","","null","","","fallScene","","","","","","","","","","","","true","50.787349999998696","500","479.92114317029973","330.87","6","60","","",""
"","","","","","html-keyboard-response","139","582492","0.0-15.0-1.5","571cea664ca277001153c045","64d3ef96556dbe1f0e02b5aa","64da90a6688be4e4d3f110d7","","","","","","","","","","","","","","","","","","","","","","","","484.00000511327994","365.9900000013073","2559.400000035763","","","","","","","","","","","","",""
"","","","","","html-keyboard-response","139","582492","0.0-15.0-1.5","571cea664ca277001153c045","64d3ef96556dbe1f0e02b5aa","64da90a6688be4e4d3f110d7","","","","","","","","","","","","","","","","","","reconstruct","","","","","","484.00000511327994","365.9900000013073","2559.400000035763","","","","","","","","","","60","5","625","250"
"","","","","","html-keyboard-response","140","585500","0.0-15.0-0.6","571cea664ca277001153c045","64d3ef96556dbe1f0e02b5aa","64da90a6688be4e4d3f110d7","","null","","","","","","","","","","","","","null","","","fallScene","","","","","","","","","","","","true","51.80340300000133","500","510.8711431702997","369.03","8","61","","",""
"","","","","","html-keyboard-response","141","588789","0.0-15.0-1.6","571cea664ca277001153c045","64d3ef96556dbe1f0e02b5aa","64da90a6688be4e4d3f110d7","","","","","","","","","","","","","","","","","","","","","","","","522.0099626235179","332.99913621030385","3287.900000035763","","","","","","","","","","","","",""
"","","","","","html-keyboard-response","141","588789","0.0-15.0-1.6","571cea664ca277001153c045","64d3ef96556dbe1f0e02b5aa","64da90a6688be4e4d3f110d7","","","","","","","","","","","","","","","","","","reconstruct","","","","","","522.0099626235179","332.99913621030385","3287.900000035763","","","","","","","","","","61","1","375","250"
"","","","","","html-keyboard-response","142","591795","0.0-15.0-0.7","571cea664ca277001153c045","64d3ef96556dbe1f0e02b5aa","64da90a6688be4e4d3f110d7","","null","","","","","","","","","","","","","null","","","fallScene","","","","","","","","","","","","false","50.7935999999987","500","479.92114317029973","330.87","6","62","","",""
"","","","","","html-keyboard-response","143","594158","0.0-15.0-1.7","571cea664ca277001153c045","64d3ef96556dbe1f0e02b5aa","64da90a6688be4e4d3f110d7","","","","","","","","","","","","","","","","","","","","","","","","495.99997787976724","313.00999997553475","2362.5","","","","","","","","","","","","",""
"","","","","","html-keyboard-response","143","594158","0.0-15.0-1.7","571cea664ca277001153c045","64d3ef96556dbe1f0e02b5aa","64da90a6688be4e4d3f110d7","","","","","","","","","","","","","","","","","","reconstruct","","","","","","495.99997787976724","313.00999997553475","2362.5","","","","","","","","","","62","2","375","350"
"","","","","","html-keyboard-response","144","597164","0.0-15.0-0.8","571cea664ca277001153c045","64d3ef96556dbe1f0e02b5aa","64da90a6688be4e4d3f110d7","","null","","","","","","","","","","","","","null","","","fallScene","","","","","","","","","","","","true","48.75292799999937","604.4000000000001","596.8711431702998","394.5","10","63","","",""
"","","","","","html-keyboard-response","145","600090","0.0-15.0-1.8","571cea664ca277001153c045","64d3ef96556dbe1f0e02b5aa","64da90a6688be4e4d3f110d7","","","","","","","","","","","","","","","","","","","","","","","","432.0001193432153","325.0099992878345","2925","","","","","","","","","","","","",""
"","","","","","html-keyboard-response","145","600090","0.0-15.0-1.8","571cea664ca277001153c045","64d3ef96556dbe1f0e02b5aa","64da90a6688be4e4d3f110d7","","","","","","","","","","","","","","","","","","reconstruct","","","","","","432.0001193432153","325.0099992878345","2925","","","","","","","","","","63","2","375","350"
"","","","","","html-keyboard-response","146","603098","0.0-15.0-0.9","571cea664ca277001153c045","64d3ef96556dbe1f0e02b5aa","64da90a6688be4e4d3f110d7","","null","","","","","","","","","","","","","null","","","fallScene","","","","","","","","","","","","false","46.72270600000047","500","553.4711431702997","282.51","7","64","","",""
"","","","","","html-keyboard-response","147","605663","0.0-15.0-1.9","571cea664ca277001153c045","64d3ef96556dbe1f0e02b5aa","64da90a6688be4e4d3f110d7","","","","","","","","","","","","","","","","","","","","","","","","499.0098699111128","319.0016077483092","2564.300000011921","","","","","","","","","","","","",""
"","","","","","html-keyboard-response","147","605664","0.0-15.0-1.9","571cea664ca277001153c045","64d3ef96556dbe1f0e02b5aa","64da90a6688be4e4d3f110d7","","","","","","","","","","","","","","","","","","reconstruct","","","","","","499.0098699111128","319.0016077483092","2564.300000011921","","","","","","","","","","64","5","625","250"
"","","","","","html-keyboard-response","148","608674","0.0-15.0-0.10","571cea664ca277001153c045","64d3ef96556dbe1f0e02b5aa","64da90a6688be4e4d3f110d7","","null","","","","","","","","","","","","","null","","","fallScene","","","","","","","","","","","","false","46.72523599999747","500","479.92114317029973","330.87","6","65","","",""
"","","","","","html-keyboard-response","149","611541","0.0-15.0-1.10","571cea664ca277001153c045","64d3ef96556dbe1f0e02b5aa","64da90a6688be4e4d3f110d7","","","","","","","","","","","","","","","","","","","","","","","","482.01","338","2866.300000011921","","","","","","","","","","","","",""
"","","","","","html-keyboard-response","149","611541","0.0-15.0-1.10","571cea664ca277001153c045","64d3ef96556dbe1f0e02b5aa","64da90a6688be4e4d3f110d7","","","","","","","","","","","","","","","","","","reconstruct","","","","","","482.01","338","2866.300000011921","","","","","","","","","","65","6","625","350"
"","","","","","html-keyboard-response","150","614548","0.0-15.0-0.11","571cea664ca277001153c045","64d3ef96556dbe1f0e02b5aa","64da90a6688be4e4d3f110d7","","null","","","","","","","","","","","","","null","","","fallScene","","","","","","","","","","","","true","48.75657599999941","322.3","296.07114317029976","371.46","3","66","","",""
"","","","","","html-keyboard-response","151","617062","0.0-15.0-1.11","571cea664ca277001153c045","64d3ef96556dbe1f0e02b5aa","64da90a6688be4e4d3f110d7","","","","","","","","","","","","","","","","","","","","","","","","672.9928940147013","383.9929640229581","2513.399999976158","","","","","","","","","","","","",""
"","","","","","html-keyboard-response","151","617062","0.0-15.0-1.11","571cea664ca277001153c045","64d3ef96556dbe1f0e02b5aa","64da90a6688be4e4d3f110d7","","","","","","","","","","","","","","","","","","reconstruct","","","","","","672.9928940147013","383.9929640229581","2513.399999976158","","","","","","","","","","66","2","375","350"
"","","","","","html-keyboard-response","152","620067","0.0-15.0-0.12","571cea664ca277001153c045","64d3ef96556dbe1f0e02b5aa","64da90a6688be4e4d3f110d7","","null","","","","","","","","","","","","","null","","","fallScene","","","","","","","","","","","","true","45.71401499999862","322.3","356.42114317029973","357.87","4","67","","",""
"","","","","","html-keyboard-response","153","625071","0.0-15.0-1.12","571cea664ca277001153c045","64d3ef96556dbe1f0e02b5aa","64da90a6688be4e4d3f110d7","","","","","","","","","","","","","","","","","","","","","","","","651.99","380","5003","","","","","","","","","","","","",""
"","","","","","html-keyboard-response","153","625071","0.0-15.0-1.12","571cea664ca277001153c045","64d3ef96556dbe1f0e02b5aa","64da90a6688be4e4d3f110d7","","","","","","","","","","","","","","","","","","reconstruct","","","","","","651.99","380","5003","","","","","","","","","","67","5","625","250"
"","","","","","html-keyboard-response","154","628076","0.0-15.0-0.13","571cea664ca277001153c045","64d3ef96556dbe1f0e02b5aa","64da90a6688be4e4d3f110d7","","null","","","","","","","","","","","","","null","","","fallScene","","","","","","","","","","","","false","47.495183999998034","500","479.92114317029973","330.87","6","68","","",""
"","","","","","html-keyboard-response","155","630900","0.0-15.0-1.13","571cea664ca277001153c045","64d3ef96556dbe1f0e02b5aa","64da90a6688be4e4d3f110d7","","","","","","","","","","","","","","","","","","","","","","","","482.0099880527624","352.9995113262699","2823.7999999523163","","","","","","","","","","","","",""
"","","","","","html-keyboard-response","155","630900","0.0-15.0-1.13","571cea664ca277001153c045","64d3ef96556dbe1f0e02b5aa","64da90a6688be4e4d3f110d7","","","","","","","","","","","","","","","","","","reconstruct","","","","","","482.0099880527624","352.9995113262699","2823.7999999523163","","","","","","","","","","68","3","500","250"
"","","","","","html-keyboard-response","156","633906","0.0-15.0-0.14","571cea664ca277001153c045","64d3ef96556dbe1f0e02b5aa","64da90a6688be4e4d3f110d7","","null","","","","","","","","","","","","","null","","","fallScene","","","","","","","","","","","","false","44.6932200000002","500","553.4711431702997","282.51","7","69","","",""
"","","","","","html-keyboard-response","157","636452","0.0-15.0-1.14","571cea664ca277001153c045","64d3ef96556dbe1f0e02b5aa","64da90a6688be4e4d3f110d7","","","","","","","","","","","","","","","","","","","","","","","","520.0073583685122","335.00677158864954","2545.600000023842","","","","","","","","","","","","",""
"","","","","","html-keyboard-response","157","636452","0.0-15.0-1.14","571cea664ca277001153c045","64d3ef96556dbe1f0e02b5aa","64da90a6688be4e4d3f110d7","","","","","","","","","","","","","","","","","","reconstruct","","","","","","520.0073583685122","335.00677158864954","2545.600000023842","","","","","","","","","","69","6","625","350"
"","","","","","html-keyboard-response","158","639457","0.0-15.0-0.15","571cea664ca277001153c045","64d3ef96556dbe1f0e02b5aa","64da90a6688be4e4d3f110d7","","null","","","","","","","","","","","","","null","","","fallScene","","","","","","","","","","","","true","45.42595199999725","500","510.8711431702997","369.03","8","70","","",""
"","","","","","html-keyboard-response","159","642752","0.0-15.0-1.15","571cea664ca277001153c045","64d3ef96556dbe1f0e02b5aa","64da90a6688be4e4d3f110d7","","","","","","","","","","","","","","","","","","","","","","","","481.0000999793119","345.0099995001944","3293.800000011921","","","","","","","","","","","","",""
"","","","","","html-keyboard-response","159","642752","0.0-15.0-1.15","571cea664ca277001153c045","64d3ef96556dbe1f0e02b5aa","64da90a6688be4e4d3f110d7","","","","","","","","","","","","","","","","","","reconstruct","","","","","","481.0000999793119","345.0099995001944","3293.800000011921","","","","","","","","","","70","3","500","250"
"","","","","","html-keyboard-response","160","645761","0.0-15.0-0.16","571cea664ca277001153c045","64d3ef96556dbe1f0e02b5aa","64da90a6688be4e4d3f110d7","","null","","","","","","","","","","","","","null","","","fallScene","","","","","","","","","","","","true","45.714419999996906","604.4000000000001","596.8711431702998","394.5","10","71","","",""
"","","","","","html-keyboard-response","161","648735","0.0-15.0-1.16","571cea664ca277001153c045","64d3ef96556dbe1f0e02b5aa","64da90a6688be4e4d3f110d7","","","","","","","","","","","","","","","","","","","","","","","","382.000000332209","340.0099999999945","2973.800000011921","","","","","","","","","","","","",""
"","","","","","html-keyboard-response","161","648735","0.0-15.0-1.16","571cea664ca277001153c045","64d3ef96556dbe1f0e02b5aa","64da90a6688be4e4d3f110d7","","","","","","","","","","","","","","","","","","reconstruct","","","","","","382.000000332209","340.0099999999945","2973.800000011921","","","","","","","","","","71","1","375","250"
"","","","","","html-keyboard-response","162","651741","0.0-15.0-0.17","571cea664ca277001153c045","64d3ef96556dbe1f0e02b5aa","64da90a6688be4e4d3f110d7","","null","","","","","","","","","","","","","null","","","fallScene","","","","","","","","","","","","true","42.65818199999886","604.4000000000001","650.0211431702996","404.58000000000004","11","72","","",""
"","","","","","html-keyboard-response","163","654710","0.0-15.0-1.17","571cea664ca277001153c045","64d3ef96556dbe1f0e02b5aa","64da90a6688be4e4d3f110d7","","","","","","","","","","","","","","","","","","","","","","","","341.9900000000373","340.00000086351025","2966.699999988079","","","","","","","","","","","","",""
"","","","","","html-keyboard-response","163","654710","0.0-15.0-1.17","571cea664ca277001153c045","64d3ef96556dbe1f0e02b5aa","64da90a6688be4e4d3f110d7","","","","","","","","","","","","","","","","","","reconstruct","","","","","","341.9900000000373","340.00000086351025","2966.699999988079","","","","","","","","","","72","2","375","350"
"","","","","","survey-text","164","671553","0.0-16.0","571cea664ca277001153c045","64d3ef96556dbe1f0e02b5aa","64da90a6688be4e4d3f110d7","","16837","","","","","","","","","","","","","{""Summary"":""I tried to imagine where it was the ball hit the triangle behind the grey box""}","","","","","","","","","","","","","","","","","","","","","","","",""
"","","","","","survey-text","165","688288","0.0-17.0","571cea664ca277001153c045","64d3ef96556dbe1f0e02b5aa","64da90a6688be4e4d3f110d7","","16728","","","","","","","","","","","","","{""Comments"":""This was fun. Wish I could see how well I did! ""}","","","","","","","","","","","","","","","","","","","","","","","",""
