"success","timeout","failed_images","failed_audio","failed_video","trial_type","trial_index","time_elapsed","internal_node_id","subject_id","study_id","session_id","view_history","rt","width","height","webaudio","browser","browser_version","mobile","os","fullscreen","vsync_rate","webcam","microphone","url","response","triangle_prac_final_x","triangle_prac_final_y","trial_name","stimulus","ball_X_prac_occ","ball_Y_prac_occ","obstacle_X_prac_occ","obstacle_Y_prac_occ","triangle_final_x","triangle_final_y","response_time","obstacle_X_prac_occ_init","obstacle_Y_prac_occ_init","question_order","flipped","runnerFPS","ball_X","obstacle_groundTruth_x","obstacle_groundTruth_y","stimulus_idx","currentTrial","obstacle_idx","obstacle_initial_x","obstacle_initial_y"
"true","false","[]","[]","[]","preload","0","83","0.0-0.0","576ad50bc8a90000010d99c8","64d3ef96556dbe1f0e02b5aa","64db812c9b3a799113a8f7d6","","","","","","","","","","","","","","","","","","","","","","","","","","","","","","","","","","","","","","",""
"","","","","","instructions","1","25692","0.0-1.0","576ad50bc8a90000010d99c8","64d3ef96556dbe1f0e02b5aa","64db812c9b3a799113a8f7d6","[{""page_index"":0,""viewing_time"":25608}]","25609","","","","","","","","","","","","","","","","","","","","","","","","","","","","","","","","","","","","",""
"","","","","","browser-check","2","26686","0.0-2.0","576ad50bc8a90000010d99c8","64d3ef96556dbe1f0e02b5aa","64db812c9b3a799113a8f7d6","","","1745","846","true","chrome","115.0.0","false","Windows 10","true","60.59","false","false","","","","","","","","","","","","","","","","","","","","","","","","","",""
"","","","","","external-html","3","42130","0.0-3.0","576ad50bc8a90000010d99c8","64d3ef96556dbe1f0e02b5aa","64db812c9b3a799113a8f7d6","","15383","","","","","","","","","","","","consent.html","","","","","","","","","","","","","","","","","","","","","","","","",""
"true","","","","","fullscreen","4","48643","0.0-4.0","576ad50bc8a90000010d99c8","64d3ef96556dbe1f0e02b5aa","64db812c9b3a799113a8f7d6","","6011","","","","","","","","","","","","","","","","","","","","","","","","","","","","","","","","","","","","",""
"","","","","","survey-text","5","52327","0.0-5.0","576ad50bc8a90000010d99c8","64d3ef96556dbe1f0e02b5aa","64db812c9b3a799113a8f7d6","","3681","","","","","","","","","","","","","{""prolificID"":""576ad50bc8a90000010d99c8""}","","","","","","","","","","","","","","","","","","","","","","","",""
"","","","","","browser-check","6","53320","0.0-6.0","576ad50bc8a90000010d99c8","64d3ef96556dbe1f0e02b5aa","64db812c9b3a799113a8f7d6","","","1745","982","true","chrome","115.0.0","false","Windows 10","true","60.45","false","false","","","","","","","","","","","","","","","","","","","","","","","","","",""
"","","","","","instructions","7","104493","0.0-7.0-0.0-0.0","576ad50bc8a90000010d99c8","64d3ef96556dbe1f0e02b5aa","64db812c9b3a799113a8f7d6","[{""page_index"":0,""viewing_time"":18163},{""page_index"":1,""viewing_time"":12708},{""page_index"":2,""viewing_time"":10164},{""page_index"":3,""viewing_time"":10136}]","51172","","","","","","","","","","","","","","","","","","","","","","","","","","","","","","","","","","","","",""
"","","","","","html-keyboard-response","8","118638","0.0-7.0-0.0-1.0","576ad50bc8a90000010d99c8","64d3ef96556dbe1f0e02b5aa","64db812c9b3a799113a8f7d6","","","","","","","","","","","","","","","","548.0000000030337","351.01","","","","","","","","","","","","","","","","","","","","","",""
"","","","","","html-keyboard-response","8","118638","0.0-7.0-0.0-1.0","576ad50bc8a90000010d99c8","64d3ef96556dbe1f0e02b5aa","64db812c9b3a799113a8f7d6","","","","","","","","","","","","","","","","","","practiceTrial_move","","","","","","","","","","","","","","","","","","","","",""
"","","","","","html-button-response","9","123577","0.0-7.0-0.0-2.0","576ad50bc8a90000010d99c8","64d3ef96556dbe1f0e02b5aa","64db812c9b3a799113a8f7d6","","4936","","","","","","","","","","","","","0","","","","<p>To help you get more comfortable with the task, let's begin with a practice trial first!</p><p>As described previously, you will first see a video of a ball falling, some of it behind a gray screen.</p><p>After the video, you will drag a triangle to the spot you think the ball hit the triangle behind the screen.</p><p>Click 'Next' to start your practice trial.</p>","","","","","","","","","","","","","","","","","","","",""
"","","","","","html-keyboard-response","10","126581","0.0-7.0-0.0-3.0","576ad50bc8a90000010d99c8","64d3ef96556dbe1f0e02b5aa","64db812c9b3a799113a8f7d6","","null","","","","","","","","","","","","","null","","","fallScene_practiceTrial_withOccluder","","400","50","420","415","","","","","","","","","","","","","","","",""
"","","","","","html-keyboard-response","11","130182","0.0-7.0-0.0-4.0","576ad50bc8a90000010d99c8","64d3ef96556dbe1f0e02b5aa","64db812c9b3a799113a8f7d6","","","","","","","","","","","","","","","","","","","","","","","","357.0059129463687","355.99193544389067","3600.199999988079","","","","","","","","","","","","",""
"","","","","","html-keyboard-response","11","130182","0.0-7.0-0.0-4.0","576ad50bc8a90000010d99c8","64d3ef96556dbe1f0e02b5aa","64db812c9b3a799113a8f7d6","","","","","","","","","","","","","","","","","","reconstruct_practiceTrial_withOccluder","","","","","","357.0059129463687","355.99193544389067","3600.199999988079","500","300","","","","","","","","","","",""
"","","","","","html-button-response","12","135360","0.0-7.0-0.0-5.0","576ad50bc8a90000010d99c8","64d3ef96556dbe1f0e02b5aa","64db812c9b3a799113a8f7d6","","5177","","","","","","","","","","","","","1","","","","<p>Ok! We're almost ready to get started.</p><p>We just have a <b>brief quiz</b>, to make sure you understood the task.</p><p>If you need to review the instructions, click 'Previous'.</p><p>It's important to understand the task to do the study, so you have to pass the quiz to move to the study.</p>","","","","","","","","","","","","","","","","","","","",""
"","","","","","survey-multi-choice","13","145371","0.0-7.0-1.0-0.0","576ad50bc8a90000010d99c8","64d3ef96556dbe1f0e02b5aa","64db812c9b3a799113a8f7d6","","10009","","","","","","","","","","","","","{""generalProcedure"":""Watch a video of a ball falling, some of it behind a gray screen. After each video, drag a triangle to where I think the ball hit the triangle behind the screen.""}","","","","","","","","","","","","","","[0]","","","","","","","","","",""
"","","","","","survey-multi-choice","14","150754","0.0-7.0-1.0-1.0","576ad50bc8a90000010d99c8","64d3ef96556dbe1f0e02b5aa","64db812c9b3a799113a8f7d6","","5381","","","","","","","","","","","","","{""checkBallHitObstacle"":""Yes.""}","","","","","","","","","","","","","","[0]","","","","","","","","","",""
"","","","","","survey-multi-choice","15","153960","0.0-7.0-1.0-2.0","576ad50bc8a90000010d99c8","64d3ef96556dbe1f0e02b5aa","64db812c9b3a799113a8f7d6","","3204","","","","","","","","","","","","","{""checkTriangleVisibility"":""No, the triangle is hidden behind the gray screen.""}","","","","","","","","","","","","","","[0]","","","","","","","","","",""
"","","","","","instructions","16","161480","0.0-8.0","576ad50bc8a90000010d99c8","64d3ef96556dbe1f0e02b5aa","64db812c9b3a799113a8f7d6","[{""page_index"":0,""viewing_time"":7517}]","7517","","","","","","","","","","","","","","","","","","","","","","","","","","","","","","","","","","","","",""
"","","","","","html-keyboard-response","17","164486","0.0-9.0-0.0","576ad50bc8a90000010d99c8","64d3ef96556dbe1f0e02b5aa","64db812c9b3a799113a8f7d6","","null","","","","","","","","","","","","","null","","","fallScene","","","","","","","","","","","","true","60.00239999999962","604.4000000000001","650.0211431702996","404.58000000000004","11","1","","",""
"","","","","","html-keyboard-response","18","167934","0.0-9.0-1.0","576ad50bc8a90000010d99c8","64d3ef96556dbe1f0e02b5aa","64db812c9b3a799113a8f7d6","","","","","","","","","","","","","","","","","","","","","","","","295.01","365.9999999780083","3447.099999964237","","","","","","","","","","","","",""
"","","","","","html-keyboard-response","18","167934","0.0-9.0-1.0","576ad50bc8a90000010d99c8","64d3ef96556dbe1f0e02b5aa","64db812c9b3a799113a8f7d6","","","","","","","","","","","","","","","","","","reconstruct","","","","","","295.01","365.9999999780083","3447.099999964237","","","","","","","","","","1","3","500","250"
"","","","","","html-keyboard-response","19","170937","0.0-9.0-0.1","576ad50bc8a90000010d99c8","64d3ef96556dbe1f0e02b5aa","64db812c9b3a799113a8f7d6","","null","","","","","","","","","","","","","null","","","fallScene","","","","","","","","","","","","true","62.012173000001376","500","479.92114317029973","330.87","6","2","","",""
"","","","","","html-keyboard-response","20","173854","0.0-9.0-1.1","576ad50bc8a90000010d99c8","64d3ef96556dbe1f0e02b5aa","64db812c9b3a799113a8f7d6","","","","","","","","","","","","","","","","","","","","","","","","535.0009027271844","333.9900408291695","2916.199999988079","","","","","","","","","","","","",""
"","","","","","html-keyboard-response","20","173854","0.0-9.0-1.1","576ad50bc8a90000010d99c8","64d3ef96556dbe1f0e02b5aa","64db812c9b3a799113a8f7d6","","","","","","","","","","","","","","","","","","reconstruct","","","","","","535.0009027271844","333.9900408291695","2916.199999988079","","","","","","","","","","2","3","500","250"
"","","","","","html-keyboard-response","21","176857","0.0-9.0-0.2","576ad50bc8a90000010d99c8","64d3ef96556dbe1f0e02b5aa","64db812c9b3a799113a8f7d6","","null","","","","","","","","","","","","","null","","","fallScene","","","","","","","","","","","","true","61.99747200000082","322.3","356.42114317029973","357.87","4","3","","",""
"","","","","","html-keyboard-response","22","180564","0.0-9.0-1.2","576ad50bc8a90000010d99c8","64d3ef96556dbe1f0e02b5aa","64db812c9b3a799113a8f7d6","","","","","","","","","","","","","","","","","","","","","","","","637.9964659104505","323.0093546892549","3706.600000023842","","","","","","","","","","","","",""
"","","","","","html-keyboard-response","22","180564","0.0-9.0-1.2","576ad50bc8a90000010d99c8","64d3ef96556dbe1f0e02b5aa","64db812c9b3a799113a8f7d6","","","","","","","","","","","","","","","","","","reconstruct","","","","","","637.9964659104505","323.0093546892549","3706.600000023842","","","","","","","","","","3","5","625","250"
"","","","","","html-keyboard-response","23","183567","0.0-9.0-0.3","576ad50bc8a90000010d99c8","64d3ef96556dbe1f0e02b5aa","64db812c9b3a799113a8f7d6","","null","","","","","","","","","","","","","null","","","fallScene","","","","","","","","","","","","false","60","500","553.4711431702997","282.51","7","4","","",""
"","","","","","html-keyboard-response","24","186550","0.0-9.0-1.3","576ad50bc8a90000010d99c8","64d3ef96556dbe1f0e02b5aa","64db812c9b3a799113a8f7d6","","","","","","","","","","","","","","","","","","","","","","","","497.99281569807795","341.99304400935216","2982.399999976158","","","","","","","","","","","","",""
"","","","","","html-keyboard-response","24","186550","0.0-9.0-1.3","576ad50bc8a90000010d99c8","64d3ef96556dbe1f0e02b5aa","64db812c9b3a799113a8f7d6","","","","","","","","","","","","","","","","","","reconstruct","","","","","","497.99281569807795","341.99304400935216","2982.399999976158","","","","","","","","","","4","3","500","250"
"","","","","","html-keyboard-response","25","189552","0.0-9.0-0.4","576ad50bc8a90000010d99c8","64d3ef96556dbe1f0e02b5aa","64db812c9b3a799113a8f7d6","","null","","","","","","","","","","","","","null","","","fallScene","","","","","","","","","","","","false","62.01680899999966","322.3","308.07114317029976","253.89","2","5","","",""
"","","","","","html-keyboard-response","26","195602","0.0-9.0-1.4","576ad50bc8a90000010d99c8","64d3ef96556dbe1f0e02b5aa","64db812c9b3a799113a8f7d6","","","","","","","","","","","","","","","","","","","","","","","","321.00991300783824","302.99868384058755","6049.700000047684","","","","","","","","","","","","",""
"","","","","","html-keyboard-response","26","195602","0.0-9.0-1.4","576ad50bc8a90000010d99c8","64d3ef96556dbe1f0e02b5aa","64db812c9b3a799113a8f7d6","","","","","","","","","","","","","","","","","","reconstruct","","","","","","321.00991300783824","302.99868384058755","6049.700000047684","","","","","","","","","","5","3","500","250"
"","","","","","html-keyboard-response","27","198605","0.0-9.0-0.5","576ad50bc8a90000010d99c8","64d3ef96556dbe1f0e02b5aa","64db812c9b3a799113a8f7d6","","null","","","","","","","","","","","","","null","","","fallScene","","","","","","","","","","","","true","62.01626000000021","322.3","356.42114317029973","357.87","4","6","","",""
"","","","","","html-keyboard-response","28","201489","0.0-9.0-1.5","576ad50bc8a90000010d99c8","64d3ef96556dbe1f0e02b5aa","64db812c9b3a799113a8f7d6","","","","","","","","","","","","","","","","","","","","","","","","650.0012818208568","332.9900824934943","2883.199999988079","","","","","","","","","","","","",""
"","","","","","html-keyboard-response","28","201489","0.0-9.0-1.5","576ad50bc8a90000010d99c8","64d3ef96556dbe1f0e02b5aa","64db812c9b3a799113a8f7d6","","","","","","","","","","","","","","","","","","reconstruct","","","","","","650.0012818208568","332.9900824934943","2883.199999988079","","","","","","","","","","6","1","375","250"
"","","","","","html-keyboard-response","29","204491","0.0-9.0-0.6","576ad50bc8a90000010d99c8","64d3ef96556dbe1f0e02b5aa","64db812c9b3a799113a8f7d6","","null","","","","","","","","","","","","","null","","","fallScene","","","","","","","","","","","","true","62.01650399999938","500","479.92114317029973","330.87","6","7","","",""
"","","","","","html-keyboard-response","30","208431","0.0-9.0-1.6","576ad50bc8a90000010d99c8","64d3ef96556dbe1f0e02b5aa","64db812c9b3a799113a8f7d6","","","","","","","","","","","","","","","","","","","","","","","","430.00932594391696","321.0036092617054","3940.599999964237","","","","","","","","","","","","",""
"","","","","","html-keyboard-response","30","208431","0.0-9.0-1.6","576ad50bc8a90000010d99c8","64d3ef96556dbe1f0e02b5aa","64db812c9b3a799113a8f7d6","","","","","","","","","","","","","","","","","","reconstruct","","","","","","430.00932594391696","321.0036092617054","3940.599999964237","","","","","","","","","","7","1","375","250"
"","","","","","html-keyboard-response","31","211433","0.0-9.0-0.7","576ad50bc8a90000010d99c8","64d3ef96556dbe1f0e02b5aa","64db812c9b3a799113a8f7d6","","null","","","","","","","","","","","","","null","","","fallScene","","","","","","","","","","","","false","61.995946999999404","322.3","356.42114317029973","357.87","4","8","","",""
"","","","","","html-keyboard-response","32","215829","0.0-9.0-1.7","576ad50bc8a90000010d99c8","64d3ef96556dbe1f0e02b5aa","64db812c9b3a799113a8f7d6","","","","","","","","","","","","","","","","","","","","","","","","348.01","313.9999999962656","4395.5","","","","","","","","","","","","",""
"","","","","","html-keyboard-response","32","215829","0.0-9.0-1.7","576ad50bc8a90000010d99c8","64d3ef96556dbe1f0e02b5aa","64db812c9b3a799113a8f7d6","","","","","","","","","","","","","","","","","","reconstruct","","","","","","348.01","313.9999999962656","4395.5","","","","","","","","","","8","4","500","350"
"","","","","","html-keyboard-response","33","218832","0.0-9.0-0.8","576ad50bc8a90000010d99c8","64d3ef96556dbe1f0e02b5aa","64db812c9b3a799113a8f7d6","","null","","","","","","","","","","","","","null","","","fallScene","","","","","","","","","","","","true","60.0009600000002","322.3","379.3711431702997","245.25","1","9","","",""
"","","","","","html-keyboard-response","34","221928","0.0-9.0-1.8","576ad50bc8a90000010d99c8","64d3ef96556dbe1f0e02b5aa","64db812c9b3a799113a8f7d6","","","","","","","","","","","","","","","","","","","","","","","","627.9999999899405","292.01","3095.100000023842","","","","","","","","","","","","",""
"","","","","","html-keyboard-response","34","221928","0.0-9.0-1.8","576ad50bc8a90000010d99c8","64d3ef96556dbe1f0e02b5aa","64db812c9b3a799113a8f7d6","","","","","","","","","","","","","","","","","","reconstruct","","","","","","627.9999999899405","292.01","3095.100000023842","","","","","","","","","","9","2","375","350"
"","","","","","html-keyboard-response","35","224931","0.0-9.0-0.9","576ad50bc8a90000010d99c8","64d3ef96556dbe1f0e02b5aa","64db812c9b3a799113a8f7d6","","null","","","","","","","","","","","","","null","","","fallScene","","","","","","","","","","","","true","61.988383000000525","500","553.4711431702997","282.51","7","10","","",""
"","","","","","html-keyboard-response","36","228937","0.0-9.0-1.9","576ad50bc8a90000010d99c8","64d3ef96556dbe1f0e02b5aa","64db812c9b3a799113a8f7d6","","","","","","","","","","","","","","","","","","","","","","","","471.99000000108373","333.9999953443436","4006.399999976158","","","","","","","","","","","","",""
"","","","","","html-keyboard-response","36","228937","0.0-9.0-1.9","576ad50bc8a90000010d99c8","64d3ef96556dbe1f0e02b5aa","64db812c9b3a799113a8f7d6","","","","","","","","","","","","","","","","","","reconstruct","","","","","","471.99000000108373","333.9999953443436","4006.399999976158","","","","","","","","","","10","5","625","250"
"","","","","","html-keyboard-response","37","231939","0.0-9.0-0.10","576ad50bc8a90000010d99c8","64d3ef96556dbe1f0e02b5aa","64db812c9b3a799113a8f7d6","","null","","","","","","","","","","","","","null","","","fallScene","","","","","","","","","","","","true","60.00197999999975","604.4000000000001","667.6211431702998","201.78","9","11","","",""
"","","","","","html-keyboard-response","38","237528","0.0-9.0-1.10","576ad50bc8a90000010d99c8","64d3ef96556dbe1f0e02b5aa","64db812c9b3a799113a8f7d6","","","","","","","","","","","","","","","","","","","","","","","","371.00117012900006","276.0099313039488","5588.400000035763","","","","","","","","","","","","",""
"","","","","","html-keyboard-response","38","237528","0.0-9.0-1.10","576ad50bc8a90000010d99c8","64d3ef96556dbe1f0e02b5aa","64db812c9b3a799113a8f7d6","","","","","","","","","","","","","","","","","","reconstruct","","","","","","371.00117012900006","276.0099313039488","5588.400000035763","","","","","","","","","","11","1","375","250"
"","","","","","html-keyboard-response","39","240530","0.0-9.0-0.11","576ad50bc8a90000010d99c8","64d3ef96556dbe1f0e02b5aa","64db812c9b3a799113a8f7d6","","null","","","","","","","","","","","","","null","","","fallScene","","","","","","","","","","","","true","60.00342000000004","604.4000000000001","596.8711431702998","394.5","10","12","","",""
"","","","","","html-keyboard-response","40","244605","0.0-9.0-1.11","576ad50bc8a90000010d99c8","64d3ef96556dbe1f0e02b5aa","64db812c9b3a799113a8f7d6","","","","","","","","","","","","","","","","","","","","","","","","398.00999999997856","300.9999993449426","4074.899999976158","","","","","","","","","","","","",""
"","","","","","html-keyboard-response","40","244605","0.0-9.0-1.11","576ad50bc8a90000010d99c8","64d3ef96556dbe1f0e02b5aa","64db812c9b3a799113a8f7d6","","","","","","","","","","","","","","","","","","reconstruct","","","","","","398.00999999997856","300.9999993449426","4074.899999976158","","","","","","","","","","12","4","500","350"
"","","","","","html-keyboard-response","41","247607","0.0-9.0-0.12","576ad50bc8a90000010d99c8","64d3ef96556dbe1f0e02b5aa","64db812c9b3a799113a8f7d6","","null","","","","","","","","","","","","","null","","","fallScene","","","","","","","","","","","","true","60.00288000000059","604.4000000000001","596.8711431702998","394.5","10","13","","",""
"","","","","","html-keyboard-response","42","250899","0.0-9.0-1.12","576ad50bc8a90000010d99c8","64d3ef96556dbe1f0e02b5aa","64db812c9b3a799113a8f7d6","","","","","","","","","","","","","","","","","","","","","","","","375.009991864234","318.0004032978173","3291.600000023842","","","","","","","","","","","","",""
"","","","","","html-keyboard-response","42","250899","0.0-9.0-1.12","576ad50bc8a90000010d99c8","64d3ef96556dbe1f0e02b5aa","64db812c9b3a799113a8f7d6","","","","","","","","","","","","","","","","","","reconstruct","","","","","","375.009991864234","318.0004032978173","3291.600000023842","","","","","","","","","","13","2","375","350"
"","","","","","html-keyboard-response","43","253902","0.0-9.0-0.13","576ad50bc8a90000010d99c8","64d3ef96556dbe1f0e02b5aa","64db812c9b3a799113a8f7d6","","null","","","","","","","","","","","","","null","","","fallScene","","","","","","","","","","","","true","60.00438000000024","500","453.67114317029973","210.33","5","14","","",""
"","","","","","html-keyboard-response","44","257201","0.0-9.0-1.13","576ad50bc8a90000010d99c8","64d3ef96556dbe1f0e02b5aa","64db812c9b3a799113a8f7d6","","","","","","","","","","","","","","","","","","","","","","","","495.99000270434067","316.9997674500067","3299.300000011921","","","","","","","","","","","","",""
"","","","","","html-keyboard-response","44","257201","0.0-9.0-1.13","576ad50bc8a90000010d99c8","64d3ef96556dbe1f0e02b5aa","64db812c9b3a799113a8f7d6","","","","","","","","","","","","","","","","","","reconstruct","","","","","","495.99000270434067","316.9997674500067","3299.300000011921","","","","","","","","","","14","6","625","350"
"","","","","","html-keyboard-response","45","260203","0.0-9.0-0.14","576ad50bc8a90000010d99c8","64d3ef96556dbe1f0e02b5aa","64db812c9b3a799113a8f7d6","","null","","","","","","","","","","","","","null","","","fallScene","","","","","","","","","","","","false","62.013149000001576","322.3","308.07114317029976","253.89","2","15","","",""
"","","","","","html-keyboard-response","46","263377","0.0-9.0-1.14","576ad50bc8a90000010d99c8","64d3ef96556dbe1f0e02b5aa","64db812c9b3a799113a8f7d6","","","","","","","","","","","","","","","","","","","","","","","","332.0099999999891","329.99999953298243","3173.800000011921","","","","","","","","","","","","",""
"","","","","","html-keyboard-response","46","263377","0.0-9.0-1.14","576ad50bc8a90000010d99c8","64d3ef96556dbe1f0e02b5aa","64db812c9b3a799113a8f7d6","","","","","","","","","","","","","","","","","","reconstruct","","","","","","332.0099999999891","329.99999953298243","3173.800000011921","","","","","","","","","","15","4","500","350"
"","","","","","html-keyboard-response","47","266380","0.0-9.0-0.15","576ad50bc8a90000010d99c8","64d3ef96556dbe1f0e02b5aa","64db812c9b3a799113a8f7d6","","null","","","","","","","","","","","","","null","","","fallScene","","","","","","","","","","","","true","60.0039599999995","322.3","308.07114317029976","253.89","2","16","","",""
"","","","","","html-keyboard-response","48","269892","0.0-9.0-1.15","576ad50bc8a90000010d99c8","64d3ef96556dbe1f0e02b5aa","64db812c9b3a799113a8f7d6","","","","","","","","","","","","","","","","","","","","","","","","607.9900004617255","325.9999039047555","3511.300000011921","","","","","","","","","","","","",""
"","","","","","html-keyboard-response","48","269892","0.0-9.0-1.15","576ad50bc8a90000010d99c8","64d3ef96556dbe1f0e02b5aa","64db812c9b3a799113a8f7d6","","","","","","","","","","","","","","","","","","reconstruct","","","","","","607.9900004617255","325.9999039047555","3511.300000011921","","","","","","","","","","16","5","625","250"
"","","","","","html-keyboard-response","49","272895","0.0-9.0-0.16","576ad50bc8a90000010d99c8","64d3ef96556dbe1f0e02b5aa","64db812c9b3a799113a8f7d6","","null","","","","","","","","","","","","","null","","","fallScene","","","","","","","","","","","","false","60.002939999999946","322.3","296.07114317029976","371.46","3","17","","",""
"","","","","","html-keyboard-response","50","277854","0.0-9.0-1.16","576ad50bc8a90000010d99c8","64d3ef96556dbe1f0e02b5aa","64db812c9b3a799113a8f7d6","","","","","","","","","","","","","","","","","","","","","","","","309.9985563726772","397.00989524836234","4958.399999976158","","","","","","","","","","","","",""
"","","","","","html-keyboard-response","50","277854","0.0-9.0-1.16","576ad50bc8a90000010d99c8","64d3ef96556dbe1f0e02b5aa","64db812c9b3a799113a8f7d6","","","","","","","","","","","","","","","","","","reconstruct","","","","","","309.9985563726772","397.00989524836234","4958.399999976158","","","","","","","","","","17","4","500","350"
"","","","","","html-keyboard-response","51","280855","0.0-9.0-0.17","576ad50bc8a90000010d99c8","64d3ef96556dbe1f0e02b5aa","64db812c9b3a799113a8f7d6","","null","","","","","","","","","","","","","null","","","fallScene","","","","","","","","","","","","true","60.00065999999992","500","510.8711431702997","369.03","8","18","","",""
"","","","","","html-keyboard-response","52","284496","0.0-9.0-1.17","576ad50bc8a90000010d99c8","64d3ef96556dbe1f0e02b5aa","64db812c9b3a799113a8f7d6","","","","","","","","","","","","","","","","","","","","","","","","519.0000007098394","341.9900000000252","3640.300000011921","","","","","","","","","","","","",""
"","","","","","html-keyboard-response","52","284496","0.0-9.0-1.17","576ad50bc8a90000010d99c8","64d3ef96556dbe1f0e02b5aa","64db812c9b3a799113a8f7d6","","","","","","","","","","","","","","","","","","reconstruct","","","","","","519.0000007098394","341.9900000000252","3640.300000011921","","","","","","","","","","18","3","500","250"
"","","","","","html-button-response","53","291450","0.0-10.0","576ad50bc8a90000010d99c8","64d3ef96556dbe1f0e02b5aa","64db812c9b3a799113a8f7d6","","6952","","","","","","","","","","","","","0","","","","<p><span style = ""font-size:40px;"">BREAK</span></p><p>You are doing great! Click 'Next' when you are ready for the next set.</p>","","","","","","","","","","","","","","","","","","","",""
"","","","","","html-keyboard-response","54","294451","0.0-11.0-0.0","576ad50bc8a90000010d99c8","64d3ef96556dbe1f0e02b5aa","64db812c9b3a799113a8f7d6","","null","","","","","","","","","","","","","null","","","fallScene","","","","","","","","","","","","false","60.002939999999946","500","453.67114317029973","210.33","5","19","","",""
"","","","","","html-keyboard-response","55","298574","0.0-11.0-1.0","576ad50bc8a90000010d99c8","64d3ef96556dbe1f0e02b5aa","64db812c9b3a799113a8f7d6","","","","","","","","","","","","","","","","","","","","","","","","510.99002813441695","344.00074959775435","4122.300000011921","","","","","","","","","","","","",""
"","","","","","html-keyboard-response","55","298574","0.0-11.0-1.0","576ad50bc8a90000010d99c8","64d3ef96556dbe1f0e02b5aa","64db812c9b3a799113a8f7d6","","","","","","","","","","","","","","","","","","reconstruct","","","","","","510.99002813441695","344.00074959775435","4122.300000011921","","","","","","","","","","19","5","625","250"
"","","","","","html-keyboard-response","56","301576","0.0-11.0-0.1","576ad50bc8a90000010d99c8","64d3ef96556dbe1f0e02b5aa","64db812c9b3a799113a8f7d6","","null","","","","","","","","","","","","","null","","","fallScene","","","","","","","","","","","","true","60.0254999999993","500","553.4711431702997","282.51","7","20","","",""
"","","","","","html-keyboard-response","57","304608","0.0-11.0-1.1","576ad50bc8a90000010d99c8","64d3ef96556dbe1f0e02b5aa","64db812c9b3a799113a8f7d6","","","","","","","","","","","","","","","","","","","","","","","","513.0099999960618","381.9999911250889","3030.800000011921","","","","","","","","","","","","",""
"","","","","","html-keyboard-response","57","304608","0.0-11.0-1.1","576ad50bc8a90000010d99c8","64d3ef96556dbe1f0e02b5aa","64db812c9b3a799113a8f7d6","","","","","","","","","","","","","","","","","","reconstruct","","","","","","513.0099999960618","381.9999911250889","3030.800000011921","","","","","","","","","","20","4","500","350"
"","","","","","html-keyboard-response","58","307609","0.0-11.0-0.2","576ad50bc8a90000010d99c8","64d3ef96556dbe1f0e02b5aa","64db812c9b3a799113a8f7d6","","null","","","","","","","","","","","","","null","","","fallScene","","","","","","","","","","","","true","60.003240000000226","322.3","296.07114317029976","371.46","3","21","","",""
"","","","","","html-keyboard-response","59","312678","0.0-11.0-1.2","576ad50bc8a90000010d99c8","64d3ef96556dbe1f0e02b5aa","64db812c9b3a799113a8f7d6","","","","","","","","","","","","","","","","","","","","","","","","636.99","299.00000000007367","5067.899999976158","","","","","","","","","","","","",""
"","","","","","html-keyboard-response","59","312678","0.0-11.0-1.2","576ad50bc8a90000010d99c8","64d3ef96556dbe1f0e02b5aa","64db812c9b3a799113a8f7d6","","","","","","","","","","","","","","","","","","reconstruct","","","","","","636.99","299.00000000007367","5067.899999976158","","","","","","","","","","21","6","625","350"
"","","","","","html-keyboard-response","60","315680","0.0-11.0-0.3","576ad50bc8a90000010d99c8","64d3ef96556dbe1f0e02b5aa","64db812c9b3a799113a8f7d6","","null","","","","","","","","","","","","","null","","","fallScene","","","","","","","","","","","","false","60.02436000000103","322.3","296.07114317029976","371.46","3","22","","",""
"","","","","","html-keyboard-response","61","319480","0.0-11.0-1.3","576ad50bc8a90000010d99c8","64d3ef96556dbe1f0e02b5aa","64db812c9b3a799113a8f7d6","","","","","","","","","","","","","","","","","","","","","","","","300.99075868890475","335.00382075506155","3799.699999988079","","","","","","","","","","","","",""
"","","","","","html-keyboard-response","61","319480","0.0-11.0-1.3","576ad50bc8a90000010d99c8","64d3ef96556dbe1f0e02b5aa","64db812c9b3a799113a8f7d6","","","","","","","","","","","","","","","","","","reconstruct","","","","","","300.99075868890475","335.00382075506155","3799.699999988079","","","","","","","","","","22","3","500","250"
"","","","","","html-keyboard-response","62","322482","0.0-11.0-0.4","576ad50bc8a90000010d99c8","64d3ef96556dbe1f0e02b5aa","64db812c9b3a799113a8f7d6","","null","","","","","","","","","","","","","null","","","fallScene","","","","","","","","","","","","false","60.00311999999801","322.3","379.3711431702997","245.25","1","23","","",""
"","","","","","html-keyboard-response","63","325842","0.0-11.0-1.4","576ad50bc8a90000010d99c8","64d3ef96556dbe1f0e02b5aa","64db812c9b3a799113a8f7d6","","","","","","","","","","","","","","","","","","","","","","","","345.0099476815239","243.0010215832314","3359.300000011921","","","","","","","","","","","","",""
"","","","","","html-keyboard-response","63","325842","0.0-11.0-1.4","576ad50bc8a90000010d99c8","64d3ef96556dbe1f0e02b5aa","64db812c9b3a799113a8f7d6","","","","","","","","","","","","","","","","","","reconstruct","","","","","","345.0099476815239","243.0010215832314","3359.300000011921","","","","","","","","","","23","4","500","350"
"","","","","","html-keyboard-response","64","328845","0.0-11.0-0.5","576ad50bc8a90000010d99c8","64d3ef96556dbe1f0e02b5aa","64db812c9b3a799113a8f7d6","","null","","","","","","","","","","","","","null","","","fallScene","","","","","","","","","","","","false","62.0151010000002","500","479.92114317029973","330.87","6","24","","",""
"","","","","","html-keyboard-response","65","332474","0.0-11.0-1.5","576ad50bc8a90000010d99c8","64d3ef96556dbe1f0e02b5aa","64db812c9b3a799113a8f7d6","","","","","","","","","","","","","","","","","","","","","","","","499.99000505744124","323.00031799881623","3628.5","","","","","","","","","","","","",""
"","","","","","html-keyboard-response","65","332474","0.0-11.0-1.5","576ad50bc8a90000010d99c8","64d3ef96556dbe1f0e02b5aa","64db812c9b3a799113a8f7d6","","","","","","","","","","","","","","","","","","reconstruct","","","","","","499.99000505744124","323.00031799881623","3628.5","","","","","","","","","","24","6","625","350"
"","","","","","html-keyboard-response","66","335476","0.0-11.0-0.6","576ad50bc8a90000010d99c8","64d3ef96556dbe1f0e02b5aa","64db812c9b3a799113a8f7d6","","null","","","","","","","","","","","","","null","","","fallScene","","","","","","","","","","","","false","60.00060000000056","500","453.67114317029973","210.33","5","25","","",""
"","","","","","html-keyboard-response","67","339664","0.0-11.0-1.6","576ad50bc8a90000010d99c8","64d3ef96556dbe1f0e02b5aa","64db812c9b3a799113a8f7d6","","","","","","","","","","","","","","","","","","","","","","","","484.99028186257846","321.99764250025333","4187.5","","","","","","","","","","","","",""
"","","","","","html-keyboard-response","67","339664","0.0-11.0-1.6","576ad50bc8a90000010d99c8","64d3ef96556dbe1f0e02b5aa","64db812c9b3a799113a8f7d6","","","","","","","","","","","","","","","","","","reconstruct","","","","","","484.99028186257846","321.99764250025333","4187.5","","","","","","","","","","25","3","500","250"
"","","","","","html-keyboard-response","68","342667","0.0-11.0-0.7","576ad50bc8a90000010d99c8","64d3ef96556dbe1f0e02b5aa","64db812c9b3a799113a8f7d6","","null","","","","","","","","","","","","","null","","","fallScene","","","","","","","","","","","","true","60.00216000000131","604.4000000000001","667.6211431702998","201.78","9","26","","",""
"","","","","","html-keyboard-response","69","346964","0.0-11.0-1.7","576ad50bc8a90000010d99c8","64d3ef96556dbe1f0e02b5aa","64db812c9b3a799113a8f7d6","","","","","","","","","","","","","","","","","","","","","","","","383.01","399.999999999975","4296.900000035763","","","","","","","","","","","","",""
"","","","","","html-keyboard-response","69","346964","0.0-11.0-1.7","576ad50bc8a90000010d99c8","64d3ef96556dbe1f0e02b5aa","64db812c9b3a799113a8f7d6","","","","","","","","","","","","","","","","","","reconstruct","","","","","","383.01","399.999999999975","4296.900000035763","","","","","","","","","","26","2","375","350"
"","","","","","html-keyboard-response","70","349968","0.0-11.0-0.8","576ad50bc8a90000010d99c8","64d3ef96556dbe1f0e02b5aa","64db812c9b3a799113a8f7d6","","null","","","","","","","","","","","","","null","","","fallScene","","","","","","","","","","","","false","60.00011999999871","500","453.67114317029973","210.33","5","27","","",""
"","","","","","html-keyboard-response","71","354048","0.0-11.0-1.8","576ad50bc8a90000010d99c8","64d3ef96556dbe1f0e02b5aa","64db812c9b3a799113a8f7d6","","","","","","","","","","","","","","","","","","","","","","","","520.0000068225004","331.99000000232735","4080.199999988079","","","","","","","","","","","","",""
"","","","","","html-keyboard-response","71","354049","0.0-11.0-1.8","576ad50bc8a90000010d99c8","64d3ef96556dbe1f0e02b5aa","64db812c9b3a799113a8f7d6","","","","","","","","","","","","","","","","","","reconstruct","","","","","","520.0000068225004","331.99000000232735","4080.199999988079","","","","","","","","","","27","1","375","250"
"","","","","","html-keyboard-response","72","357051","0.0-11.0-0.9","576ad50bc8a90000010d99c8","64d3ef96556dbe1f0e02b5aa","64db812c9b3a799113a8f7d6","","null","","","","","","","","","","","","","null","","","fallScene","","","","","","","","","","","","false","61.99253099999694","500","553.4711431702997","282.51","7","28","","",""
"","","","","","html-keyboard-response","73","360649","0.0-11.0-1.9","576ad50bc8a90000010d99c8","64d3ef96556dbe1f0e02b5aa","64db812c9b3a799113a8f7d6","","","","","","","","","","","","","","","","","","","","","","","","495.9900005362862","296.00010356367886","3597.5","","","","","","","","","","","","",""
"","","","","","html-keyboard-response","73","360649","0.0-11.0-1.9","576ad50bc8a90000010d99c8","64d3ef96556dbe1f0e02b5aa","64db812c9b3a799113a8f7d6","","","","","","","","","","","","","","","","","","reconstruct","","","","","","495.9900005362862","296.00010356367886","3597.5","","","","","","","","","","28","1","375","250"
"","","","","","html-keyboard-response","74","363651","0.0-11.0-0.10","576ad50bc8a90000010d99c8","64d3ef96556dbe1f0e02b5aa","64db812c9b3a799113a8f7d6","","null","","","","","","","","","","","","","null","","","fallScene","","","","","","","","","","","","false","60.00258000000031","322.3","296.07114317029976","371.46","3","29","","",""
"","","","","","html-keyboard-response","75","366456","0.0-11.0-1.10","576ad50bc8a90000010d99c8","64d3ef96556dbe1f0e02b5aa","64db812c9b3a799113a8f7d6","","","","","","","","","","","","","","","","","","","","","","","","312.0098218607321","371.0018791092995","2804.800000011921","","","","","","","","","","","","",""
"","","","","","html-keyboard-response","75","366456","0.0-11.0-1.10","576ad50bc8a90000010d99c8","64d3ef96556dbe1f0e02b5aa","64db812c9b3a799113a8f7d6","","","","","","","","","","","","","","","","","","reconstruct","","","","","","312.0098218607321","371.0018791092995","2804.800000011921","","","","","","","","","","29","2","375","350"
"","","","","","html-keyboard-response","76","369459","0.0-11.0-0.11","576ad50bc8a90000010d99c8","64d3ef96556dbe1f0e02b5aa","64db812c9b3a799113a8f7d6","","null","","","","","","","","","","","","","null","","","fallScene","","","","","","","","","","","","true","60.00749999999999","500","553.4711431702997","282.51","7","30","","",""
"","","","","","html-keyboard-response","77","373972","0.0-11.0-1.11","576ad50bc8a90000010d99c8","64d3ef96556dbe1f0e02b5aa","64db812c9b3a799113a8f7d6","","","","","","","","","","","","","","","","","","","","","","","","496.9900006040686","334.99989008637243","4513.299999952316","","","","","","","","","","","","",""
"","","","","","html-keyboard-response","77","373972","0.0-11.0-1.11","576ad50bc8a90000010d99c8","64d3ef96556dbe1f0e02b5aa","64db812c9b3a799113a8f7d6","","","","","","","","","","","","","","","","","","reconstruct","","","","","","496.9900006040686","334.99989008637243","4513.299999952316","","","","","","","","","","30","6","625","350"
"","","","","","html-keyboard-response","78","376975","0.0-11.0-0.12","576ad50bc8a90000010d99c8","64d3ef96556dbe1f0e02b5aa","64db812c9b3a799113a8f7d6","","null","","","","","","","","","","","","","null","","","fallScene","","","","","","","","","","","","false","60.00258000000031","604.4000000000001","596.8711431702998","394.5","10","31","","",""
"","","","","","html-keyboard-response","79","379892","0.0-11.0-1.12","576ad50bc8a90000010d99c8","64d3ef96556dbe1f0e02b5aa","64db812c9b3a799113a8f7d6","","","","","","","","","","","","","","","","","","","","","","","","620.9904114706139","281.00283903226676","2916.699999988079","","","","","","","","","","","","",""
"","","","","","html-keyboard-response","79","379892","0.0-11.0-1.12","576ad50bc8a90000010d99c8","64d3ef96556dbe1f0e02b5aa","64db812c9b3a799113a8f7d6","","","","","","","","","","","","","","","","","","reconstruct","","","","","","620.9904114706139","281.00283903226676","2916.699999988079","","","","","","","","","","31","3","500","250"
"","","","","","html-keyboard-response","80","382895","0.0-11.0-0.13","576ad50bc8a90000010d99c8","64d3ef96556dbe1f0e02b5aa","64db812c9b3a799113a8f7d6","","null","","","","","","","","","","","","","null","","","fallScene","","","","","","","","","","","","true","60.00162000000011","500","510.8711431702997","369.03","8","32","","",""
"","","","","","html-keyboard-response","81","386726","0.0-11.0-1.13","576ad50bc8a90000010d99c8","64d3ef96556dbe1f0e02b5aa","64db812c9b3a799113a8f7d6","","","","","","","","","","","","","","","","","","","","","","","","521.0079356156318","310.0060848997152","3831","","","","","","","","","","","","",""
"","","","","","html-keyboard-response","81","386726","0.0-11.0-1.13","576ad50bc8a90000010d99c8","64d3ef96556dbe1f0e02b5aa","64db812c9b3a799113a8f7d6","","","","","","","","","","","","","","","","","","reconstruct","","","","","","521.0079356156318","310.0060848997152","3831","","","","","","","","","","32","2","375","350"
"","","","","","html-keyboard-response","82","389728","0.0-11.0-0.14","576ad50bc8a90000010d99c8","64d3ef96556dbe1f0e02b5aa","64db812c9b3a799113a8f7d6","","null","","","","","","","","","","","","","null","","","fallScene","","","","","","","","","","","","false","61.99661799999932","604.4000000000001","650.0211431702996","404.58000000000004","11","33","","",""
"","","","","","html-keyboard-response","83","394198","0.0-11.0-1.14","576ad50bc8a90000010d99c8","64d3ef96556dbe1f0e02b5aa","64db812c9b3a799113a8f7d6","","","","","","","","","","","","","","","","","","","","","","","","618.9900000939622","350.9999566498681","4469.600000023842","","","","","","","","","","","","",""
"","","","","","html-keyboard-response","83","394198","0.0-11.0-1.14","576ad50bc8a90000010d99c8","64d3ef96556dbe1f0e02b5aa","64db812c9b3a799113a8f7d6","","","","","","","","","","","","","","","","","","reconstruct","","","","","","618.9900000939622","350.9999566498681","4469.600000023842","","","","","","","","","","33","4","500","350"
"","","","","","html-keyboard-response","84","397200","0.0-11.0-0.15","576ad50bc8a90000010d99c8","64d3ef96556dbe1f0e02b5aa","64db812c9b3a799113a8f7d6","","null","","","","","","","","","","","","","null","","","fallScene","","","","","","","","","","","","false","60.003059999998655","500","479.92114317029973","330.87","6","34","","",""
"","","","","","html-keyboard-response","85","401966","0.0-11.0-1.15","576ad50bc8a90000010d99c8","64d3ef96556dbe1f0e02b5aa","64db812c9b3a799113a8f7d6","","","","","","","","","","","","","","","","","","","","","","","","471.0099377920714","286.00111368251544","4765.400000035763","","","","","","","","","","","","",""
"","","","","","html-keyboard-response","85","401966","0.0-11.0-1.15","576ad50bc8a90000010d99c8","64d3ef96556dbe1f0e02b5aa","64db812c9b3a799113a8f7d6","","","","","","","","","","","","","","","","","","reconstruct","","","","","","471.0099377920714","286.00111368251544","4765.400000035763","","","","","","","","","","34","4","500","350"
"","","","","","html-keyboard-response","86","404969","0.0-11.0-0.16","576ad50bc8a90000010d99c8","64d3ef96556dbe1f0e02b5aa","64db812c9b3a799113a8f7d6","","null","","","","","","","","","","","","","null","","","fallScene","","","","","","","","","","","","true","60.002999999999304","604.4000000000001","575.4211431702997","266.76","12","35","","",""
"","","","","","html-keyboard-response","87","408453","0.0-11.0-1.16","576ad50bc8a90000010d99c8","64d3ef96556dbe1f0e02b5aa","64db812c9b3a799113a8f7d6","","","","","","","","","","","","","","","","","","","","","","","","378.009999823413","354.00005942817853","3483.5","","","","","","","","","","","","",""
"","","","","","html-keyboard-response","87","408453","0.0-11.0-1.16","576ad50bc8a90000010d99c8","64d3ef96556dbe1f0e02b5aa","64db812c9b3a799113a8f7d6","","","","","","","","","","","","","","","","","","reconstruct","","","","","","378.009999823413","354.00005942817853","3483.5","","","","","","","","","","35","2","375","350"
"","","","","","html-keyboard-response","88","411456","0.0-11.0-0.17","576ad50bc8a90000010d99c8","64d3ef96556dbe1f0e02b5aa","64db812c9b3a799113a8f7d6","","null","","","","","","","","","","","","","null","","","fallScene","","","","","","","","","","","","true","60.00186000000103","500","510.8711431702997","369.03","8","36","","",""
"","","","","","html-keyboard-response","89","417184","0.0-11.0-1.17","576ad50bc8a90000010d99c8","64d3ef96556dbe1f0e02b5aa","64db812c9b3a799113a8f7d6","","","","","","","","","","","","","","","","","","","","","","","","543.0037949133338","363.99074804708243","5727.699999988079","","","","","","","","","","","","",""
"","","","","","html-keyboard-response","89","417184","0.0-11.0-1.17","576ad50bc8a90000010d99c8","64d3ef96556dbe1f0e02b5aa","64db812c9b3a799113a8f7d6","","","","","","","","","","","","","","","","","","reconstruct","","","","","","543.0037949133338","363.99074804708243","5727.699999988079","","","","","","","","","","36","6","625","350"
"","","","","","html-button-response","90","420246","0.0-12.0","576ad50bc8a90000010d99c8","64d3ef96556dbe1f0e02b5aa","64db812c9b3a799113a8f7d6","","3061","","","","","","","","","","","","","0","","","","<p><span style = ""font-size:40px;"">BREAK</span></p><p>You are halfway done! Click 'Next' when you are ready for the next set.</p>","","","","","","","","","","","","","","","","","","","",""
"","","","","","html-keyboard-response","91","423248","0.0-13.0-0.0","576ad50bc8a90000010d99c8","64d3ef96556dbe1f0e02b5aa","64db812c9b3a799113a8f7d6","","null","","","","","","","","","","","","","null","","","fallScene","","","","","","","","","","","","true","60.0020399999991","500","479.92114317029973","330.87","6","37","","",""
"","","","","","html-keyboard-response","92","426422","0.0-13.0-1.0","576ad50bc8a90000010d99c8","64d3ef96556dbe1f0e02b5aa","64db812c9b3a799113a8f7d6","","","","","","","","","","","","","","","","","","","","","","","","417.9984716298753","327.00988251409115","3173.600000023842","","","","","","","","","","","","",""
"","","","","","html-keyboard-response","92","426422","0.0-13.0-1.0","576ad50bc8a90000010d99c8","64d3ef96556dbe1f0e02b5aa","64db812c9b3a799113a8f7d6","","","","","","","","","","","","","","","","","","reconstruct","","","","","","417.9984716298753","327.00988251409115","3173.600000023842","","","","","","","","","","37","2","375","350"
"","","","","","html-keyboard-response","93","429425","0.0-13.0-0.1","576ad50bc8a90000010d99c8","64d3ef96556dbe1f0e02b5aa","64db812c9b3a799113a8f7d6","","null","","","","","","","","","","","","","null","","","fallScene","","","","","","","","","","","","false","60.023340000001475","604.4000000000001","596.8711431702998","394.5","10","38","","",""
"","","","","","html-keyboard-response","94","432871","0.0-13.0-1.1","576ad50bc8a90000010d99c8","64d3ef96556dbe1f0e02b5aa","64db812c9b3a799113a8f7d6","","","","","","","","","","","","","","","","","","","","","","","","597.9920824733088","327.99389158194833","3445.900000035763","","","","","","","","","","","","",""
"","","","","","html-keyboard-response","94","432871","0.0-13.0-1.1","576ad50bc8a90000010d99c8","64d3ef96556dbe1f0e02b5aa","64db812c9b3a799113a8f7d6","","","","","","","","","","","","","","","","","","reconstruct","","","","","","597.9920824733088","327.99389158194833","3445.900000035763","","","","","","","","","","38","5","625","250"
"","","","","","html-keyboard-response","95","435873","0.0-13.0-0.2","576ad50bc8a90000010d99c8","64d3ef96556dbe1f0e02b5aa","64db812c9b3a799113a8f7d6","","null","","","","","","","","","","","","","null","","","fallScene","","","","","","","","","","","","false","60.000719999999276","604.4000000000001","667.6211431702998","201.78","9","39","","",""
"","","","","","html-keyboard-response","96","439704","0.0-13.0-1.2","576ad50bc8a90000010d99c8","64d3ef96556dbe1f0e02b5aa","64db812c9b3a799113a8f7d6","","","","","","","","","","","","","","","","","","","","","","","","555.0099997524801","347.99992964136453","3830.600000023842","","","","","","","","","","","","",""
"","","","","","html-keyboard-response","96","439704","0.0-13.0-1.2","576ad50bc8a90000010d99c8","64d3ef96556dbe1f0e02b5aa","64db812c9b3a799113a8f7d6","","","","","","","","","","","","","","","","","","reconstruct","","","","","","555.0099997524801","347.99992964136453","3830.600000023842","","","","","","","","","","39","5","625","250"
"","","","","","html-keyboard-response","97","442708","0.0-13.0-0.3","576ad50bc8a90000010d99c8","64d3ef96556dbe1f0e02b5aa","64db812c9b3a799113a8f7d6","","null","","","","","","","","","","","","","null","","","fallScene","","","","","","","","","","","","false","60.00473999999813","500","479.92114317029973","330.87","6","40","","",""
"","","","","","html-keyboard-response","98","446622","0.0-13.0-1.3","576ad50bc8a90000010d99c8","64d3ef96556dbe1f0e02b5aa","64db812c9b3a799113a8f7d6","","","","","","","","","","","","","","","","","","","","","","","","503.99076668111564","323.0038400289556","3914.099999964237","","","","","","","","","","","","",""
"","","","","","html-keyboard-response","98","446622","0.0-13.0-1.3","576ad50bc8a90000010d99c8","64d3ef96556dbe1f0e02b5aa","64db812c9b3a799113a8f7d6","","","","","","","","","","","","","","","","","","reconstruct","","","","","","503.99076668111564","323.0038400289556","3914.099999964237","","","","","","","","","","40","5","625","250"
"","","","","","html-keyboard-response","99","449625","0.0-13.0-0.4","576ad50bc8a90000010d99c8","64d3ef96556dbe1f0e02b5aa","64db812c9b3a799113a8f7d6","","null","","","","","","","","","","","","","null","","","fallScene","","","","","","","","","","","","false","60.00035999999964","604.4000000000001","650.0211431702996","404.58000000000004","11","41","","",""
"","","","","","html-keyboard-response","100","454605","0.0-13.0-1.4","576ad50bc8a90000010d99c8","64d3ef96556dbe1f0e02b5aa","64db812c9b3a799113a8f7d6","","","","","","","","","","","","","","","","","","","","","","","","622.0000000002359","346.99","4979.699999988079","","","","","","","","","","","","",""
"","","","","","html-keyboard-response","100","454605","0.0-13.0-1.4","576ad50bc8a90000010d99c8","64d3ef96556dbe1f0e02b5aa","64db812c9b3a799113a8f7d6","","","","","","","","","","","","","","","","","","reconstruct","","","","","","622.0000000002359","346.99","4979.699999988079","","","","","","","","","","41","1","375","250"
"","","","","","html-keyboard-response","101","457608","0.0-13.0-0.5","576ad50bc8a90000010d99c8","64d3ef96556dbe1f0e02b5aa","64db812c9b3a799113a8f7d6","","null","","","","","","","","","","","","","null","","","fallScene","","","","","","","","","","","","false","61.99954599999992","322.3","379.3711431702997","245.25","1","42","","",""
"","","","","","html-keyboard-response","102","461138","0.0-13.0-1.5","576ad50bc8a90000010d99c8","64d3ef96556dbe1f0e02b5aa","64db812c9b3a799113a8f7d6","","","","","","","","","","","","","","","","","","","","","","","","339.0099972857654","329.9997670250541","3529.899999976158","","","","","","","","","","","","",""
"","","","","","html-keyboard-response","102","461138","0.0-13.0-1.5","576ad50bc8a90000010d99c8","64d3ef96556dbe1f0e02b5aa","64db812c9b3a799113a8f7d6","","","","","","","","","","","","","","","","","","reconstruct","","","","","","339.0099972857654","329.9997670250541","3529.899999976158","","","","","","","","","","42","5","625","250"
"","","","","","html-keyboard-response","103","464141","0.0-13.0-0.6","576ad50bc8a90000010d99c8","64d3ef96556dbe1f0e02b5aa","64db812c9b3a799113a8f7d6","","null","","","","","","","","","","","","","null","","","fallScene","","","","","","","","","","","","true","60.00168000000296","500","510.8711431702997","369.03","8","43","","",""
"","","","","","html-keyboard-response","104","466930","0.0-13.0-1.6","576ad50bc8a90000010d99c8","64d3ef96556dbe1f0e02b5aa","64db812c9b3a799113a8f7d6","","","","","","","","","","","","","","","","","","","","","","","","578.9907931333072","325.9960969748014","2788.5","","","","","","","","","","","","",""
"","","","","","html-keyboard-response","104","466930","0.0-13.0-1.6","576ad50bc8a90000010d99c8","64d3ef96556dbe1f0e02b5aa","64db812c9b3a799113a8f7d6","","","","","","","","","","","","","","","","","","reconstruct","","","","","","578.9907931333072","325.9960969748014","2788.5","","","","","","","","","","43","4","500","350"
"","","","","","html-keyboard-response","105","469933","0.0-13.0-0.7","576ad50bc8a90000010d99c8","64d3ef96556dbe1f0e02b5aa","64db812c9b3a799113a8f7d6","","null","","","","","","","","","","","","","null","","","fallScene","","","","","","","","","","","","true","62.019310000001276","322.3","296.07114317029976","371.46","3","44","","",""
"","","","","","html-keyboard-response","106","475908","0.0-13.0-1.7","576ad50bc8a90000010d99c8","64d3ef96556dbe1f0e02b5aa","64db812c9b3a799113a8f7d6","","","","","","","","","","","","","","","","","","","","","","","","664.9899998347497","275.0099972829981","5975","","","","","","","","","","","","",""
"","","","","","html-keyboard-response","106","475908","0.0-13.0-1.7","576ad50bc8a90000010d99c8","64d3ef96556dbe1f0e02b5aa","64db812c9b3a799113a8f7d6","","","","","","","","","","","","","","","","","","reconstruct","","","","","","664.9899998347497","275.0099972829981","5975","","","","","","","","","","44","1","375","250"
"","","","","","html-keyboard-response","107","478911","0.0-13.0-0.8","576ad50bc8a90000010d99c8","64d3ef96556dbe1f0e02b5aa","64db812c9b3a799113a8f7d6","","null","","","","","","","","","","","","","null","","","fallScene","","","","","","","","","","","","false","61.993019000002356","604.4000000000001","596.8711431702998","394.5","10","45","","",""
"","","","","","html-keyboard-response","108","483848","0.0-13.0-1.8","576ad50bc8a90000010d99c8","64d3ef96556dbe1f0e02b5aa","64db812c9b3a799113a8f7d6","","","","","","","","","","","","","","","","","","","","","","","","592.9900019524914","311.00019760064873","4936.699999988079","","","","","","","","","","","","",""
"","","","","","html-keyboard-response","108","483848","0.0-13.0-1.8","576ad50bc8a90000010d99c8","64d3ef96556dbe1f0e02b5aa","64db812c9b3a799113a8f7d6","","","","","","","","","","","","","","","","","","reconstruct","","","","","","592.9900019524914","311.00019760064873","4936.699999988079","","","","","","","","","","45","1","375","250"
"","","","","","html-keyboard-response","109","486850","0.0-13.0-0.9","576ad50bc8a90000010d99c8","64d3ef96556dbe1f0e02b5aa","64db812c9b3a799113a8f7d6","","null","","","","","","","","","","","","","null","","","fallScene","","","","","","","","","","","","false","60.001199999997624","604.4000000000001","575.4211431702997","266.76","12","46","","",""
"","","","","","html-keyboard-response","110","490514","0.0-13.0-1.9","576ad50bc8a90000010d99c8","64d3ef96556dbe1f0e02b5aa","64db812c9b3a799113a8f7d6","","","","","","","","","","","","","","","","","","","","","","","","560.9921976031297","252.00625480639823","3663.199999988079","","","","","","","","","","","","",""
"","","","","","html-keyboard-response","110","490514","0.0-13.0-1.9","576ad50bc8a90000010d99c8","64d3ef96556dbe1f0e02b5aa","64db812c9b3a799113a8f7d6","","","","","","","","","","","","","","","","","","reconstruct","","","","","","560.9921976031297","252.00625480639823","3663.199999988079","","","","","","","","","","46","3","500","250"
"","","","","","html-keyboard-response","111","493516","0.0-13.0-0.10","576ad50bc8a90000010d99c8","64d3ef96556dbe1f0e02b5aa","64db812c9b3a799113a8f7d6","","null","","","","","","","","","","","","","null","","","fallScene","","","","","","","","","","","","false","60.0245400000026","322.3","296.07114317029976","371.46","3","47","","",""
"","","","","","html-keyboard-response","112","502452","0.0-13.0-1.10","576ad50bc8a90000010d99c8","64d3ef96556dbe1f0e02b5aa","64db812c9b3a799113a8f7d6","","","","","","","","","","","","","","","","","","","","","","","","309.00000000000006","368.9999999605104","8935.600000023842","","","","","","","","","","","","",""
"","","","","","html-keyboard-response","112","502452","0.0-13.0-1.10","576ad50bc8a90000010d99c8","64d3ef96556dbe1f0e02b5aa","64db812c9b3a799113a8f7d6","","","","","","","","","","","","","","","","","","reconstruct","","","","","","309.00000000000006","368.9999999605104","8935.600000023842","","","","","","","","","","47","5","625","250"
"","","","","","html-keyboard-response","113","505455","0.0-13.0-0.11","576ad50bc8a90000010d99c8","64d3ef96556dbe1f0e02b5aa","64db812c9b3a799113a8f7d6","","null","","","","","","","","","","","","","null","","","fallScene","","","","","","","","","","","","false","60.003120000001516","604.4000000000001","575.4211431702997","266.76","12","48","","",""
"","","","","","html-keyboard-response","114","512463","0.0-13.0-1.11","576ad50bc8a90000010d99c8","64d3ef96556dbe1f0e02b5aa","64db812c9b3a799113a8f7d6","","","","","","","","","","","","","","","","","","","","","","","","643.9981339221731","298.9901756550578","7006.899999976158","","","","","","","","","","","","",""
"","","","","","html-keyboard-response","114","512463","0.0-13.0-1.11","576ad50bc8a90000010d99c8","64d3ef96556dbe1f0e02b5aa","64db812c9b3a799113a8f7d6","","","","","","","","","","","","","","","","","","reconstruct","","","","","","643.9981339221731","298.9901756550578","7006.899999976158","","","","","","","","","","48","5","625","250"
"","","","","","html-keyboard-response","115","515465","0.0-13.0-0.12","576ad50bc8a90000010d99c8","64d3ef96556dbe1f0e02b5aa","64db812c9b3a799113a8f7d6","","null","","","","","","","","","","","","","null","","","fallScene","","","","","","","","","","","","false","60.00156000000075","322.3","308.07114317029976","253.89","2","49","","",""
"","","","","","html-keyboard-response","116","518949","0.0-13.0-1.12","576ad50bc8a90000010d99c8","64d3ef96556dbe1f0e02b5aa","64db812c9b3a799113a8f7d6","","","","","","","","","","","","","","","","","","","","","","","","370.9900003005586","317.00007753116944","3483","","","","","","","","","","","","",""
"","","","","","html-keyboard-response","116","518949","0.0-13.0-1.12","576ad50bc8a90000010d99c8","64d3ef96556dbe1f0e02b5aa","64db812c9b3a799113a8f7d6","","","","","","","","","","","","","","","","","","reconstruct","","","","","","370.9900003005586","317.00007753116944","3483","","","","","","","","","","49","2","375","350"
"","","","","","html-keyboard-response","117","521951","0.0-13.0-0.13","576ad50bc8a90000010d99c8","64d3ef96556dbe1f0e02b5aa","64db812c9b3a799113a8f7d6","","null","","","","","","","","","","","","","null","","","fallScene","","","","","","","","","","","","true","60.00018000000157","322.3","379.3711431702997","245.25","1","50","","",""
"","","","","","html-keyboard-response","118","526825","0.0-13.0-1.13","576ad50bc8a90000010d99c8","64d3ef96556dbe1f0e02b5aa","64db812c9b3a799113a8f7d6","","","","","","","","","","","","","","","","","","","","","","","","611.990000000002","290.9999997960094","4873.799999952316","","","","","","","","","","","","",""
"","","","","","html-keyboard-response","118","526825","0.0-13.0-1.13","576ad50bc8a90000010d99c8","64d3ef96556dbe1f0e02b5aa","64db812c9b3a799113a8f7d6","","","","","","","","","","","","","","","","","","reconstruct","","","","","","611.990000000002","290.9999997960094","4873.799999952316","","","","","","","","","","50","6","625","350"
"","","","","","html-keyboard-response","119","529827","0.0-13.0-0.14","576ad50bc8a90000010d99c8","64d3ef96556dbe1f0e02b5aa","64db812c9b3a799113a8f7d6","","null","","","","","","","","","","","","","null","","","fallScene","","","","","","","","","","","","false","60.024180000002964","500","553.4711431702997","282.51","7","51","","",""
"","","","","","html-keyboard-response","120","533358","0.0-13.0-1.14","576ad50bc8a90000010d99c8","64d3ef96556dbe1f0e02b5aa","64db812c9b3a799113a8f7d6","","","","","","","","","","","","","","","","","","","","","","","","466.99000000077837","323.9999960545264","3530.900000035763","","","","","","","","","","","","",""
"","","","","","html-keyboard-response","120","533358","0.0-13.0-1.14","576ad50bc8a90000010d99c8","64d3ef96556dbe1f0e02b5aa","64db812c9b3a799113a8f7d6","","","","","","","","","","","","","","","","","","reconstruct","","","","","","466.99000000077837","323.9999960545264","3530.900000035763","","","","","","","","","","51","2","375","350"
"","","","","","html-keyboard-response","121","536361","0.0-13.0-0.15","576ad50bc8a90000010d99c8","64d3ef96556dbe1f0e02b5aa","64db812c9b3a799113a8f7d6","","null","","","","","","","","","","","","","null","","","fallScene","","","","","","","","","","","","false","62.010342999997896","604.4000000000001","596.8711431702998","394.5","10","52","","",""
"","","","","","html-keyboard-response","122","541457","0.0-13.0-1.15","576ad50bc8a90000010d99c8","64d3ef96556dbe1f0e02b5aa","64db812c9b3a799113a8f7d6","","","","","","","","","","","","","","","","","","","","","","","","583.9964438040247","292.99065369216294","5094.799999952316","","","","","","","","","","","","",""
"","","","","","html-keyboard-response","122","541457","0.0-13.0-1.15","576ad50bc8a90000010d99c8","64d3ef96556dbe1f0e02b5aa","64db812c9b3a799113a8f7d6","","","","","","","","","","","","","","","","","","reconstruct","","","","","","583.9964438040247","292.99065369216294","5094.799999952316","","","","","","","","","","52","6","625","350"
"","","","","","html-keyboard-response","123","544459","0.0-13.0-0.16","576ad50bc8a90000010d99c8","64d3ef96556dbe1f0e02b5aa","64db812c9b3a799113a8f7d6","","null","","","","","","","","","","","","","null","","","fallScene","","","","","","","","","","","","false","62.01888299999875","604.4000000000001","667.6211431702998","201.78","9","53","","",""
"","","","","","html-keyboard-response","124","549273","0.0-13.0-1.16","576ad50bc8a90000010d99c8","64d3ef96556dbe1f0e02b5aa","64db812c9b3a799113a8f7d6","","","","","","","","","","","","","","","","","","","","","","","","592.9900004998126","328.9999000199935","4813","","","","","","","","","","","","",""
"","","","","","html-keyboard-response","124","549273","0.0-13.0-1.16","576ad50bc8a90000010d99c8","64d3ef96556dbe1f0e02b5aa","64db812c9b3a799113a8f7d6","","","","","","","","","","","","","","","","","","reconstruct","","","","","","592.9900004998126","328.9999000199935","4813","","","","","","","","","","53","3","500","250"
"","","","","","html-keyboard-response","125","552276","0.0-13.0-0.17","576ad50bc8a90000010d99c8","64d3ef96556dbe1f0e02b5aa","64db812c9b3a799113a8f7d6","","null","","","","","","","","","","","","","null","","","fallScene","","","","","","","","","","","","true","62.01632100000489","322.3","356.42114317029973","357.87","4","54","","",""
"","","","","","html-keyboard-response","126","556077","0.0-13.0-1.17","576ad50bc8a90000010d99c8","64d3ef96556dbe1f0e02b5aa","64db812c9b3a799113a8f7d6","","","","","","","","","","","","","","","","","","","","","","","","610.0013585782748","261.0099072834355","3800.7000000476837","","","","","","","","","","","","",""
"","","","","","html-keyboard-response","126","556077","0.0-13.0-1.17","576ad50bc8a90000010d99c8","64d3ef96556dbe1f0e02b5aa","64db812c9b3a799113a8f7d6","","","","","","","","","","","","","","","","","","reconstruct","","","","","","610.0013585782748","261.0099072834355","3800.7000000476837","","","","","","","","","","54","6","625","350"
"","","","","","html-button-response","127","561025","0.0-14.0","576ad50bc8a90000010d99c8","64d3ef96556dbe1f0e02b5aa","64db812c9b3a799113a8f7d6","","4946","","","","","","","","","","","","","0","","","","<p><span style = ""font-size:40px;"">BREAK</span></p><p>You are almost done! Click 'Next' when you are ready for the next set.</p>","","","","","","","","","","","","","","","","","","","",""
"","","","","","html-keyboard-response","128","564027","0.0-15.0-0.0","576ad50bc8a90000010d99c8","64d3ef96556dbe1f0e02b5aa","64db812c9b3a799113a8f7d6","","null","","","","","","","","","","","","","null","","","fallScene","","","","","","","","","","","","false","60.00587999999989","604.4000000000001","575.4211431702997","266.76","12","55","","",""
"","","","","","html-keyboard-response","129","567232","0.0-15.0-1.0","576ad50bc8a90000010d99c8","64d3ef96556dbe1f0e02b5aa","64db812c9b3a799113a8f7d6","","","","","","","","","","","","","","","","","","","","","","","","610.9999999999997","272.01","3205.5","","","","","","","","","","","","",""
"","","","","","html-keyboard-response","129","567232","0.0-15.0-1.0","576ad50bc8a90000010d99c8","64d3ef96556dbe1f0e02b5aa","64db812c9b3a799113a8f7d6","","","","","","","","","","","","","","","","","","reconstruct","","","","","","610.9999999999997","272.01","3205.5","","","","","","","","","","55","6","625","350"
"","","","","","html-keyboard-response","130","570234","0.0-15.0-0.1","576ad50bc8a90000010d99c8","64d3ef96556dbe1f0e02b5aa","64db812c9b3a799113a8f7d6","","null","","","","","","","","","","","","","null","","","fallScene","","","","","","","","","","","","true","60.00365999999922","322.3","308.07114317029976","253.89","2","56","","",""
"","","","","","html-keyboard-response","131","576662","0.0-15.0-1.1","576ad50bc8a90000010d99c8","64d3ef96556dbe1f0e02b5aa","64db812c9b3a799113a8f7d6","","","","","","","","","","","","","","","","","","","","","","","","587.9900146963788","268.0095560130792","6427.199999988079","","","","","","","","","","","","",""
"","","","","","html-keyboard-response","131","576662","0.0-15.0-1.1","576ad50bc8a90000010d99c8","64d3ef96556dbe1f0e02b5aa","64db812c9b3a799113a8f7d6","","","","","","","","","","","","","","","","","","reconstruct","","","","","","587.9900146963788","268.0095560130792","6427.199999988079","","","","","","","","","","56","1","375","250"
"","","","","","html-keyboard-response","132","579666","0.0-15.0-0.2","576ad50bc8a90000010d99c8","64d3ef96556dbe1f0e02b5aa","64db812c9b3a799113a8f7d6","","null","","","","","","","","","","","","","null","","","fallScene","","","","","","","","","","","","false","60.001319999999836","322.3","356.42114317029973","357.87","4","57","","",""
"","","","","","html-keyboard-response","133","583036","0.0-15.0-1.2","576ad50bc8a90000010d99c8","64d3ef96556dbe1f0e02b5aa","64db812c9b3a799113a8f7d6","","","","","","","","","","","","","","","","","","","","","","","","370.0089569967239","306.99555340470835","3369.399999976158","","","","","","","","","","","","",""
"","","","","","html-keyboard-response","133","583036","0.0-15.0-1.2","576ad50bc8a90000010d99c8","64d3ef96556dbe1f0e02b5aa","64db812c9b3a799113a8f7d6","","","","","","","","","","","","","","","","","","reconstruct","","","","","","370.0089569967239","306.99555340470835","3369.399999976158","","","","","","","","","","57","3","500","250"
"","","","","","html-keyboard-response","134","586038","0.0-15.0-0.3","576ad50bc8a90000010d99c8","64d3ef96556dbe1f0e02b5aa","64db812c9b3a799113a8f7d6","","null","","","","","","","","","","","","","null","","","fallScene","","","","","","","","","","","","false","60.00444000000134","500","510.8711431702997","369.03","8","58","","",""
"","","","","","html-keyboard-response","135","590404","0.0-15.0-1.3","576ad50bc8a90000010d99c8","64d3ef96556dbe1f0e02b5aa","64db812c9b3a799113a8f7d6","","","","","","","","","","","","","","","","","","","","","","","","440.01","372.99999999470697","4365.200000047684","","","","","","","","","","","","",""
"","","","","","html-keyboard-response","135","590404","0.0-15.0-1.3","576ad50bc8a90000010d99c8","64d3ef96556dbe1f0e02b5aa","64db812c9b3a799113a8f7d6","","","","","","","","","","","","","","","","","","reconstruct","","","","","","440.01","372.99999999470697","4365.200000047684","","","","","","","","","","58","1","375","250"
"","","","","","html-keyboard-response","136","593407","0.0-15.0-0.4","576ad50bc8a90000010d99c8","64d3ef96556dbe1f0e02b5aa","64db812c9b3a799113a8f7d6","","null","","","","","","","","","","","","","null","","","fallScene","","","","","","","","","","","","false","60.00209999999497","500","453.67114317029973","210.33","5","59","","",""
"","","","","","html-keyboard-response","137","599194","0.0-15.0-1.4","576ad50bc8a90000010d99c8","64d3ef96556dbe1f0e02b5aa","64db812c9b3a799113a8f7d6","","","","","","","","","","","","","","","","","","","","","","","","507.00000008627256","287.00999999999965","5786.699999988079","","","","","","","","","","","","",""
"","","","","","html-keyboard-response","137","599194","0.0-15.0-1.4","576ad50bc8a90000010d99c8","64d3ef96556dbe1f0e02b5aa","64db812c9b3a799113a8f7d6","","","","","","","","","","","","","","","","","","reconstruct","","","","","","507.00000008627256","287.00999999999965","5786.699999988079","","","","","","","","","","59","4","500","350"
"","","","","","html-keyboard-response","138","602197","0.0-15.0-0.5","576ad50bc8a90000010d99c8","64d3ef96556dbe1f0e02b5aa","64db812c9b3a799113a8f7d6","","null","","","","","","","","","","","","","null","","","fallScene","","","","","","","","","","","","false","60.003059999998655","322.3","379.3711431702997","245.25","1","60","","",""
"","","","","","html-keyboard-response","139","606178","0.0-15.0-1.5","576ad50bc8a90000010d99c8","64d3ef96556dbe1f0e02b5aa","64db812c9b3a799113a8f7d6","","","","","","","","","","","","","","","","","","","","","","","","387.990000503432","293.99989965864887","3980.199999988079","","","","","","","","","","","","",""
"","","","","","html-keyboard-response","139","606178","0.0-15.0-1.5","576ad50bc8a90000010d99c8","64d3ef96556dbe1f0e02b5aa","64db812c9b3a799113a8f7d6","","","","","","","","","","","","","","","","","","reconstruct","","","","","","387.990000503432","293.99989965864887","3980.199999988079","","","","","","","","","","60","1","375","250"
"","","","","","html-keyboard-response","140","609181","0.0-15.0-0.6","576ad50bc8a90000010d99c8","64d3ef96556dbe1f0e02b5aa","64db812c9b3a799113a8f7d6","","null","","","","","","","","","","","","","null","","","fallScene","","","","","","","","","","","","true","61.99728900000279","322.3","308.07114317029976","253.89","2","61","","",""
"","","","","","html-keyboard-response","141","615379","0.0-15.0-1.6","576ad50bc8a90000010d99c8","64d3ef96556dbe1f0e02b5aa","64db812c9b3a799113a8f7d6","","","","","","","","","","","","","","","","","","","","","","","","604.9900000004587","343.9999969709103","6197.800000011921","","","","","","","","","","","","",""
"","","","","","html-keyboard-response","141","615379","0.0-15.0-1.6","576ad50bc8a90000010d99c8","64d3ef96556dbe1f0e02b5aa","64db812c9b3a799113a8f7d6","","","","","","","","","","","","","","","","","","reconstruct","","","","","","604.9900000004587","343.9999969709103","6197.800000011921","","","","","","","","","","61","6","625","350"
"","","","","","html-keyboard-response","142","618381","0.0-15.0-0.7","576ad50bc8a90000010d99c8","64d3ef96556dbe1f0e02b5aa","64db812c9b3a799113a8f7d6","","null","","","","","","","","","","","","","null","","","fallScene","","","","","","","","","","","","true","60.00030000000028","604.4000000000001","667.6211431702998","201.78","9","62","","",""
"","","","","","html-keyboard-response","143","626380","0.0-15.0-1.7","576ad50bc8a90000010d99c8","64d3ef96556dbe1f0e02b5aa","64db812c9b3a799113a8f7d6","","","","","","","","","","","","","","","","","","","","","","","","325.9999768624691","243.9900000267673","7998.600000023842","","","","","","","","","","","","",""
"","","","","","html-keyboard-response","143","626380","0.0-15.0-1.7","576ad50bc8a90000010d99c8","64d3ef96556dbe1f0e02b5aa","64db812c9b3a799113a8f7d6","","","","","","","","","","","","","","","","","","reconstruct","","","","","","325.9999768624691","243.9900000267673","7998.600000023842","","","","","","","","","","62","6","625","350"
"","","","","","html-keyboard-response","144","629384","0.0-15.0-0.8","576ad50bc8a90000010d99c8","64d3ef96556dbe1f0e02b5aa","64db812c9b3a799113a8f7d6","","null","","","","","","","","","","","","","null","","","fallScene","","","","","","","","","","","","false","60.00533999999519","604.4000000000001","667.6211431702998","201.78","9","63","","",""
"","","","","","html-keyboard-response","145","632874","0.0-15.0-1.8","576ad50bc8a90000010d99c8","64d3ef96556dbe1f0e02b5aa","64db812c9b3a799113a8f7d6","","","","","","","","","","","","","","","","","","","","","","","","600.990000008568","365.9999869095517","3490.199999988079","","","","","","","","","","","","",""
"","","","","","html-keyboard-response","145","632874","0.0-15.0-1.8","576ad50bc8a90000010d99c8","64d3ef96556dbe1f0e02b5aa","64db812c9b3a799113a8f7d6","","","","","","","","","","","","","","","","","","reconstruct","","","","","","600.990000008568","365.9999869095517","3490.199999988079","","","","","","","","","","63","4","500","350"
"","","","","","html-keyboard-response","146","635877","0.0-15.0-0.9","576ad50bc8a90000010d99c8","64d3ef96556dbe1f0e02b5aa","64db812c9b3a799113a8f7d6","","null","","","","","","","","","","","","","null","","","fallScene","","","","","","","","","","","","true","60.00372000000206","604.4000000000001","575.4211431702997","266.76","12","64","","",""
"","","","","","html-keyboard-response","147","639448","0.0-15.0-1.9","576ad50bc8a90000010d99c8","64d3ef96556dbe1f0e02b5aa","64db812c9b3a799113a8f7d6","","","","","","","","","","","","","","","","","","","","","","","","385.00078294735596","329.99003069744475","3570.7000000476837","","","","","","","","","","","","",""
"","","","","","html-keyboard-response","147","639448","0.0-15.0-1.9","576ad50bc8a90000010d99c8","64d3ef96556dbe1f0e02b5aa","64db812c9b3a799113a8f7d6","","","","","","","","","","","","","","","","","","reconstruct","","","","","","385.00078294735596","329.99003069744475","3570.7000000476837","","","","","","","","","","64","1","375","250"
"","","","","","html-keyboard-response","148","642451","0.0-15.0-0.10","576ad50bc8a90000010d99c8","64d3ef96556dbe1f0e02b5aa","64db812c9b3a799113a8f7d6","","null","","","","","","","","","","","","","null","","","fallScene","","","","","","","","","","","","false","60.00185999999754","500","510.8711431702997","369.03","8","65","","",""
"","","","","","html-keyboard-response","149","646263","0.0-15.0-1.10","576ad50bc8a90000010d99c8","64d3ef96556dbe1f0e02b5aa","64db812c9b3a799113a8f7d6","","","","","","","","","","","","","","","","","","","","","","","","414.0068028317331","338.9926705061286","3812.099999964237","","","","","","","","","","","","",""
"","","","","","html-keyboard-response","149","646263","0.0-15.0-1.10","576ad50bc8a90000010d99c8","64d3ef96556dbe1f0e02b5aa","64db812c9b3a799113a8f7d6","","","","","","","","","","","","","","","","","","reconstruct","","","","","","414.0068028317331","338.9926705061286","3812.099999964237","","","","","","","","","","65","5","625","250"
"","","","","","html-keyboard-response","150","649266","0.0-15.0-0.11","576ad50bc8a90000010d99c8","64d3ef96556dbe1f0e02b5aa","64db812c9b3a799113a8f7d6","","null","","","","","","","","","","","","","null","","","fallScene","","","","","","","","","","","","true","60.001980000003236","604.4000000000001","575.4211431702997","266.76","12","66","","",""
"","","","","","html-keyboard-response","151","652445","0.0-15.0-1.11","576ad50bc8a90000010d99c8","64d3ef96556dbe1f0e02b5aa","64db812c9b3a799113a8f7d6","","","","","","","","","","","","","","","","","","","","","","","","364.00009998023336","285.00999950018513","3178.400000035763","","","","","","","","","","","","",""
"","","","","","html-keyboard-response","151","652445","0.0-15.0-1.11","576ad50bc8a90000010d99c8","64d3ef96556dbe1f0e02b5aa","64db812c9b3a799113a8f7d6","","","","","","","","","","","","","","","","","","reconstruct","","","","","","364.00009998023336","285.00999950018513","3178.400000035763","","","","","","","","","","66","4","500","350"
"","","","","","html-keyboard-response","152","655448","0.0-15.0-0.12","576ad50bc8a90000010d99c8","64d3ef96556dbe1f0e02b5aa","64db812c9b3a799113a8f7d6","","null","","","","","","","","","","","","","null","","","fallScene","","","","","","","","","","","","true","62.01705300000414","322.3","356.42114317029973","357.87","4","67","","",""
"","","","","","html-keyboard-response","153","657964","0.0-15.0-1.12","576ad50bc8a90000010d99c8","64d3ef96556dbe1f0e02b5aa","64db812c9b3a799113a8f7d6","","","","","","","","","","","","","","","","","","","","","","","","645.0027108838759","298.0096255445878","2516","","","","","","","","","","","","",""
"","","","","","html-keyboard-response","153","657964","0.0-15.0-1.12","576ad50bc8a90000010d99c8","64d3ef96556dbe1f0e02b5aa","64db812c9b3a799113a8f7d6","","","","","","","","","","","","","","","","","","reconstruct","","","","","","645.0027108838759","298.0096255445878","2516","","","","","","","","","","67","2","375","350"
"","","","","","html-keyboard-response","154","660965","0.0-15.0-0.13","576ad50bc8a90000010d99c8","64d3ef96556dbe1f0e02b5aa","64db812c9b3a799113a8f7d6","","null","","","","","","","","","","","","","null","","","fallScene","","","","","","","","","","","","true","60.003120000001516","604.4000000000001","650.0211431702996","404.58000000000004","11","68","","",""
"","","","","","html-keyboard-response","155","663898","0.0-15.0-1.13","576ad50bc8a90000010d99c8","64d3ef96556dbe1f0e02b5aa","64db812c9b3a799113a8f7d6","","","","","","","","","","","","","","","","","","","","","","","","301.0098243694256","311.9981340510752","2932.600000023842","","","","","","","","","","","","",""
"","","","","","html-keyboard-response","155","663898","0.0-15.0-1.13","576ad50bc8a90000010d99c8","64d3ef96556dbe1f0e02b5aa","64db812c9b3a799113a8f7d6","","","","","","","","","","","","","","","","","","reconstruct","","","","","","301.0098243694256","311.9981340510752","2932.600000023842","","","","","","","","","","68","6","625","350"
"","","","","","html-keyboard-response","156","666900","0.0-15.0-0.14","576ad50bc8a90000010d99c8","64d3ef96556dbe1f0e02b5aa","64db812c9b3a799113a8f7d6","","null","","","","","","","","","","","","","null","","","fallScene","","","","","","","","","","","","false","60.00821999999927","604.4000000000001","650.0211431702996","404.58000000000004","11","69","","",""
"","","","","","html-keyboard-response","157","670114","0.0-15.0-1.14","576ad50bc8a90000010d99c8","64d3ef96556dbe1f0e02b5aa","64db812c9b3a799113a8f7d6","","","","","","","","","","","","","","","","","","","","","","","","663.0068401715046","305.9927053407353","3214","","","","","","","","","","","","",""
"","","","","","html-keyboard-response","157","670114","0.0-15.0-1.14","576ad50bc8a90000010d99c8","64d3ef96556dbe1f0e02b5aa","64db812c9b3a799113a8f7d6","","","","","","","","","","","","","","","","","","reconstruct","","","","","","663.0068401715046","305.9927053407353","3214","","","","","","","","","","69","5","625","250"
"","","","","","html-keyboard-response","158","673118","0.0-15.0-0.15","576ad50bc8a90000010d99c8","64d3ef96556dbe1f0e02b5aa","64db812c9b3a799113a8f7d6","","null","","","","","","","","","","","","","null","","","fallScene","","","","","","","","","","","","false","61.998203999996534","322.3","379.3711431702997","245.25","1","70","","",""
"","","","","","html-keyboard-response","159","678245","0.0-15.0-1.15","576ad50bc8a90000010d99c8","64d3ef96556dbe1f0e02b5aa","64db812c9b3a799113a8f7d6","","","","","","","","","","","","","","","","","","","","","","","","311.99182322211027","285.0063418542938","5126.299999952316","","","","","","","","","","","","",""
"","","","","","html-keyboard-response","159","678245","0.0-15.0-1.15","576ad50bc8a90000010d99c8","64d3ef96556dbe1f0e02b5aa","64db812c9b3a799113a8f7d6","","","","","","","","","","","","","","","","","","reconstruct","","","","","","311.99182322211027","285.0063418542938","5126.299999952316","","","","","","","","","","70","3","500","250"
"","","","","","html-keyboard-response","160","681249","0.0-15.0-0.16","576ad50bc8a90000010d99c8","64d3ef96556dbe1f0e02b5aa","64db812c9b3a799113a8f7d6","","null","","","","","","","","","","","","","null","","","fallScene","","","","","","","","","","","","false","62.004059999997736","604.4000000000001","650.0211431702996","404.58000000000004","11","71","","",""
"","","","","","html-keyboard-response","161","685982","0.0-15.0-1.16","576ad50bc8a90000010d99c8","64d3ef96556dbe1f0e02b5aa","64db812c9b3a799113a8f7d6","","","","","","","","","","","","","","","","","","","","","","","","662.99","304","4733","","","","","","","","","","","","",""
"","","","","","html-keyboard-response","161","685982","0.0-15.0-1.16","576ad50bc8a90000010d99c8","64d3ef96556dbe1f0e02b5aa","64db812c9b3a799113a8f7d6","","","","","","","","","","","","","","","","","","reconstruct","","","","","","662.99","304","4733","","","","","","","","","","71","2","375","350"
"","","","","","html-keyboard-response","162","688984","0.0-15.0-0.17","576ad50bc8a90000010d99c8","64d3ef96556dbe1f0e02b5aa","64db812c9b3a799113a8f7d6","","null","","","","","","","","","","","","","null","","","fallScene","","","","","","","","","","","","false","60.00180000000168","500","453.67114317029973","210.33","5","72","","",""
"","","","","","html-keyboard-response","163","693470","0.0-15.0-1.17","576ad50bc8a90000010d99c8","64d3ef96556dbe1f0e02b5aa","64db812c9b3a799113a8f7d6","","","","","","","","","","","","","","","","","","","","","","","","465.992928682575","293.00707081818996","4485.899999976158","","","","","","","","","","","","",""
"","","","","","html-keyboard-response","163","693470","0.0-15.0-1.17","576ad50bc8a90000010d99c8","64d3ef96556dbe1f0e02b5aa","64db812c9b3a799113a8f7d6","","","","","","","","","","","","","","","","","","reconstruct","","","","","","465.992928682575","293.00707081818996","4485.899999976158","","","","","","","","","","72","2","375","350"
"","","","","","survey-text","164","726237","0.0-16.0","576ad50bc8a90000010d99c8","64d3ef96556dbe1f0e02b5aa","64db812c9b3a799113a8f7d6","","32764","","","","","","","","","","","","","{""Summary"":""I moved a traingle to where I thought the ball bounced off behind a gray screen.""}","","","","","","","","","","","","","","","","","","","","","","","",""
"","","","","","survey-text","165","727713","0.0-17.0","576ad50bc8a90000010d99c8","64d3ef96556dbe1f0e02b5aa","64db812c9b3a799113a8f7d6","","1474","","","","","","","","","","","","","{""Comments"":""""}","","","","","","","","","","","","","","","","","","","","","","","",""
