"success","timeout","failed_images","failed_audio","failed_video","trial_type","trial_index","time_elapsed","internal_node_id","subject_id","study_id","session_id","view_history","rt","width","height","webaudio","browser","browser_version","mobile","os","fullscreen","vsync_rate","webcam","microphone","url","response","triangle_prac_final_x","triangle_prac_final_y","trial_name","stimulus","ball_X_prac_occ","ball_Y_prac_occ","obstacle_X_prac_occ","obstacle_Y_prac_occ","triangle_final_x","triangle_final_y","response_time","obstacle_X_prac_occ_init","obstacle_Y_prac_occ_init","question_order","flipped","runnerFPS","ball_X","obstacle_groundTruth_x","obstacle_groundTruth_y","stimulus_idx","currentTrial","obstacle_idx","obstacle_initial_x","obstacle_initial_y"
"true","false","[]","[]","[]","preload","0","452","0.0-0.0","5b33034d975e260001e981c9","64d3ef96556dbe1f0e02b5aa","64da90b0cdf0e4e6d89333a4","","","","","","","","","","","","","","","","","","","","","","","","","","","","","","","","","","","","","","",""
"","","","","","instructions","1","9713","0.0-1.0","5b33034d975e260001e981c9","64d3ef96556dbe1f0e02b5aa","64da90b0cdf0e4e6d89333a4","[{""page_index"":0,""viewing_time"":9259}]","9259","","","","","","","","","","","","","","","","","","","","","","","","","","","","","","","","","","","","",""
"","","","","","browser-check","2","10128","0.0-2.0","5b33034d975e260001e981c9","64d3ef96556dbe1f0e02b5aa","64da90b0cdf0e4e6d89333a4","","","1920","963","true","chrome","115.0.0","false","Windows 10","true","145.88","false","false","","","","","","","","","","","","","","","","","","","","","","","","","",""
"","","","","","external-html","3","14287","0.0-3.0","5b33034d975e260001e981c9","64d3ef96556dbe1f0e02b5aa","64da90b0cdf0e4e6d89333a4","","4072","","","","","","","","","","","","consent.html","","","","","","","","","","","","","","","","","","","","","","","","",""
"true","","","","","fullscreen","4","20933","0.0-4.0","5b33034d975e260001e981c9","64d3ef96556dbe1f0e02b5aa","64da90b0cdf0e4e6d89333a4","","6143","","","","","","","","","","","","","","","","","","","","","","","","","","","","","","","","","","","","",""
"","","","","","survey-text","5","27465","0.0-5.0","5b33034d975e260001e981c9","64d3ef96556dbe1f0e02b5aa","64da90b0cdf0e4e6d89333a4","","6525","","","","","","","","","","","","","{""prolificID"":""5b33034d975e260001e981c9""}","","","","","","","","","","","","","","","","","","","","","","","",""
"","","","","","browser-check","6","27877","0.0-6.0","5b33034d975e260001e981c9","64d3ef96556dbe1f0e02b5aa","64da90b0cdf0e4e6d89333a4","","","1920","1080","true","chrome","115.0.0","false","Windows 10","true","146.02","false","false","","","","","","","","","","","","","","","","","","","","","","","","","",""
"","","","","","instructions","7","69922","0.0-7.0-0.0-0.0","5b33034d975e260001e981c9","64d3ef96556dbe1f0e02b5aa","64da90b0cdf0e4e6d89333a4","[{""page_index"":0,""viewing_time"":19266},{""page_index"":1,""viewing_time"":8440},{""page_index"":2,""viewing_time"":5803},{""page_index"":3,""viewing_time"":8536}]","42044","","","","","","","","","","","","","","","","","","","","","","","","","","","","","","","","","","","","",""
"","","","","","html-keyboard-response","8","77115","0.0-7.0-0.0-1.0","5b33034d975e260001e981c9","64d3ef96556dbe1f0e02b5aa","64da90b0cdf0e4e6d89333a4","","","","","","","","","","","","","","","","516.9999977635125","404.9900000002501","","","","","","","","","","","","","","","","","","","","","",""
"","","","","","html-keyboard-response","8","77115","0.0-7.0-0.0-1.0","5b33034d975e260001e981c9","64d3ef96556dbe1f0e02b5aa","64da90b0cdf0e4e6d89333a4","","","","","","","","","","","","","","","","","","practiceTrial_move","","","","","","","","","","","","","","","","","","","","",""
"","","","","","html-button-response","9","83738","0.0-7.0-0.0-2.0","5b33034d975e260001e981c9","64d3ef96556dbe1f0e02b5aa","64da90b0cdf0e4e6d89333a4","","6621","","","","","","","","","","","","","0","","","","<p>To help you get more comfortable with the task, let's begin with a practice trial first!</p><p>As described previously, you will first see a video of a ball falling, some of it behind a gray screen.</p><p>After the video, you will drag a triangle to the spot you think the ball hit the triangle behind the screen.</p><p>Click 'Next' to start your practice trial.</p>","","","","","","","","","","","","","","","","","","","",""
"","","","","","html-keyboard-response","10","86744","0.0-7.0-0.0-3.0","5b33034d975e260001e981c9","64d3ef96556dbe1f0e02b5aa","64da90b0cdf0e4e6d89333a4","","null","","","","","","","","","","","","","null","","","fallScene_practiceTrial_withOccluder","","400","50","420","415","","","","","","","","","","","","","","","",""
"","","","","","html-keyboard-response","11","90259","0.0-7.0-0.0-4.0","5b33034d975e260001e981c9","64d3ef96556dbe1f0e02b5aa","64da90b0cdf0e4e6d89333a4","","","","","","","","","","","","","","","","","","","","","","","","391.0071257304748","288.99298402072407","3513","","","","","","","","","","","","",""
"","","","","","html-keyboard-response","11","90259","0.0-7.0-0.0-4.0","5b33034d975e260001e981c9","64d3ef96556dbe1f0e02b5aa","64da90b0cdf0e4e6d89333a4","","","","","","","","","","","","","","","","","","reconstruct_practiceTrial_withOccluder","","","","","","391.0071257304748","288.99298402072407","3513","500","300","","","","","","","","","","",""
"","","","","","html-button-response","12","94827","0.0-7.0-0.0-5.0","5b33034d975e260001e981c9","64d3ef96556dbe1f0e02b5aa","64da90b0cdf0e4e6d89333a4","","4567","","","","","","","","","","","","","1","","","","<p>Ok! We're almost ready to get started.</p><p>We just have a <b>brief quiz</b>, to make sure you understood the task.</p><p>If you need to review the instructions, click 'Previous'.</p><p>It's important to understand the task to do the study, so you have to pass the quiz to move to the study.</p>","","","","","","","","","","","","","","","","","","","",""
"","","","","","survey-multi-choice","13","103174","0.0-7.0-1.0-0.0","5b33034d975e260001e981c9","64d3ef96556dbe1f0e02b5aa","64da90b0cdf0e4e6d89333a4","","8345","","","","","","","","","","","","","{""generalProcedure"":""Watch a video of a ball falling, some of it behind a gray screen. After each video, drag a triangle to where I think the ball hit the triangle behind the screen.""}","","","","","","","","","","","","","","[0]","","","","","","","","","",""
"","","","","","survey-multi-choice","14","107053","0.0-7.0-1.0-1.0","5b33034d975e260001e981c9","64d3ef96556dbe1f0e02b5aa","64da90b0cdf0e4e6d89333a4","","3877","","","","","","","","","","","","","{""checkBallHitObstacle"":""Yes.""}","","","","","","","","","","","","","","[0]","","","","","","","","","",""
"","","","","","survey-multi-choice","15","112440","0.0-7.0-1.0-2.0","5b33034d975e260001e981c9","64d3ef96556dbe1f0e02b5aa","64da90b0cdf0e4e6d89333a4","","5385","","","","","","","","","","","","","{""checkTriangleVisibility"":""No, the triangle is hidden behind the gray screen.""}","","","","","","","","","","","","","","[0]","","","","","","","","","",""
"","","","","","instructions","16","120441","0.0-8.0","5b33034d975e260001e981c9","64d3ef96556dbe1f0e02b5aa","64da90b0cdf0e4e6d89333a4","[{""page_index"":0,""viewing_time"":7996}]","7997","","","","","","","","","","","","","","","","","","","","","","","","","","","","","","","","","","","","",""
"","","","","","html-keyboard-response","17","123447","0.0-9.0-0.0","5b33034d975e260001e981c9","64d3ef96556dbe1f0e02b5aa","64da90b0cdf0e4e6d89333a4","","null","","","","","","","","","","","","","null","","","fallScene","","","","","","","","","","","","false","145.99209000000062","322.3","356.42114317029973","357.87","4","1","","",""
"","","","","","html-keyboard-response","18","128181","0.0-9.0-1.0","5b33034d975e260001e981c9","64d3ef96556dbe1f0e02b5aa","64da90b0cdf0e4e6d89333a4","","","","","","","","","","","","","","","","","","","","","","","","362.9999999312041","269.00999999999976","4732.600000023842","","","","","","","","","","","","",""
"","","","","","html-keyboard-response","18","128181","0.0-9.0-1.0","5b33034d975e260001e981c9","64d3ef96556dbe1f0e02b5aa","64da90b0cdf0e4e6d89333a4","","","","","","","","","","","","","","","","","","reconstruct","","","","","","362.9999999312041","269.00999999999976","4732.600000023842","","","","","","","","","","1","4","500","350"
"","","","","","html-keyboard-response","19","131189","0.0-9.0-0.1","5b33034d975e260001e981c9","64d3ef96556dbe1f0e02b5aa","64da90b0cdf0e4e6d89333a4","","null","","","","","","","","","","","","","null","","","fallScene","","","","","","","","","","","","true","145.96555499999997","322.3","356.42114317029973","357.87","4","2","","",""
"","","","","","html-keyboard-response","20","134184","0.0-9.0-1.1","5b33034d975e260001e981c9","64d3ef96556dbe1f0e02b5aa","64da90b0cdf0e4e6d89333a4","","","","","","","","","","","","","","","","","","","","","","","","670.99","261.0000000000839","2995","","","","","","","","","","","","",""
"","","","","","html-keyboard-response","20","134184","0.0-9.0-1.1","5b33034d975e260001e981c9","64d3ef96556dbe1f0e02b5aa","64da90b0cdf0e4e6d89333a4","","","","","","","","","","","","","","","","","","reconstruct","","","","","","670.99","261.0000000000839","2995","","","","","","","","","","2","5","625","250"
"","","","","","html-keyboard-response","21","137189","0.0-9.0-0.2","5b33034d975e260001e981c9","64d3ef96556dbe1f0e02b5aa","64da90b0cdf0e4e6d89333a4","","null","","","","","","","","","","","","","null","","","fallScene","","","","","","","","","","","","true","144.0354239999978","604.4000000000001","596.8711431702998","394.5","10","3","","",""
"","","","","","html-keyboard-response","22","139624","0.0-9.0-1.2","5b33034d975e260001e981c9","64d3ef96556dbe1f0e02b5aa","64da90b0cdf0e4e6d89333a4","","","","","","","","","","","","","","","","","","","","","","","","392.01","340.0000000097851","2434.2999999523163","","","","","","","","","","","","",""
"","","","","","html-keyboard-response","22","139624","0.0-9.0-1.2","5b33034d975e260001e981c9","64d3ef96556dbe1f0e02b5aa","64da90b0cdf0e4e6d89333a4","","","","","","","","","","","","","","","","","","reconstruct","","","","","","392.01","340.0000000097851","2434.2999999523163","","","","","","","","","","3","3","500","250"
"","","","","","html-keyboard-response","23","142626","0.0-9.0-0.3","5b33034d975e260001e981c9","64d3ef96556dbe1f0e02b5aa","64da90b0cdf0e4e6d89333a4","","null","","","","","","","","","","","","","null","","","fallScene","","","","","","","","","","","","false","144.03081599999686","604.4000000000001","667.6211431702998","201.78","9","4","","",""
"","","","","","html-keyboard-response","24","145642","0.0-9.0-1.3","5b33034d975e260001e981c9","64d3ef96556dbe1f0e02b5aa","64da90b0cdf0e4e6d89333a4","","","","","","","","","","","","","","","","","","","","","","","","611.0000702149154","278.00999975349026","3015.400000035763","","","","","","","","","","","","",""
"","","","","","html-keyboard-response","24","145642","0.0-9.0-1.3","5b33034d975e260001e981c9","64d3ef96556dbe1f0e02b5aa","64da90b0cdf0e4e6d89333a4","","","","","","","","","","","","","","","","","","reconstruct","","","","","","611.0000702149154","278.00999975349026","3015.400000035763","","","","","","","","","","4","2","375","350"
"","","","","","html-keyboard-response","25","148648","0.0-9.0-0.4","5b33034d975e260001e981c9","64d3ef96556dbe1f0e02b5aa","64da90b0cdf0e4e6d89333a4","","null","","","","","","","","","","","","","null","","","fallScene","","","","","","","","","","","","true","146.00760499999902","500","510.8711431702997","369.03","8","5","","",""
"","","","","","html-keyboard-response","26","150734","0.0-9.0-1.4","5b33034d975e260001e981c9","64d3ef96556dbe1f0e02b5aa","64da90b0cdf0e4e6d89333a4","","","","","","","","","","","","","","","","","","","","","","","","522.9998919545828","293.0099994162924","2086.300000011921","","","","","","","","","","","","",""
"","","","","","html-keyboard-response","26","150734","0.0-9.0-1.4","5b33034d975e260001e981c9","64d3ef96556dbe1f0e02b5aa","64da90b0cdf0e4e6d89333a4","","","","","","","","","","","","","","","","","","reconstruct","","","","","","522.9998919545828","293.0099994162924","2086.300000011921","","","","","","","","","","5","4","500","350"
"","","","","","html-keyboard-response","27","153738","0.0-9.0-0.5","5b33034d975e260001e981c9","64d3ef96556dbe1f0e02b5aa","64da90b0cdf0e4e6d89333a4","","null","","","","","","","","","","","","","null","","","fallScene","","","","","","","","","","","","false","144.00921600000186","604.4000000000001","575.4211431702997","266.76","12","6","","",""
"","","","","","html-keyboard-response","28","156368","0.0-9.0-1.5","5b33034d975e260001e981c9","64d3ef96556dbe1f0e02b5aa","64da90b0cdf0e4e6d89333a4","","","","","","","","","","","","","","","","","","","","","","","","608.9900002465067","287.0000702144864","2629.699999988079","","","","","","","","","","","","",""
"","","","","","html-keyboard-response","28","156368","0.0-9.0-1.5","5b33034d975e260001e981c9","64d3ef96556dbe1f0e02b5aa","64da90b0cdf0e4e6d89333a4","","","","","","","","","","","","","","","","","","reconstruct","","","","","","608.9900002465067","287.0000702144864","2629.699999988079","","","","","","","","","","6","4","500","350"
"","","","","","html-keyboard-response","29","159370","0.0-9.0-0.6","5b33034d975e260001e981c9","64d3ef96556dbe1f0e02b5aa","64da90b0cdf0e4e6d89333a4","","null","","","","","","","","","","","","","null","","","fallScene","","","","","","","","","","","","false","145.9733849999984","500","553.4711431702997","282.51","7","7","","",""
"","","","","","html-keyboard-response","30","161840","0.0-9.0-1.6","5b33034d975e260001e981c9","64d3ef96556dbe1f0e02b5aa","64da90b0cdf0e4e6d89333a4","","","","","","","","","","","","","","","","","","","","","","","","524.0000998958172","290.00999950102886","2469.600000023842","","","","","","","","","","","","",""
"","","","","","html-keyboard-response","30","161840","0.0-9.0-1.6","5b33034d975e260001e981c9","64d3ef96556dbe1f0e02b5aa","64da90b0cdf0e4e6d89333a4","","","","","","","","","","","","","","","","","","reconstruct","","","","","","524.0000998958172","290.00999950102886","2469.600000023842","","","","","","","","","","7","6","625","350"
"","","","","","html-keyboard-response","31","164842","0.0-9.0-0.7","5b33034d975e260001e981c9","64d3ef96556dbe1f0e02b5aa","64da90b0cdf0e4e6d89333a4","","null","","","","","","","","","","","","","null","","","fallScene","","","","","","","","","","","","false","144.01972799999825","322.3","296.07114317029976","371.46","3","8","","",""
"","","","","","html-keyboard-response","32","167326","0.0-9.0-1.7","5b33034d975e260001e981c9","64d3ef96556dbe1f0e02b5aa","64da90b0cdf0e4e6d89333a4","","","","","","","","","","","","","","","","","","","","","","","","321.0099995009493","350.9999000962181","2484.599999964237","","","","","","","","","","","","",""
"","","","","","html-keyboard-response","32","167326","0.0-9.0-1.7","5b33034d975e260001e981c9","64d3ef96556dbe1f0e02b5aa","64da90b0cdf0e4e6d89333a4","","","","","","","","","","","","","","","","","","reconstruct","","","","","","321.0099995009493","350.9999000962181","2484.599999964237","","","","","","","","","","8","5","625","250"
"","","","","","html-keyboard-response","33","170328","0.0-9.0-0.8","5b33034d975e260001e981c9","64d3ef96556dbe1f0e02b5aa","64da90b0cdf0e4e6d89333a4","","null","","","","","","","","","","","","","null","","","fallScene","","","","","","","","","","","","true","144.01252799999992","500","553.4711431702997","282.51","7","9","","",""
"","","","","","html-keyboard-response","34","172333","0.0-9.0-1.8","5b33034d975e260001e981c9","64d3ef96556dbe1f0e02b5aa","64da90b0cdf0e4e6d89333a4","","","","","","","","","","","","","","","","","","","","","","","","481.99000329554366","299.9997432900232","2004.2000000476837","","","","","","","","","","","","",""
"","","","","","html-keyboard-response","34","172333","0.0-9.0-1.8","5b33034d975e260001e981c9","64d3ef96556dbe1f0e02b5aa","64da90b0cdf0e4e6d89333a4","","","","","","","","","","","","","","","","","","reconstruct","","","","","","481.99000329554366","299.9997432900232","2004.2000000476837","","","","","","","","","","9","4","500","350"
"","","","","","html-keyboard-response","35","175335","0.0-9.0-0.9","5b33034d975e260001e981c9","64d3ef96556dbe1f0e02b5aa","64da90b0cdf0e4e6d89333a4","","null","","","","","","","","","","","","","null","","","fallScene","","","","","","","","","","","","true","146.0080399999986","500","479.92114317029973","330.87","6","10","","",""
"","","","","","html-keyboard-response","36","177640","0.0-9.0-1.9","5b33034d975e260001e981c9","64d3ef96556dbe1f0e02b5aa","64da90b0cdf0e4e6d89333a4","","","","","","","","","","","","","","","","","","","","","","","","480.9999999697334","268.00999999999993","2305.800000011921","","","","","","","","","","","","",""
"","","","","","html-keyboard-response","36","177640","0.0-9.0-1.9","5b33034d975e260001e981c9","64d3ef96556dbe1f0e02b5aa","64da90b0cdf0e4e6d89333a4","","","","","","","","","","","","","","","","","","reconstruct","","","","","","480.9999999697334","268.00999999999993","2305.800000011921","","","","","","","","","","10","4","500","350"
"","","","","","html-keyboard-response","37","180642","0.0-9.0-0.10","5b33034d975e260001e981c9","64d3ef96556dbe1f0e02b5aa","64da90b0cdf0e4e6d89333a4","","null","","","","","","","","","","","","","null","","","fallScene","","","","","","","","","","","","false","144.00575999999697","604.4000000000001","650.0211431702996","404.58000000000004","11","11","","",""
"","","","","","html-keyboard-response","38","183048","0.0-9.0-1.10","5b33034d975e260001e981c9","64d3ef96556dbe1f0e02b5aa","64da90b0cdf0e4e6d89333a4","","","","","","","","","","","","","","","","","","","","","","","","681.99","301.0000000000147","2405.199999988079","","","","","","","","","","","","",""
"","","","","","html-keyboard-response","38","183048","0.0-9.0-1.10","5b33034d975e260001e981c9","64d3ef96556dbe1f0e02b5aa","64da90b0cdf0e4e6d89333a4","","","","","","","","","","","","","","","","","","reconstruct","","","","","","681.99","301.0000000000147","2405.199999988079","","","","","","","","","","11","4","500","350"
"","","","","","html-keyboard-response","39","186049","0.0-9.0-0.11","5b33034d975e260001e981c9","64d3ef96556dbe1f0e02b5aa","64da90b0cdf0e4e6d89333a4","","null","","","","","","","","","","","","","null","","","fallScene","","","","","","","","","","","","false","145.99948499999738","322.3","356.42114317029973","357.87","4","12","","",""
"","","","","","html-keyboard-response","40","188173","0.0-9.0-1.11","5b33034d975e260001e981c9","64d3ef96556dbe1f0e02b5aa","64da90b0cdf0e4e6d89333a4","","","","","","","","","","","","","","","","","","","","","","","","324.0099997559521","299.0000698634287","2123","","","","","","","","","","","","",""
"","","","","","html-keyboard-response","40","188173","0.0-9.0-1.11","5b33034d975e260001e981c9","64d3ef96556dbe1f0e02b5aa","64da90b0cdf0e4e6d89333a4","","","","","","","","","","","","","","","","","","reconstruct","","","","","","324.0099997559521","299.0000698634287","2123","","","","","","","","","","12","2","375","350"
"","","","","","html-keyboard-response","41","191174","0.0-9.0-0.12","5b33034d975e260001e981c9","64d3ef96556dbe1f0e02b5aa","64da90b0cdf0e4e6d89333a4","","null","","","","","","","","","","","","","null","","","fallScene","","","","","","","","","","","","false","145.9820850000023","500","510.8711431702997","369.03","8","13","","",""
"","","","","","html-keyboard-response","42","193702","0.0-9.0-1.12","5b33034d975e260001e981c9","64d3ef96556dbe1f0e02b5aa","64da90b0cdf0e4e6d89333a4","","","","","","","","","","","","","","","","","","","","","","","","445.0097165754498","323.9976360707436","2527.800000011921","","","","","","","","","","","","",""
"","","","","","html-keyboard-response","42","193702","0.0-9.0-1.12","5b33034d975e260001e981c9","64d3ef96556dbe1f0e02b5aa","64da90b0cdf0e4e6d89333a4","","","","","","","","","","","","","","","","","","reconstruct","","","","","","445.0097165754498","323.9976360707436","2527.800000011921","","","","","","","","","","13","6","625","350"
"","","","","","html-keyboard-response","43","196704","0.0-9.0-0.13","5b33034d975e260001e981c9","64d3ef96556dbe1f0e02b5aa","64da90b0cdf0e4e6d89333a4","","null","","","","","","","","","","","","","null","","","fallScene","","","","","","","","","","","","true","144.03499200000243","322.3","296.07114317029976","371.46","3","14","","",""
"","","","","","html-keyboard-response","44","198960","0.0-9.0-1.13","5b33034d975e260001e981c9","64d3ef96556dbe1f0e02b5aa","64da90b0cdf0e4e6d89333a4","","","","","","","","","","","","","","","","","","","","","","","","691.9999805478336","293.0099999810806","2255","","","","","","","","","","","","",""
"","","","","","html-keyboard-response","44","198960","0.0-9.0-1.13","5b33034d975e260001e981c9","64d3ef96556dbe1f0e02b5aa","64da90b0cdf0e4e6d89333a4","","","","","","","","","","","","","","","","","","reconstruct","","","","","","691.9999805478336","293.0099999810806","2255","","","","","","","","","","14","4","500","350"
"","","","","","html-keyboard-response","45","201965","0.0-9.0-0.14","5b33034d975e260001e981c9","64d3ef96556dbe1f0e02b5aa","64da90b0cdf0e4e6d89333a4","","null","","","","","","","","","","","","","null","","","fallScene","","","","","","","","","","","","false","145.9723699999966","322.3","356.42114317029973","357.87","4","15","","",""
"","","","","","html-keyboard-response","46","205182","0.0-9.0-1.14","5b33034d975e260001e981c9","64d3ef96556dbe1f0e02b5aa","64da90b0cdf0e4e6d89333a4","","","","","","","","","","","","","","","","","","","","","","","","359.9946985685168","286.99117257376736","3216.699999988079","","","","","","","","","","","","",""
"","","","","","html-keyboard-response","46","205182","0.0-9.0-1.14","5b33034d975e260001e981c9","64d3ef96556dbe1f0e02b5aa","64da90b0cdf0e4e6d89333a4","","","","","","","","","","","","","","","","","","reconstruct","","","","","","359.9946985685168","286.99117257376736","3216.699999988079","","","","","","","","","","15","6","625","350"
"","","","","","html-keyboard-response","47","208188","0.0-9.0-0.15","5b33034d975e260001e981c9","64d3ef96556dbe1f0e02b5aa","64da90b0cdf0e4e6d89333a4","","null","","","","","","","","","","","","","null","","","fallScene","","","","","","","","","","","","false","145.98643500000207","322.3","379.3711431702997","245.25","1","16","","",""
"","","","","","html-keyboard-response","48","211409","0.0-9.0-1.15","5b33034d975e260001e981c9","64d3ef96556dbe1f0e02b5aa","64da90b0cdf0e4e6d89333a4","","","","","","","","","","","","","","","","","","","","","","","","339.99999934040574","283.9900000000218","3220.2000000476837","","","","","","","","","","","","",""
"","","","","","html-keyboard-response","48","211409","0.0-9.0-1.15","5b33034d975e260001e981c9","64d3ef96556dbe1f0e02b5aa","64da90b0cdf0e4e6d89333a4","","","","","","","","","","","","","","","","","","reconstruct","","","","","","339.99999934040574","283.9900000000218","3220.2000000476837","","","","","","","","","","16","3","500","250"
"","","","","","html-keyboard-response","49","214410","0.0-9.0-0.16","5b33034d975e260001e981c9","64d3ef96556dbe1f0e02b5aa","64da90b0cdf0e4e6d89333a4","","null","","","","","","","","","","","","","null","","","fallScene","","","","","","","","","","","","false","145.99136499999994","500","453.67114317029973","210.33","5","17","","",""
"","","","","","html-keyboard-response","50","216635","0.0-9.0-1.16","5b33034d975e260001e981c9","64d3ef96556dbe1f0e02b5aa","64da90b0cdf0e4e6d89333a4","","","","","","","","","","","","","","","","","","","","","","","","490.9999301521486","278.0099997560609","2224","","","","","","","","","","","","",""
"","","","","","html-keyboard-response","50","216635","0.0-9.0-1.16","5b33034d975e260001e981c9","64d3ef96556dbe1f0e02b5aa","64da90b0cdf0e4e6d89333a4","","","","","","","","","","","","","","","","","","reconstruct","","","","","","490.9999301521486","278.0099997560609","2224","","","","","","","","","","17","1","375","250"
"","","","","","html-keyboard-response","51","219640","0.0-9.0-0.17","5b33034d975e260001e981c9","64d3ef96556dbe1f0e02b5aa","64da90b0cdf0e4e6d89333a4","","null","","","","","","","","","","","","","null","","","fallScene","","","","","","","","","","","","true","144.02347200000006","604.4000000000001","596.8711431702998","394.5","10","18","","",""
"","","","","","html-keyboard-response","52","221851","0.0-9.0-1.17","5b33034d975e260001e981c9","64d3ef96556dbe1f0e02b5aa","64da90b0cdf0e4e6d89333a4","","","","","","","","","","","","","","","","","","","","","","","","376.00009999500037","303.0099995000375","2210.800000011921","","","","","","","","","","","","",""
"","","","","","html-keyboard-response","52","221851","0.0-9.0-1.17","5b33034d975e260001e981c9","64d3ef96556dbe1f0e02b5aa","64da90b0cdf0e4e6d89333a4","","","","","","","","","","","","","","","","","","reconstruct","","","","","","376.00009999500037","303.0099995000375","2210.800000011921","","","","","","","","","","18","4","500","350"
"","","","","","html-button-response","53","223363","0.0-10.0","5b33034d975e260001e981c9","64d3ef96556dbe1f0e02b5aa","64da90b0cdf0e4e6d89333a4","","1511","","","","","","","","","","","","","0","","","","<p><span style = ""font-size:40px;"">BREAK</span></p><p>You are doing great! Click 'Next' when you are ready for the next set.</p>","","","","","","","","","","","","","","","","","","","",""
"","","","","","html-keyboard-response","54","226369","0.0-11.0-0.0","5b33034d975e260001e981c9","64d3ef96556dbe1f0e02b5aa","64da90b0cdf0e4e6d89333a4","","null","","","","","","","","","","","","","null","","","fallScene","","","","","","","","","","","","true","146.0064449999988","500","510.8711431702997","369.03","8","19","","",""
"","","","","","html-keyboard-response","55","228576","0.0-11.0-1.0","5b33034d975e260001e981c9","64d3ef96556dbe1f0e02b5aa","64da90b0cdf0e4e6d89333a4","","","","","","","","","","","","","","","","","","","","","","","","493.0099994082159","306.9998912096862","2206.699999988079","","","","","","","","","","","","",""
"","","","","","html-keyboard-response","55","228576","0.0-11.0-1.0","5b33034d975e260001e981c9","64d3ef96556dbe1f0e02b5aa","64da90b0cdf0e4e6d89333a4","","","","","","","","","","","","","","","","","","reconstruct","","","","","","493.0099994082159","306.9998912096862","2206.699999988079","","","","","","","","","","19","1","375","250"
"","","","","","html-keyboard-response","56","231577","0.0-11.0-0.1","5b33034d975e260001e981c9","64d3ef96556dbe1f0e02b5aa","64da90b0cdf0e4e6d89333a4","","null","","","","","","","","","","","","","null","","","fallScene","","","","","","","","","","","","true","146.00325499999917","604.4000000000001","667.6211431702998","201.78","9","20","","",""
"","","","","","html-keyboard-response","57","233705","0.0-11.0-1.1","5b33034d975e260001e981c9","64d3ef96556dbe1f0e02b5aa","64da90b0cdf0e4e6d89333a4","","","","","","","","","","","","","","","","","","","","","","","","397.99999999999756","326.01","2127.199999988079","","","","","","","","","","","","",""
"","","","","","html-keyboard-response","57","233705","0.0-11.0-1.1","5b33034d975e260001e981c9","64d3ef96556dbe1f0e02b5aa","64da90b0cdf0e4e6d89333a4","","","","","","","","","","","","","","","","","","reconstruct","","","","","","397.99999999999756","326.01","2127.199999988079","","","","","","","","","","20","6","625","350"
"","","","","","html-keyboard-response","58","236708","0.0-11.0-0.2","5b33034d975e260001e981c9","64d3ef96556dbe1f0e02b5aa","64da90b0cdf0e4e6d89333a4","","null","","","","","","","","","","","","","null","","","fallScene","","","","","","","","","","","","true","144.00547200000005","604.4000000000001","667.6211431702998","201.78","9","21","","",""
"","","","","","html-keyboard-response","59","238774","0.0-11.0-1.2","5b33034d975e260001e981c9","64d3ef96556dbe1f0e02b5aa","64da90b0cdf0e4e6d89333a4","","","","","","","","","","","","","","","","","","","","","","","","390.01","334.00000000033316","2066.099999964237","","","","","","","","","","","","",""
"","","","","","html-keyboard-response","59","238774","0.0-11.0-1.2","5b33034d975e260001e981c9","64d3ef96556dbe1f0e02b5aa","64da90b0cdf0e4e6d89333a4","","","","","","","","","","","","","","","","","","reconstruct","","","","","","390.01","334.00000000033316","2066.099999964237","","","","","","","","","","21","4","500","350"
"","","","","","html-keyboard-response","60","241778","0.0-11.0-0.3","5b33034d975e260001e981c9","64d3ef96556dbe1f0e02b5aa","64da90b0cdf0e4e6d89333a4","","null","","","","","","","","","","","","","null","","","fallScene","","","","","","","","","","","","false","145.99803500000021","322.3","296.07114317029976","371.46","3","22","","",""
"","","","","","html-keyboard-response","61","243997","0.0-11.0-1.3","5b33034d975e260001e981c9","64d3ef96556dbe1f0e02b5aa","64da90b0cdf0e4e6d89333a4","","","","","","","","","","","","","","","","","","","","","","","","345.99070390994086","385.00368547278003","2218.7999999523163","","","","","","","","","","","","",""
"","","","","","html-keyboard-response","61","243997","0.0-11.0-1.3","5b33034d975e260001e981c9","64d3ef96556dbe1f0e02b5aa","64da90b0cdf0e4e6d89333a4","","","","","","","","","","","","","","","","","","reconstruct","","","","","","345.99070390994086","385.00368547278003","2218.7999999523163","","","","","","","","","","22","1","375","250"
"","","","","","html-keyboard-response","62","247001","0.0-11.0-0.4","5b33034d975e260001e981c9","64d3ef96556dbe1f0e02b5aa","64da90b0cdf0e4e6d89333a4","","null","","","","","","","","","","","","","null","","","fallScene","","","","","","","","","","","","true","146.00441499999943","322.3","379.3711431702997","245.25","1","23","","",""
"","","","","","html-keyboard-response","63","249190","0.0-11.0-1.4","5b33034d975e260001e981c9","64d3ef96556dbe1f0e02b5aa","64da90b0cdf0e4e6d89333a4","","","","","","","","","","","","","","","","","","","","","","","","668.99","352","2189.2000000476837","","","","","","","","","","","","",""
"","","","","","html-keyboard-response","63","249190","0.0-11.0-1.4","5b33034d975e260001e981c9","64d3ef96556dbe1f0e02b5aa","64da90b0cdf0e4e6d89333a4","","","","","","","","","","","","","","","","","","reconstruct","","","","","","668.99","352","2189.2000000476837","","","","","","","","","","23","4","500","350"
"","","","","","html-keyboard-response","64","252194","0.0-11.0-0.5","5b33034d975e260001e981c9","64d3ef96556dbe1f0e02b5aa","64da90b0cdf0e4e6d89333a4","","null","","","","","","","","","","","","","null","","","fallScene","","","","","","","","","","","","true","146.00340000000188","604.4000000000001","667.6211431702998","201.78","9","24","","",""
"","","","","","html-keyboard-response","65","254308","0.0-11.0-1.5","5b33034d975e260001e981c9","64d3ef96556dbe1f0e02b5aa","64da90b0cdf0e4e6d89333a4","","","","","","","","","","","","","","","","","","","","","","","","370.9999999999884","355.99","2113.399999976158","","","","","","","","","","","","",""
"","","","","","html-keyboard-response","65","254308","0.0-11.0-1.5","5b33034d975e260001e981c9","64d3ef96556dbe1f0e02b5aa","64da90b0cdf0e4e6d89333a4","","","","","","","","","","","","","","","","","","reconstruct","","","","","","370.9999999999884","355.99","2113.399999976158","","","","","","","","","","24","3","500","250"
"","","","","","html-keyboard-response","66","257313","0.0-11.0-0.6","5b33034d975e260001e981c9","64d3ef96556dbe1f0e02b5aa","64da90b0cdf0e4e6d89333a4","","null","","","","","","","","","","","","","null","","","fallScene","","","","","","","","","","","","false","144.0135360000017","500","453.67114317029973","210.33","5","25","","",""
"","","","","","html-keyboard-response","67","259160","0.0-11.0-1.6","5b33034d975e260001e981c9","64d3ef96556dbe1f0e02b5aa","64da90b0cdf0e4e6d89333a4","","","","","","","","","","","","","","","","","","","","","","","","557.99","378.9999999999991","1847.1000000238419","","","","","","","","","","","","",""
"","","","","","html-keyboard-response","67","259160","0.0-11.0-1.6","5b33034d975e260001e981c9","64d3ef96556dbe1f0e02b5aa","64da90b0cdf0e4e6d89333a4","","","","","","","","","","","","","","","","","","reconstruct","","","","","","557.99","378.9999999999991","1847.1000000238419","","","","","","","","","","25","4","500","350"
"","","","","","html-keyboard-response","68","262167","0.0-11.0-0.7","5b33034d975e260001e981c9","64d3ef96556dbe1f0e02b5aa","64da90b0cdf0e4e6d89333a4","","null","","","","","","","","","","","","","null","","","fallScene","","","","","","","","","","","","false","146.0045599999979","322.3","379.3711431702997","245.25","1","26","","",""
"","","","","","html-keyboard-response","69","264289","0.0-11.0-1.7","5b33034d975e260001e981c9","64d3ef96556dbe1f0e02b5aa","64da90b0cdf0e4e6d89333a4","","","","","","","","","","","","","","","","","","","","","","","","322.9922446554859","310.0063130524683","2121.099999964237","","","","","","","","","","","","",""
"","","","","","html-keyboard-response","69","264289","0.0-11.0-1.7","5b33034d975e260001e981c9","64d3ef96556dbe1f0e02b5aa","64da90b0cdf0e4e6d89333a4","","","","","","","","","","","","","","","","","","reconstruct","","","","","","322.9922446554859","310.0063130524683","2121.099999964237","","","","","","","","","","26","1","375","250"
"","","","","","html-keyboard-response","70","267292","0.0-11.0-0.8","5b33034d975e260001e981c9","64d3ef96556dbe1f0e02b5aa","64da90b0cdf0e4e6d89333a4","","null","","","","","","","","","","","","","null","","","fallScene","","","","","","","","","","","","false","144.0113760000039","604.4000000000001","650.0211431702996","404.58000000000004","11","27","","",""
"","","","","","html-keyboard-response","71","269536","0.0-11.0-1.8","5b33034d975e260001e981c9","64d3ef96556dbe1f0e02b5aa","64da90b0cdf0e4e6d89333a4","","","","","","","","","","","","","","","","","","","","","","","","640.0099995001874","392.9999000199933","2243","","","","","","","","","","","","",""
"","","","","","html-keyboard-response","71","269536","0.0-11.0-1.8","5b33034d975e260001e981c9","64d3ef96556dbe1f0e02b5aa","64da90b0cdf0e4e6d89333a4","","","","","","","","","","","","","","","","","","reconstruct","","","","","","640.0099995001874","392.9999000199933","2243","","","","","","","","","","27","3","500","250"
"","","","","","html-keyboard-response","72","272537","0.0-11.0-0.9","5b33034d975e260001e981c9","64d3ef96556dbe1f0e02b5aa","64da90b0cdf0e4e6d89333a4","","null","","","","","","","","","","","","","null","","","fallScene","","","","","","","","","","","","true","144.03960000000336","500","553.4711431702997","282.51","7","28","","",""
"","","","","","html-keyboard-response","73","274596","0.0-11.0-1.9","5b33034d975e260001e981c9","64d3ef96556dbe1f0e02b5aa","64da90b0cdf0e4e6d89333a4","","","","","","","","","","","","","","","","","","","","","","","","485.00368788909435","361.00929513173804","2058.5","","","","","","","","","","","","",""
"","","","","","html-keyboard-response","73","274596","0.0-11.0-1.9","5b33034d975e260001e981c9","64d3ef96556dbe1f0e02b5aa","64da90b0cdf0e4e6d89333a4","","","","","","","","","","","","","","","","","","reconstruct","","","","","","485.00368788909435","361.00929513173804","2058.5","","","","","","","","","","28","5","625","250"
"","","","","","html-keyboard-response","74","277598","0.0-11.0-0.10","5b33034d975e260001e981c9","64d3ef96556dbe1f0e02b5aa","64da90b0cdf0e4e6d89333a4","","null","","","","","","","","","","","","","null","","","fallScene","","","","","","","","","","","","true","146.00282000000385","500","553.4711431702997","282.51","7","29","","",""
"","","","","","html-keyboard-response","75","280394","0.0-11.0-1.10","5b33034d975e260001e981c9","64d3ef96556dbe1f0e02b5aa","64da90b0cdf0e4e6d89333a4","","","","","","","","","","","","","","","","","","","","","","","","501","395.01","2795.5","","","","","","","","","","","","",""
"","","","","","html-keyboard-response","75","280394","0.0-11.0-1.10","5b33034d975e260001e981c9","64d3ef96556dbe1f0e02b5aa","64da90b0cdf0e4e6d89333a4","","","","","","","","","","","","","","","","","","reconstruct","","","","","","501","395.01","2795.5","","","","","","","","","","29","2","375","350"
"","","","","","html-keyboard-response","76","283397","0.0-11.0-0.11","5b33034d975e260001e981c9","64d3ef96556dbe1f0e02b5aa","64da90b0cdf0e4e6d89333a4","","null","","","","","","","","","","","","","null","","","fallScene","","","","","","","","","","","","true","144.02606399999743","604.4000000000001","650.0211431702996","404.58000000000004","11","30","","",""
"","","","","","html-keyboard-response","77","286043","0.0-11.0-1.11","5b33034d975e260001e981c9","64d3ef96556dbe1f0e02b5aa","64da90b0cdf0e4e6d89333a4","","","","","","","","","","","","","","","","","","","","","","","","361.0000000001126","357.01","2645.900000035763","","","","","","","","","","","","",""
"","","","","","html-keyboard-response","77","286043","0.0-11.0-1.11","5b33034d975e260001e981c9","64d3ef96556dbe1f0e02b5aa","64da90b0cdf0e4e6d89333a4","","","","","","","","","","","","","","","","","","reconstruct","","","","","","361.0000000001126","357.01","2645.900000035763","","","","","","","","","","30","2","375","350"
"","","","","","html-keyboard-response","78","289048","0.0-11.0-0.12","5b33034d975e260001e981c9","64d3ef96556dbe1f0e02b5aa","64da90b0cdf0e4e6d89333a4","","null","","","","","","","","","","","","","null","","","fallScene","","","","","","","","","","","","true","145.9758499999973","604.4000000000001","667.6211431702998","201.78","9","31","","",""
"","","","","","html-keyboard-response","79","291361","0.0-11.0-1.12","5b33034d975e260001e981c9","64d3ef96556dbe1f0e02b5aa","64da90b0cdf0e4e6d89333a4","","","","","","","","","","","","","","","","","","","","","","","","389.99","372","2312.199999988079","","","","","","","","","","","","",""
"","","","","","html-keyboard-response","79","291361","0.0-11.0-1.12","5b33034d975e260001e981c9","64d3ef96556dbe1f0e02b5aa","64da90b0cdf0e4e6d89333a4","","","","","","","","","","","","","","","","","","reconstruct","","","","","","389.99","372","2312.199999988079","","","","","","","","","","31","1","375","250"
"","","","","","html-keyboard-response","80","294369","0.0-11.0-0.13","5b33034d975e260001e981c9","64d3ef96556dbe1f0e02b5aa","64da90b0cdf0e4e6d89333a4","","null","","","","","","","","","","","","","null","","","fallScene","","","","","","","","","","","","true","146.0029650000023","604.4000000000001","650.0211431702996","404.58000000000004","11","32","","",""
"","","","","","html-keyboard-response","81","296856","0.0-11.0-1.13","5b33034d975e260001e981c9","64d3ef96556dbe1f0e02b5aa","64da90b0cdf0e4e6d89333a4","","","","","","","","","","","","","","","","","","","","","","","","371.99289345355584","389.00703541026786","2487.300000011921","","","","","","","","","","","","",""
"","","","","","html-keyboard-response","81","296856","0.0-11.0-1.13","5b33034d975e260001e981c9","64d3ef96556dbe1f0e02b5aa","64da90b0cdf0e4e6d89333a4","","","","","","","","","","","","","","","","","","reconstruct","","","","","","371.99289345355584","389.00703541026786","2487.300000011921","","","","","","","","","","32","1","375","250"
"","","","","","html-keyboard-response","82","299862","0.0-11.0-0.14","5b33034d975e260001e981c9","64d3ef96556dbe1f0e02b5aa","64da90b0cdf0e4e6d89333a4","","null","","","","","","","","","","","","","null","","","fallScene","","","","","","","","","","","","false","145.9883199999988","322.3","308.07114317029976","253.89","2","33","","",""
"","","","","","html-keyboard-response","83","303444","0.0-11.0-1.14","5b33034d975e260001e981c9","64d3ef96556dbe1f0e02b5aa","64da90b0cdf0e4e6d89333a4","","","","","","","","","","","","","","","","","","","","","","","","368.0099995000375","307.00009999500037","3581.399999976158","","","","","","","","","","","","",""
"","","","","","html-keyboard-response","83","303444","0.0-11.0-1.14","5b33034d975e260001e981c9","64d3ef96556dbe1f0e02b5aa","64da90b0cdf0e4e6d89333a4","","","","","","","","","","","","","","","","","","reconstruct","","","","","","368.0099995000375","307.00009999500037","3581.399999976158","","","","","","","","","","33","5","625","250"
"","","","","","html-keyboard-response","84","306452","0.0-11.0-0.15","5b33034d975e260001e981c9","64d3ef96556dbe1f0e02b5aa","64da90b0cdf0e4e6d89333a4","","null","","","","","","","","","","","","","null","","","fallScene","","","","","","","","","","","","true","145.9820850000065","322.3","308.07114317029976","253.89","2","34","","",""
"","","","","","html-keyboard-response","85","308968","0.0-11.0-1.15","5b33034d975e260001e981c9","64d3ef96556dbe1f0e02b5aa","64da90b0cdf0e4e6d89333a4","","","","","","","","","","","","","","","","","","","","","","","","612.9900002444433","330.99993007999643","2516.300000011921","","","","","","","","","","","","",""
"","","","","","html-keyboard-response","85","308969","0.0-11.0-1.15","5b33034d975e260001e981c9","64d3ef96556dbe1f0e02b5aa","64da90b0cdf0e4e6d89333a4","","","","","","","","","","","","","","","","","","reconstruct","","","","","","612.9900002444433","330.99993007999643","2516.300000011921","","","","","","","","","","34","3","500","250"
"","","","","","html-keyboard-response","86","311973","0.0-11.0-0.16","5b33034d975e260001e981c9","64d3ef96556dbe1f0e02b5aa","64da90b0cdf0e4e6d89333a4","","null","","","","","","","","","","","","","null","","","fallScene","","","","","","","","","","","","false","144.0066240000045","500","453.67114317029973","210.33","5","35","","",""
"","","","","","html-keyboard-response","87","314266","0.0-11.0-1.16","5b33034d975e260001e981c9","64d3ef96556dbe1f0e02b5aa","64da90b0cdf0e4e6d89333a4","","","","","","","","","","","","","","","","","","","","","","","","522.0099995004318","361.0000999555558","2293.199999988079","","","","","","","","","","","","",""
"","","","","","html-keyboard-response","87","314266","0.0-11.0-1.16","5b33034d975e260001e981c9","64d3ef96556dbe1f0e02b5aa","64da90b0cdf0e4e6d89333a4","","","","","","","","","","","","","","","","","","reconstruct","","","","","","522.0099995004318","361.0000999555558","2293.199999988079","","","","","","","","","","35","6","625","350"
"","","","","","html-keyboard-response","88","317272","0.0-11.0-0.17","5b33034d975e260001e981c9","64d3ef96556dbe1f0e02b5aa","64da90b0cdf0e4e6d89333a4","","null","","","","","","","","","","","","","null","","","fallScene","","","","","","","","","","","","false","144.0328320000004","500","553.4711431702997","282.51","7","36","","",""
"","","","","","html-keyboard-response","89","319541","0.0-11.0-1.17","5b33034d975e260001e981c9","64d3ef96556dbe1f0e02b5aa","64da90b0cdf0e4e6d89333a4","","","","","","","","","","","","","","","","","","","","","","","","457","368.01","2268.599999964237","","","","","","","","","","","","",""
"","","","","","html-keyboard-response","89","319541","0.0-11.0-1.17","5b33034d975e260001e981c9","64d3ef96556dbe1f0e02b5aa","64da90b0cdf0e4e6d89333a4","","","","","","","","","","","","","","","","","","reconstruct","","","","","","457","368.01","2268.599999964237","","","","","","","","","","36","3","500","250"
"","","","","","html-button-response","90","321048","0.0-12.0","5b33034d975e260001e981c9","64d3ef96556dbe1f0e02b5aa","64da90b0cdf0e4e6d89333a4","","1507","","","","","","","","","","","","","0","","","","<p><span style = ""font-size:40px;"">BREAK</span></p><p>You are halfway done! Click 'Next' when you are ready for the next set.</p>","","","","","","","","","","","","","","","","","","","",""
"","","","","","html-keyboard-response","91","324049","0.0-13.0-0.0","5b33034d975e260001e981c9","64d3ef96556dbe1f0e02b5aa","64da90b0cdf0e4e6d89333a4","","null","","","","","","","","","","","","","null","","","fallScene","","","","","","","","","","","","true","146.0051400000043","604.4000000000001","650.0211431702996","404.58000000000004","11","37","","",""
"","","","","","html-keyboard-response","92","325869","0.0-13.0-1.0","5b33034d975e260001e981c9","64d3ef96556dbe1f0e02b5aa","64da90b0cdf0e4e6d89333a4","","","","","","","","","","","","","","","","","","","","","","","","379.00000000000136","351.99","1819.5","","","","","","","","","","","","",""
"","","","","","html-keyboard-response","92","325869","0.0-13.0-1.0","5b33034d975e260001e981c9","64d3ef96556dbe1f0e02b5aa","64da90b0cdf0e4e6d89333a4","","","","","","","","","","","","","","","","","","reconstruct","","","","","","379.00000000000136","351.99","1819.5","","","","","","","","","","37","5","625","250"
"","","","","","html-keyboard-response","93","328873","0.0-13.0-0.1","5b33034d975e260001e981c9","64d3ef96556dbe1f0e02b5aa","64da90b0cdf0e4e6d89333a4","","null","","","","","","","","","","","","","null","","","fallScene","","","","","","","","","","","","true","144.0015839999998","604.4000000000001","596.8711431702998","394.5","10","38","","",""
"","","","","","html-keyboard-response","94","331473","0.0-13.0-1.1","5b33034d975e260001e981c9","64d3ef96556dbe1f0e02b5aa","64da90b0cdf0e4e6d89333a4","","","","","","","","","","","","","","","","","","","","","","","","370.99","303","2599.5","","","","","","","","","","","","",""
"","","","","","html-keyboard-response","94","331473","0.0-13.0-1.1","5b33034d975e260001e981c9","64d3ef96556dbe1f0e02b5aa","64da90b0cdf0e4e6d89333a4","","","","","","","","","","","","","","","","","","reconstruct","","","","","","370.99","303","2599.5","","","","","","","","","","38","1","375","250"
"","","","","","html-keyboard-response","95","334479","0.0-13.0-0.2","5b33034d975e260001e981c9","64d3ef96556dbe1f0e02b5aa","64da90b0cdf0e4e6d89333a4","","null","","","","","","","","","","","","","null","","","fallScene","","","","","","","","","","","","false","145.98716000000275","604.4000000000001","667.6211431702998","201.78","9","39","","",""
"","","","","","html-keyboard-response","96","336944","0.0-13.0-1.2","5b33034d975e260001e981c9","64d3ef96556dbe1f0e02b5aa","64da90b0cdf0e4e6d89333a4","","","","","","","","","","","","","","","","","","","","","","","","578.0000668999489","367.00999977621734","2464.900000035763","","","","","","","","","","","","",""
"","","","","","html-keyboard-response","96","336944","0.0-13.0-1.2","5b33034d975e260001e981c9","64d3ef96556dbe1f0e02b5aa","64da90b0cdf0e4e6d89333a4","","","","","","","","","","","","","","","","","","reconstruct","","","","","","578.0000668999489","367.00999977621734","2464.900000035763","","","","","","","","","","39","5","625","250"
"","","","","","html-keyboard-response","97","339952","0.0-13.0-0.3","5b33034d975e260001e981c9","64d3ef96556dbe1f0e02b5aa","64da90b0cdf0e4e6d89333a4","","null","","","","","","","","","","","","","null","","","fallScene","","","","","","","","","","","","true","144.02851200000475","322.3","308.07114317029976","253.89","2","40","","",""
"","","","","","html-keyboard-response","98","343552","0.0-13.0-1.3","5b33034d975e260001e981c9","64d3ef96556dbe1f0e02b5aa","64da90b0cdf0e4e6d89333a4","","","","","","","","","","","","","","","","","","","","","","","","619.9965094438946","273.98062903852485","3600.199999988079","","","","","","","","","","","","",""
"","","","","","html-keyboard-response","98","343552","0.0-13.0-1.3","5b33034d975e260001e981c9","64d3ef96556dbe1f0e02b5aa","64da90b0cdf0e4e6d89333a4","","","","","","","","","","","","","","","","","","reconstruct","","","","","","619.9965094438946","273.98062903852485","3600.199999988079","","","","","","","","","","40","4","500","350"
"","","","","","html-keyboard-response","99","346555","0.0-13.0-0.4","5b33034d975e260001e981c9","64d3ef96556dbe1f0e02b5aa","64da90b0cdf0e4e6d89333a4","","null","","","","","","","","","","","","","null","","","fallScene","","","","","","","","","","","","false","145.96744000000297","322.3","308.07114317029976","253.89","2","41","","",""
"","","","","","html-keyboard-response","100","348873","0.0-13.0-1.4","5b33034d975e260001e981c9","64d3ef96556dbe1f0e02b5aa","64da90b0cdf0e4e6d89333a4","","","","","","","","","","","","","","","","","","","","","","","","336.00999723328374","303.99976478377863","2317.400000035763","","","","","","","","","","","","",""
"","","","","","html-keyboard-response","100","348873","0.0-13.0-1.4","5b33034d975e260001e981c9","64d3ef96556dbe1f0e02b5aa","64da90b0cdf0e4e6d89333a4","","","","","","","","","","","","","","","","","","reconstruct","","","","","","336.00999723328374","303.99976478377863","2317.400000035763","","","","","","","","","","41","6","625","350"
"","","","","","html-keyboard-response","101","351875","0.0-13.0-0.5","5b33034d975e260001e981c9","64d3ef96556dbe1f0e02b5aa","64da90b0cdf0e4e6d89333a4","","null","","","","","","","","","","","","","null","","","fallScene","","","","","","","","","","","","false","144.02318400000314","500","479.92114317029973","330.87","6","42","","",""
"","","","","","html-keyboard-response","102","353966","0.0-13.0-1.5","5b33034d975e260001e981c9","64d3ef96556dbe1f0e02b5aa","64da90b0cdf0e4e6d89333a4","","","","","","","","","","","","","","","","","","","","","","","","517.0099999999808","340.00000061980626","2090.900000035763","","","","","","","","","","","","",""
"","","","","","html-keyboard-response","102","353966","0.0-13.0-1.5","5b33034d975e260001e981c9","64d3ef96556dbe1f0e02b5aa","64da90b0cdf0e4e6d89333a4","","","","","","","","","","","","","","","","","","reconstruct","","","","","","517.0099999999808","340.00000061980626","2090.900000035763","","","","","","","","","","42","5","625","250"
"","","","","","html-keyboard-response","103","356972","0.0-13.0-0.6","5b33034d975e260001e981c9","64d3ef96556dbe1f0e02b5aa","64da90b0cdf0e4e6d89333a4","","null","","","","","","","","","","","","","null","","","fallScene","","","","","","","","","","","","false","144.00460799999254","500","553.4711431702997","282.51","7","43","","",""
"","","","","","html-keyboard-response","104","359667","0.0-13.0-1.6","5b33034d975e260001e981c9","64d3ef96556dbe1f0e02b5aa","64da90b0cdf0e4e6d89333a4","","","","","","","","","","","","","","","","","","","","","","","","512.0098365738867","329.99819949613413","2696.699999988079","","","","","","","","","","","","",""
"","","","","","html-keyboard-response","104","359667","0.0-13.0-1.6","5b33034d975e260001e981c9","64d3ef96556dbe1f0e02b5aa","64da90b0cdf0e4e6d89333a4","","","","","","","","","","","","","","","","","","reconstruct","","","","","","512.0098365738867","329.99819949613413","2696.699999988079","","","","","","","","","","43","1","375","250"
"","","","","","html-keyboard-response","105","362671","0.0-13.0-0.7","5b33034d975e260001e981c9","64d3ef96556dbe1f0e02b5aa","64da90b0cdf0e4e6d89333a4","","null","","","","","","","","","","","","","null","","","fallScene","","","","","","","","","","","","true","144.0116640000008","500","479.92114317029973","330.87","6","44","","",""
"","","","","","html-keyboard-response","106","365315","0.0-13.0-1.7","5b33034d975e260001e981c9","64d3ef96556dbe1f0e02b5aa","64da90b0cdf0e4e6d89333a4","","","","","","","","","","","","","","","","","","","","","","","","491.00836659703816","312.00547723050465","2644.099999964237","","","","","","","","","","","","",""
"","","","","","html-keyboard-response","106","365315","0.0-13.0-1.7","5b33034d975e260001e981c9","64d3ef96556dbe1f0e02b5aa","64da90b0cdf0e4e6d89333a4","","","","","","","","","","","","","","","","","","reconstruct","","","","","","491.00836659703816","312.00547723050465","2644.099999964237","","","","","","","","","","44","6","625","350"
"","","","","","html-keyboard-response","107","368317","0.0-13.0-0.8","5b33034d975e260001e981c9","64d3ef96556dbe1f0e02b5aa","64da90b0cdf0e4e6d89333a4","","null","","","","","","","","","","","","","null","","","fallScene","","","","","","","","","","","","true","144.00460800000093","322.3","296.07114317029976","371.46","3","45","","",""
"","","","","","html-keyboard-response","108","370509","0.0-13.0-1.8","5b33034d975e260001e981c9","64d3ef96556dbe1f0e02b5aa","64da90b0cdf0e4e6d89333a4","","","","","","","","","","","","","","","","","","","","","","","","698.9985251815074","331.0098906476236","2191.099999964237","","","","","","","","","","","","",""
"","","","","","html-keyboard-response","108","370509","0.0-13.0-1.8","5b33034d975e260001e981c9","64d3ef96556dbe1f0e02b5aa","64da90b0cdf0e4e6d89333a4","","","","","","","","","","","","","","","","","","reconstruct","","","","","","698.9985251815074","331.0098906476236","2191.099999964237","","","","","","","","","","45","2","375","350"
"","","","","","html-keyboard-response","109","373511","0.0-13.0-0.9","5b33034d975e260001e981c9","64d3ef96556dbe1f0e02b5aa","64da90b0cdf0e4e6d89333a4","","null","","","","","","","","","","","","","null","","","fallScene","","","","","","","","","","","","false","146.00644500000723","322.3","308.07114317029976","253.89","2","46","","",""
"","","","","","html-keyboard-response","110","376360","0.0-13.0-1.9","5b33034d975e260001e981c9","64d3ef96556dbe1f0e02b5aa","64da90b0cdf0e4e6d89333a4","","","","","","","","","","","","","","","","","","","","","","","","322.9900004999625","270.99990000499963","2848.600000023842","","","","","","","","","","","","",""
"","","","","","html-keyboard-response","110","376360","0.0-13.0-1.9","5b33034d975e260001e981c9","64d3ef96556dbe1f0e02b5aa","64da90b0cdf0e4e6d89333a4","","","","","","","","","","","","","","","","","","reconstruct","","","","","","322.9900004999625","270.99990000499963","2848.600000023842","","","","","","","","","","46","1","375","250"
"","","","","","html-keyboard-response","111","379366","0.0-13.0-0.10","5b33034d975e260001e981c9","64d3ef96556dbe1f0e02b5aa","64da90b0cdf0e4e6d89333a4","","null","","","","","","","","","","","","","null","","","fallScene","","","","","","","","","","","","false","146.0029650000023","322.3","379.3711431702997","245.25","1","47","","",""
"","","","","","html-keyboard-response","112","381724","0.0-13.0-1.10","5b33034d975e260001e981c9","64d3ef96556dbe1f0e02b5aa","64da90b0cdf0e4e6d89333a4","","","","","","","","","","","","","","","","","","","","","","","","311.0000706978519","256.00999975008756","2357.900000035763","","","","","","","","","","","","",""
"","","","","","html-keyboard-response","112","381724","0.0-13.0-1.10","5b33034d975e260001e981c9","64d3ef96556dbe1f0e02b5aa","64da90b0cdf0e4e6d89333a4","","","","","","","","","","","","","","","","","","reconstruct","","","","","","311.0000706978519","256.00999975008756","2357.900000035763","","","","","","","","","","47","2","375","350"
"","","","","","html-keyboard-response","113","384727","0.0-13.0-0.11","5b33034d975e260001e981c9","64d3ef96556dbe1f0e02b5aa","64da90b0cdf0e4e6d89333a4","","null","","","","","","","","","","","","","null","","","fallScene","","","","","","","","","","","","false","146.0107949999944","604.4000000000001","650.0211431702996","404.58000000000004","11","48","","",""
"","","","","","html-keyboard-response","114","386541","0.0-13.0-1.11","5b33034d975e260001e981c9","64d3ef96556dbe1f0e02b5aa","64da90b0cdf0e4e6d89333a4","","","","","","","","","","","","","","","","","","","","","","","","640.0029962590629","344.00954056767847","1813.699999988079","","","","","","","","","","","","",""
"","","","","","html-keyboard-response","114","386541","0.0-13.0-1.11","5b33034d975e260001e981c9","64d3ef96556dbe1f0e02b5aa","64da90b0cdf0e4e6d89333a4","","","","","","","","","","","","","","","","","","reconstruct","","","","","","640.0029962590629","344.00954056767847","1813.699999988079","","","","","","","","","","48","6","625","350"
"","","","","","html-keyboard-response","115","389548","0.0-13.0-0.12","5b33034d975e260001e981c9","64d3ef96556dbe1f0e02b5aa","64da90b0cdf0e4e6d89333a4","","null","","","","","","","","","","","","","null","","","fallScene","","","","","","","","","","","","true","144.00043199999536","322.3","356.42114317029973","357.87","4","49","","",""
"","","","","","html-keyboard-response","116","391978","0.0-13.0-1.12","5b33034d975e260001e981c9","64d3ef96556dbe1f0e02b5aa","64da90b0cdf0e4e6d89333a4","","","","","","","","","","","","","","","","","","","","","","","","638.99","321","2430.2999999523163","","","","","","","","","","","","",""
"","","","","","html-keyboard-response","116","391978","0.0-13.0-1.12","5b33034d975e260001e981c9","64d3ef96556dbe1f0e02b5aa","64da90b0cdf0e4e6d89333a4","","","","","","","","","","","","","","","","","","reconstruct","","","","","","638.99","321","2430.2999999523163","","","","","","","","","","49","1","375","250"
"","","","","","html-keyboard-response","117","394985","0.0-13.0-0.13","5b33034d975e260001e981c9","64d3ef96556dbe1f0e02b5aa","64da90b0cdf0e4e6d89333a4","","null","","","","","","","","","","","","","null","","","fallScene","","","","","","","","","","","","true","144","604.4000000000001","575.4211431702997","266.76","12","50","","",""
"","","","","","html-keyboard-response","118","397759","0.0-13.0-1.13","5b33034d975e260001e981c9","64d3ef96556dbe1f0e02b5aa","64da90b0cdf0e4e6d89333a4","","","","","","","","","","","","","","","","","","","","","","","","404.01","292.99999999992343","2773.899999976158","","","","","","","","","","","","",""
"","","","","","html-keyboard-response","118","397759","0.0-13.0-1.13","5b33034d975e260001e981c9","64d3ef96556dbe1f0e02b5aa","64da90b0cdf0e4e6d89333a4","","","","","","","","","","","","","","","","","","reconstruct","","","","","","404.01","292.99999999992343","2773.899999976158","","","","","","","","","","50","1","375","250"
"","","","","","html-keyboard-response","119","400763","0.0-13.0-0.14","5b33034d975e260001e981c9","64d3ef96556dbe1f0e02b5aa","64da90b0cdf0e4e6d89333a4","","null","","","","","","","","","","","","","null","","","fallScene","","","","","","","","","","","","false","145.97295000000304","604.4000000000001","575.4211431702997","266.76","12","51","","",""
"","","","","","html-keyboard-response","120","403112","0.0-13.0-1.14","5b33034d975e260001e981c9","64d3ef96556dbe1f0e02b5aa","64da90b0cdf0e4e6d89333a4","","","","","","","","","","","","","","","","","","","","","","","","648.9900008756714","346.0001323354157","2349.300000011921","","","","","","","","","","","","",""
"","","","","","html-keyboard-response","120","403112","0.0-13.0-1.14","5b33034d975e260001e981c9","64d3ef96556dbe1f0e02b5aa","64da90b0cdf0e4e6d89333a4","","","","","","","","","","","","","","","","","","reconstruct","","","","","","648.9900008756714","346.0001323354157","2349.300000011921","","","","","","","","","","51","5","625","250"
"","","","","","html-keyboard-response","121","406116","0.0-13.0-0.15","5b33034d975e260001e981c9","64d3ef96556dbe1f0e02b5aa","64da90b0cdf0e4e6d89333a4","","null","","","","","","","","","","","","","null","","","fallScene","","","","","","","","","","","","true","144.01958399999978","322.3","379.3711431702997","245.25","1","52","","",""
"","","","","","html-keyboard-response","122","408669","0.0-13.0-1.15","5b33034d975e260001e981c9","64d3ef96556dbe1f0e02b5aa","64da90b0cdf0e4e6d89333a4","","","","","","","","","","","","","","","","","","","","","","","","636.0000999949982","282.0099995000375","2552.7000000476837","","","","","","","","","","","","",""
"","","","","","html-keyboard-response","122","408669","0.0-13.0-1.15","5b33034d975e260001e981c9","64d3ef96556dbe1f0e02b5aa","64da90b0cdf0e4e6d89333a4","","","","","","","","","","","","","","","","","","reconstruct","","","","","","636.0000999949982","282.0099995000375","2552.7000000476837","","","","","","","","","","52","5","625","250"
"","","","","","html-keyboard-response","123","411673","0.0-13.0-0.16","5b33034d975e260001e981c9","64d3ef96556dbe1f0e02b5aa","64da90b0cdf0e4e6d89333a4","","null","","","","","","","","","","","","","null","","","fallScene","","","","","","","","","","","","false","145.96555499999783","322.3","296.07114317029976","371.46","3","53","","",""
"","","","","","html-keyboard-response","124","414606","0.0-13.0-1.16","5b33034d975e260001e981c9","64d3ef96556dbe1f0e02b5aa","64da90b0cdf0e4e6d89333a4","","","","","","","","","","","","","","","","","","","","","","","","333.0000000000279","338.01","2932.800000011921","","","","","","","","","","","","",""
"","","","","","html-keyboard-response","124","414606","0.0-13.0-1.16","5b33034d975e260001e981c9","64d3ef96556dbe1f0e02b5aa","64da90b0cdf0e4e6d89333a4","","","","","","","","","","","","","","","","","","reconstruct","","","","","","333.0000000000279","338.01","2932.800000011921","","","","","","","","","","53","3","500","250"
"","","","","","html-keyboard-response","125","417612","0.0-13.0-0.17","5b33034d975e260001e981c9","64d3ef96556dbe1f0e02b5aa","64da90b0cdf0e4e6d89333a4","","null","","","","","","","","","","","","","null","","","fallScene","","","","","","","","","","","","true","146.00630000000035","500","479.92114317029973","330.87","6","54","","",""
"","","","","","html-keyboard-response","126","420654","0.0-13.0-1.17","5b33034d975e260001e981c9","64d3ef96556dbe1f0e02b5aa","64da90b0cdf0e4e6d89333a4","","","","","","","","","","","","","","","","","","","","","","","","496.9881195615706","345.00982160644696","3041.600000023842","","","","","","","","","","","","",""
"","","","","","html-keyboard-response","126","420654","0.0-13.0-1.17","5b33034d975e260001e981c9","64d3ef96556dbe1f0e02b5aa","64da90b0cdf0e4e6d89333a4","","","","","","","","","","","","","","","","","","reconstruct","","","","","","496.9881195615706","345.00982160644696","3041.600000023842","","","","","","","","","","54","3","500","250"
"","","","","","html-button-response","127","421836","0.0-14.0","5b33034d975e260001e981c9","64d3ef96556dbe1f0e02b5aa","64da90b0cdf0e4e6d89333a4","","1181","","","","","","","","","","","","","0","","","","<p><span style = ""font-size:40px;"">BREAK</span></p><p>You are almost done! Click 'Next' when you are ready for the next set.</p>","","","","","","","","","","","","","","","","","","","",""
"","","","","","html-keyboard-response","128","424839","0.0-15.0-0.0","5b33034d975e260001e981c9","64d3ef96556dbe1f0e02b5aa","64da90b0cdf0e4e6d89333a4","","null","","","","","","","","","","","","","null","","","fallScene","","","","","","","","","","","","true","144.00115200000442","604.4000000000001","575.4211431702997","266.76","12","55","","",""
"","","","","","html-keyboard-response","129","427049","0.0-15.0-1.0","5b33034d975e260001e981c9","64d3ef96556dbe1f0e02b5aa","64da90b0cdf0e4e6d89333a4","","","","","","","","","","","","","","","","","","","","","","","","400.9929641987046","319.0071061593095","2209.399999976158","","","","","","","","","","","","",""
"","","","","","html-keyboard-response","129","427049","0.0-15.0-1.0","5b33034d975e260001e981c9","64d3ef96556dbe1f0e02b5aa","64da90b0cdf0e4e6d89333a4","","","","","","","","","","","","","","","","","","reconstruct","","","","","","400.9929641987046","319.0071061593095","2209.399999976158","","","","","","","","","","55","3","500","250"
"","","","","","html-keyboard-response","130","430056","0.0-15.0-0.1","5b33034d975e260001e981c9","64d3ef96556dbe1f0e02b5aa","64da90b0cdf0e4e6d89333a4","","null","","","","","","","","","","","","","null","","","fallScene","","","","","","","","","","","","false","145.9976000000007","500","453.67114317029973","210.33","5","56","","",""
"","","","","","html-keyboard-response","131","431935","0.0-15.0-1.1","5b33034d975e260001e981c9","64d3ef96556dbe1f0e02b5aa","64da90b0cdf0e4e6d89333a4","","","","","","","","","","","","","","","","","","","","","","","","507.99000024398663","330.9999301453454","1878.8999999761581","","","","","","","","","","","","",""
"","","","","","html-keyboard-response","131","431935","0.0-15.0-1.1","5b33034d975e260001e981c9","64d3ef96556dbe1f0e02b5aa","64da90b0cdf0e4e6d89333a4","","","","","","","","","","","","","","","","","","reconstruct","","","","","","507.99000024398663","330.9999301453454","1878.8999999761581","","","","","","","","","","56","3","500","250"
"","","","","","html-keyboard-response","132","434938","0.0-15.0-0.2","5b33034d975e260001e981c9","64d3ef96556dbe1f0e02b5aa","64da90b0cdf0e4e6d89333a4","","null","","","","","","","","","","","","","null","","","fallScene","","","","","","","","","","","","true","145.97179000000702","500","510.8711431702997","369.03","8","57","","",""
"","","","","","html-keyboard-response","133","437939","0.0-15.0-1.2","5b33034d975e260001e981c9","64d3ef96556dbe1f0e02b5aa","64da90b0cdf0e4e6d89333a4","","","","","","","","","","","","","","","","","","","","","","","","520","298.99","3001","","","","","","","","","","","","",""
"","","","","","html-keyboard-response","133","437939","0.0-15.0-1.2","5b33034d975e260001e981c9","64d3ef96556dbe1f0e02b5aa","64da90b0cdf0e4e6d89333a4","","","","","","","","","","","","","","","","","","reconstruct","","","","","","520","298.99","3001","","","","","","","","","","57","5","625","250"
"","","","","","html-keyboard-response","134","440942","0.0-15.0-0.3","5b33034d975e260001e981c9","64d3ef96556dbe1f0e02b5aa","64da90b0cdf0e4e6d89333a4","","null","","","","","","","","","","","","","null","","","fallScene","","","","","","","","","","","","false","145.9904950000008","500","510.8711431702997","369.03","8","58","","",""
"","","","","","html-keyboard-response","135","443842","0.0-15.0-1.3","5b33034d975e260001e981c9","64d3ef96556dbe1f0e02b5aa","64da90b0cdf0e4e6d89333a4","","","","","","","","","","","","","","","","","","","","","","","","527.0099999799854","284.99997999272233","2899.899999976158","","","","","","","","","","","","",""
"","","","","","html-keyboard-response","135","443842","0.0-15.0-1.3","5b33034d975e260001e981c9","64d3ef96556dbe1f0e02b5aa","64da90b0cdf0e4e6d89333a4","","","","","","","","","","","","","","","","","","reconstruct","","","","","","527.0099999799854","284.99997999272233","2899.899999976158","","","","","","","","","","58","2","375","350"
"","","","","","html-keyboard-response","136","446849","0.0-15.0-0.4","5b33034d975e260001e981c9","64d3ef96556dbe1f0e02b5aa","64da90b0cdf0e4e6d89333a4","","null","","","","","","","","","","","","","null","","","fallScene","","","","","","","","","","","","false","144.00777600000055","500","479.92114317029973","330.87","6","59","","",""
"","","","","","html-keyboard-response","137","449122","0.0-15.0-1.4","5b33034d975e260001e981c9","64d3ef96556dbe1f0e02b5aa","64da90b0cdf0e4e6d89333a4","","","","","","","","","","","","","","","","","","","","","","","","495.98999999999995","302.99999999665454","2272.399999976158","","","","","","","","","","","","",""
"","","","","","html-keyboard-response","137","449122","0.0-15.0-1.4","5b33034d975e260001e981c9","64d3ef96556dbe1f0e02b5aa","64da90b0cdf0e4e6d89333a4","","","","","","","","","","","","","","","","","","reconstruct","","","","","","495.98999999999995","302.99999999665454","2272.399999976158","","","","","","","","","","59","1","375","250"
"","","","","","html-keyboard-response","138","452124","0.0-15.0-0.5","5b33034d975e260001e981c9","64d3ef96556dbe1f0e02b5aa","64da90b0cdf0e4e6d89333a4","","null","","","","","","","","","","","","","null","","","fallScene","","","","","","","","","","","","true","144.02563200000208","322.3","379.3711431702997","245.25","1","60","","",""
"","","","","","html-keyboard-response","139","455536","0.0-15.0-1.5","5b33034d975e260001e981c9","64d3ef96556dbe1f0e02b5aa","64da90b0cdf0e4e6d89333a4","","","","","","","","","","","","","","","","","","","","","","","","611.9834149913625","290.99247420029207","3411.899999976158","","","","","","","","","","","","",""
"","","","","","html-keyboard-response","139","455536","0.0-15.0-1.5","5b33034d975e260001e981c9","64d3ef96556dbe1f0e02b5aa","64da90b0cdf0e4e6d89333a4","","","","","","","","","","","","","","","","","","reconstruct","","","","","","611.9834149913625","290.99247420029207","3411.899999976158","","","","","","","","","","60","6","625","350"
"","","","","","html-keyboard-response","140","458541","0.0-15.0-0.6","5b33034d975e260001e981c9","64d3ef96556dbe1f0e02b5aa","64da90b0cdf0e4e6d89333a4","","null","","","","","","","","","","","","","null","","","fallScene","","","","","","","","","","","","false","145.98977000000014","322.3","308.07114317029976","253.89","2","61","","",""
"","","","","","html-keyboard-response","141","461429","0.0-15.0-1.6","5b33034d975e260001e981c9","64d3ef96556dbe1f0e02b5aa","64da90b0cdf0e4e6d89333a4","","","","","","","","","","","","","","","","","","","","","","","","309","263.99","2888.300000011921","","","","","","","","","","","","",""
"","","","","","html-keyboard-response","141","461429","0.0-15.0-1.6","5b33034d975e260001e981c9","64d3ef96556dbe1f0e02b5aa","64da90b0cdf0e4e6d89333a4","","","","","","","","","","","","","","","","","","reconstruct","","","","","","309","263.99","2888.300000011921","","","","","","","","","","61","2","375","350"
"","","","","","html-keyboard-response","142","464431","0.0-15.0-0.7","5b33034d975e260001e981c9","64d3ef96556dbe1f0e02b5aa","64da90b0cdf0e4e6d89333a4","","null","","","","","","","","","","","","","null","","","fallScene","","","","","","","","","","","","false","146.00745999999634","604.4000000000001","596.8711431702998","394.5","10","62","","",""
"","","","","","html-keyboard-response","143","466712","0.0-15.0-1.7","5b33034d975e260001e981c9","64d3ef96556dbe1f0e02b5aa","64da90b0cdf0e4e6d89333a4","","","","","","","","","","","","","","","","","","","","","","","","634.992779942221","307.9930811297405","2280.699999988079","","","","","","","","","","","","",""
"","","","","","html-keyboard-response","143","466712","0.0-15.0-1.7","5b33034d975e260001e981c9","64d3ef96556dbe1f0e02b5aa","64da90b0cdf0e4e6d89333a4","","","","","","","","","","","","","","","","","","reconstruct","","","","","","634.992779942221","307.9930811297405","2280.699999988079","","","","","","","","","","62","2","375","350"
"","","","","","html-keyboard-response","144","469714","0.0-15.0-0.8","5b33034d975e260001e981c9","64d3ef96556dbe1f0e02b5aa","64da90b0cdf0e4e6d89333a4","","null","","","","","","","","","","","","","null","","","fallScene","","","","","","","","","","","","false","145.9675850000014","500","479.92114317029973","330.87","6","63","","",""
"","","","","","html-keyboard-response","145","472063","0.0-15.0-1.8","5b33034d975e260001e981c9","64d3ef96556dbe1f0e02b5aa","64da90b0cdf0e4e6d89333a4","","","","","","","","","","","","","","","","","","","","","","","","503.01","302.99999999999767","2348.800000011921","","","","","","","","","","","","",""
"","","","","","html-keyboard-response","145","472063","0.0-15.0-1.8","5b33034d975e260001e981c9","64d3ef96556dbe1f0e02b5aa","64da90b0cdf0e4e6d89333a4","","","","","","","","","","","","","","","","","","reconstruct","","","","","","503.01","302.99999999999767","2348.800000011921","","","","","","","","","","63","2","375","350"
"","","","","","html-keyboard-response","146","475070","0.0-15.0-0.9","5b33034d975e260001e981c9","64d3ef96556dbe1f0e02b5aa","64da90b0cdf0e4e6d89333a4","","null","","","","","","","","","","","","","null","","","fallScene","","","","","","","","","","","","false","144.00993600000254","604.4000000000001","575.4211431702997","266.76","12","64","","",""
"","","","","","html-keyboard-response","147","477634","0.0-15.0-1.9","5b33034d975e260001e981c9","64d3ef96556dbe1f0e02b5aa","64da90b0cdf0e4e6d89333a4","","","","","","","","","","","","","","","","","","","","","","","","585.01","302","2576.800000011921","","","","","","","","","","","","",""
"","","","","","html-keyboard-response","147","477634","0.0-15.0-1.9","5b33034d975e260001e981c9","64d3ef96556dbe1f0e02b5aa","64da90b0cdf0e4e6d89333a4","","","","","","","","","","","","","","","","","","reconstruct","","","","","","585.01","302","2576.800000011921","","","","","","","","","","64","6","625","350"
"","","","","","html-keyboard-response","148","480639","0.0-15.0-0.10","5b33034d975e260001e981c9","64d3ef96556dbe1f0e02b5aa","64da90b0cdf0e4e6d89333a4","","null","","","","","","","","","","","","","null","","","fallScene","","","","","","","","","","","","false","145.99252500000438","500","453.67114317029973","210.33","5","65","","",""
"","","","","","html-keyboard-response","149","483394","0.0-15.0-1.10","5b33034d975e260001e981c9","64d3ef96556dbe1f0e02b5aa","64da90b0cdf0e4e6d89333a4","","","","","","","","","","","","","","","","","","","","","","","","488.01","307.0000000042766","2754.600000023842","","","","","","","","","","","","",""
"","","","","","html-keyboard-response","149","483394","0.0-15.0-1.10","5b33034d975e260001e981c9","64d3ef96556dbe1f0e02b5aa","64da90b0cdf0e4e6d89333a4","","","","","","","","","","","","","","","","","","reconstruct","","","","","","488.01","307.0000000042766","2754.600000023842","","","","","","","","","","65","2","375","350"
"","","","","","html-keyboard-response","150","486397","0.0-15.0-0.11","5b33034d975e260001e981c9","64d3ef96556dbe1f0e02b5aa","64da90b0cdf0e4e6d89333a4","","null","","","","","","","","","","","","","null","","","fallScene","","","","","","","","","","","","true","144","322.3","356.42114317029973","357.87","4","66","","",""
"","","","","","html-keyboard-response","151","488913","0.0-15.0-1.11","5b33034d975e260001e981c9","64d3ef96556dbe1f0e02b5aa","64da90b0cdf0e4e6d89333a4","","","","","","","","","","","","","","","","","","","","","","","","617.01","282","2515.899999976158","","","","","","","","","","","","",""
"","","","","","html-keyboard-response","151","488914","0.0-15.0-1.11","5b33034d975e260001e981c9","64d3ef96556dbe1f0e02b5aa","64da90b0cdf0e4e6d89333a4","","","","","","","","","","","","","","","","","","reconstruct","","","","","","617.01","282","2515.899999976158","","","","","","","","","","66","3","500","250"
"","","","","","html-keyboard-response","152","491917","0.0-15.0-0.12","5b33034d975e260001e981c9","64d3ef96556dbe1f0e02b5aa","64da90b0cdf0e4e6d89333a4","","null","","","","","","","","","","","","","null","","","fallScene","","","","","","","","","","","","true","144.01281600000524","604.4000000000001","596.8711431702998","394.5","10","67","","",""
"","","","","","html-keyboard-response","153","494449","0.0-15.0-1.12","5b33034d975e260001e981c9","64d3ef96556dbe1f0e02b5aa","64da90b0cdf0e4e6d89333a4","","","","","","","","","","","","","","","","","","","","","","","","381.00999950018746","283.0000999800053","2531.5","","","","","","","","","","","","",""
"","","","","","html-keyboard-response","153","494449","0.0-15.0-1.12","5b33034d975e260001e981c9","64d3ef96556dbe1f0e02b5aa","64da90b0cdf0e4e6d89333a4","","","","","","","","","","","","","","","","","","reconstruct","","","","","","381.00999950018746","283.0000999800053","2531.5","","","","","","","","","","67","5","625","250"
"","","","","","html-keyboard-response","154","497452","0.0-15.0-0.13","5b33034d975e260001e981c9","64d3ef96556dbe1f0e02b5aa","64da90b0cdf0e4e6d89333a4","","null","","","","","","","","","","","","","null","","","fallScene","","","","","","","","","","","","false","144.0015840000082","322.3","296.07114317029976","371.46","3","68","","",""
"","","","","","html-keyboard-response","155","500610","0.0-15.0-1.13","5b33034d975e260001e981c9","64d3ef96556dbe1f0e02b5aa","64da90b0cdf0e4e6d89333a4","","","","","","","","","","","","","","","","","","","","","","","","291.99","289","3157.800000011921","","","","","","","","","","","","",""
"","","","","","html-keyboard-response","155","500610","0.0-15.0-1.13","5b33034d975e260001e981c9","64d3ef96556dbe1f0e02b5aa","64da90b0cdf0e4e6d89333a4","","","","","","","","","","","","","","","","","","reconstruct","","","","","","291.99","289","3157.800000011921","","","","","","","","","","68","6","625","350"
"","","","","","html-keyboard-response","156","503611","0.0-15.0-0.14","5b33034d975e260001e981c9","64d3ef96556dbe1f0e02b5aa","64da90b0cdf0e4e6d89333a4","","null","","","","","","","","","","","","","null","","","fallScene","","","","","","","","","","","","false","144.01295999999533","604.4000000000001","575.4211431702997","266.76","12","69","","",""
"","","","","","html-keyboard-response","157","506665","0.0-15.0-1.14","5b33034d975e260001e981c9","64d3ef96556dbe1f0e02b5aa","64da90b0cdf0e4e6d89333a4","","","","","","","","","","","","","","","","","","","","","","","","593.000099995","301.0099995000375","3053.2000000476837","","","","","","","","","","","","",""
"","","","","","html-keyboard-response","157","506665","0.0-15.0-1.14","5b33034d975e260001e981c9","64d3ef96556dbe1f0e02b5aa","64da90b0cdf0e4e6d89333a4","","","","","","","","","","","","","","","","","","reconstruct","","","","","","593.000099995","301.0099995000375","3053.2000000476837","","","","","","","","","","69","2","375","350"
"","","","","","html-keyboard-response","158","509668","0.0-15.0-0.15","5b33034d975e260001e981c9","64d3ef96556dbe1f0e02b5aa","64da90b0cdf0e4e6d89333a4","","null","","","","","","","","","","","","","null","","","fallScene","","","","","","","","","","","","true","146.02616499999857","604.4000000000001","596.8711431702998","394.5","10","70","","",""
"","","","","","html-keyboard-response","159","512082","0.0-15.0-1.15","5b33034d975e260001e981c9","64d3ef96556dbe1f0e02b5aa","64da90b0cdf0e4e6d89333a4","","","","","","","","","","","","","","","","","","","","","","","","399.9900012822228","292.9998398662669","2413.7000000476837","","","","","","","","","","","","",""
"","","","","","html-keyboard-response","159","512082","0.0-15.0-1.15","5b33034d975e260001e981c9","64d3ef96556dbe1f0e02b5aa","64da90b0cdf0e4e6d89333a4","","","","","","","","","","","","","","","","","","reconstruct","","","","","","399.9900012822228","292.9998398662669","2413.7000000476837","","","","","","","","","","70","6","625","350"
"","","","","","html-keyboard-response","160","515085","0.0-15.0-0.16","5b33034d975e260001e981c9","64d3ef96556dbe1f0e02b5aa","64da90b0cdf0e4e6d89333a4","","null","","","","","","","","","","","","","null","","","fallScene","","","","","","","","","","","","false","144.01828799999691","500","453.67114317029973","210.33","5","71","","",""
"","","","","","html-keyboard-response","161","517416","0.0-15.0-1.16","5b33034d975e260001e981c9","64d3ef96556dbe1f0e02b5aa","64da90b0cdf0e4e6d89333a4","","","","","","","","","","","","","","","","","","","","","","","","465.0090925987616","278.00416228876475","2330.699999988079","","","","","","","","","","","","",""
"","","","","","html-keyboard-response","161","517416","0.0-15.0-1.16","5b33034d975e260001e981c9","64d3ef96556dbe1f0e02b5aa","64da90b0cdf0e4e6d89333a4","","","","","","","","","","","","","","","","","","reconstruct","","","","","","465.0090925987616","278.00416228876475","2330.699999988079","","","","","","","","","","71","5","625","250"
"","","","","","html-keyboard-response","162","520419","0.0-15.0-0.17","5b33034d975e260001e981c9","64d3ef96556dbe1f0e02b5aa","64da90b0cdf0e4e6d89333a4","","null","","","","","","","","","","","","","null","","","fallScene","","","","","","","","","","","","true","145.98904499999944","500","510.8711431702997","369.03","8","72","","",""
"","","","","","html-keyboard-response","163","523703","0.0-15.0-1.17","5b33034d975e260001e981c9","64d3ef96556dbe1f0e02b5aa","64da90b0cdf0e4e6d89333a4","","","","","","","","","","","","","","","","","","","","","","","","482.0099806917703","293.99937887860614","3284.300000011921","","","","","","","","","","","","",""
"","","","","","html-keyboard-response","163","523703","0.0-15.0-1.17","5b33034d975e260001e981c9","64d3ef96556dbe1f0e02b5aa","64da90b0cdf0e4e6d89333a4","","","","","","","","","","","","","","","","","","reconstruct","","","","","","482.0099806917703","293.99937887860614","3284.300000011921","","","","","","","","","","72","3","500","250"
"","","","","","survey-text","164","550656","0.0-16.0","5b33034d975e260001e981c9","64d3ef96556dbe1f0e02b5aa","64da90b0cdf0e4e6d89333a4","","26938","","","","","","","","","","","","","{""Summary"":""I was asked to guess where I thought the triangle was located behind the grey square.""}","","","","","","","","","","","","","","","","","","","","","","","",""
"","","","","","survey-text","165","552374","0.0-17.0","5b33034d975e260001e981c9","64d3ef96556dbe1f0e02b5aa","64da90b0cdf0e4e6d89333a4","","1717","","","","","","","","","","","","","{""Comments"":""""}","","","","","","","","","","","","","","","","","","","","","","","",""
