"success","timeout","failed_images","failed_audio","failed_video","trial_type","trial_index","time_elapsed","internal_node_id","subject_id","study_id","session_id","view_history","rt","width","height","webaudio","browser","browser_version","mobile","os","fullscreen","vsync_rate","webcam","microphone","url","response","triangle_prac_final_x","triangle_prac_final_y","trial_name","stimulus","ball_X_prac_occ","ball_Y_prac_occ","obstacle_X_prac_occ","obstacle_Y_prac_occ","triangle_final_x","triangle_final_y","response_time","obstacle_X_prac_occ_init","obstacle_Y_prac_occ_init","question_order","flipped","runnerFPS","ball_X","obstacle_groundTruth_x","obstacle_groundTruth_y","stimulus_idx","currentTrial","obstacle_idx","obstacle_initial_x","obstacle_initial_y"
"true","false","[]","[]","[]","preload","0","35","0.0-0.0","5c65739723f6300001380c2c","64d3ef96556dbe1f0e02b5aa","64da90e9f6dda10274309386","","","","","","","","","","","","","","","","","","","","","","","","","","","","","","","","","","","","","","",""
"","","","","","instructions","1","18802","0.0-1.0","5c65739723f6300001380c2c","64d3ef96556dbe1f0e02b5aa","64da90e9f6dda10274309386","[{""page_index"":0,""viewing_time"":18766}]","18766","","","","","","","","","","","","","","","","","","","","","","","","","","","","","","","","","","","","",""
"","","","","","browser-check","2","19801","0.0-2.0","5c65739723f6300001380c2c","64d3ef96556dbe1f0e02b5aa","64da90e9f6dda10274309386","","","1366","611","true","chrome","115.0.0","false","Windows 10","true","60.28","true","true","","","","","","","","","","","","","","","","","","","","","","","","","",""
"","","","","","external-html","3","22566","0.0-3.0","5c65739723f6300001380c2c","64d3ef96556dbe1f0e02b5aa","64da90e9f6dda10274309386","","2732","","","","","","","","","","","","consent.html","","","","","","","","","","","","","","","","","","","","","","","","",""
"true","","","","","fullscreen","4","25673","0.0-4.0","5c65739723f6300001380c2c","64d3ef96556dbe1f0e02b5aa","64da90e9f6dda10274309386","","2603","","","","","","","","","","","","","","","","","","","","","","","","","","","","","","","","","","","","",""
"","","","","","survey-text","5","28798","0.0-5.0","5c65739723f6300001380c2c","64d3ef96556dbe1f0e02b5aa","64da90e9f6dda10274309386","","3120","","","","","","","","","","","","","{""prolificID"":""5c65739723f6300001380c2c""}","","","","","","","","","","","","","","","","","","","","","","","",""
"","","","","","browser-check","6","29791","0.0-6.0","5c65739723f6300001380c2c","64d3ef96556dbe1f0e02b5aa","64da90e9f6dda10274309386","","","1366","768","true","chrome","115.0.0","false","Windows 10","true","60.53","true","true","","","","","","","","","","","","","","","","","","","","","","","","","",""
"","","","","","instructions","7","62836","0.0-7.0-0.0-0.0","5c65739723f6300001380c2c","64d3ef96556dbe1f0e02b5aa","64da90e9f6dda10274309386","[{""page_index"":0,""viewing_time"":10564},{""page_index"":1,""viewing_time"":7492},{""page_index"":2,""viewing_time"":9473},{""page_index"":3,""viewing_time"":5516}]","33045","","","","","","","","","","","","","","","","","","","","","","","","","","","","","","","","","","","","",""
"","","","","","html-keyboard-response","8","70245","0.0-7.0-0.0-1.0","5c65739723f6300001380c2c","64d3ef96556dbe1f0e02b5aa","64da90e9f6dda10274309386","","","","","","","","","","","","","","","","682.0001055193461","270.0099994432679","","","","","","","","","","","","","","","","","","","","","",""
"","","","","","html-keyboard-response","8","70246","0.0-7.0-0.0-1.0","5c65739723f6300001380c2c","64d3ef96556dbe1f0e02b5aa","64da90e9f6dda10274309386","","","","","","","","","","","","","","","","","","practiceTrial_move","","","","","","","","","","","","","","","","","","","","",""
"","","","","","html-button-response","9","74534","0.0-7.0-0.0-2.0","5c65739723f6300001380c2c","64d3ef96556dbe1f0e02b5aa","64da90e9f6dda10274309386","","4287","","","","","","","","","","","","","0","","","","<p>To help you get more comfortable with the task, let's begin with a practice trial first!</p><p>As described previously, you will first see a video of a ball falling, some of it behind a gray screen.</p><p>After the video, you will drag a triangle to the spot you think the ball hit the triangle behind the screen.</p><p>Click 'Next' to start your practice trial.</p>","","","","","","","","","","","","","","","","","","","",""
"","","","","","html-keyboard-response","10","77544","0.0-7.0-0.0-3.0","5c65739723f6300001380c2c","64d3ef96556dbe1f0e02b5aa","64da90e9f6dda10274309386","","null","","","","","","","","","","","","","null","","","fallScene_practiceTrial_withOccluder","","400","50","420","415","","","","","","","","","","","","","","","",""
"","","","","","html-keyboard-response","11","80049","0.0-7.0-0.0-4.0","5c65739723f6300001380c2c","64d3ef96556dbe1f0e02b5aa","64da90e9f6dda10274309386","","","","","","","","","","","","","","","","","","","","","","","","319.0000984212561","385.9900004843489","2503.900000035763","","","","","","","","","","","","",""
"","","","","","html-keyboard-response","11","80049","0.0-7.0-0.0-4.0","5c65739723f6300001380c2c","64d3ef96556dbe1f0e02b5aa","64da90e9f6dda10274309386","","","","","","","","","","","","","","","","","","reconstruct_practiceTrial_withOccluder","","","","","","319.0000984212561","385.9900004843489","2503.900000035763","500","300","","","","","","","","","","",""
"","","","","","html-button-response","12","82148","0.0-7.0-0.0-5.0","5c65739723f6300001380c2c","64d3ef96556dbe1f0e02b5aa","64da90e9f6dda10274309386","","2097","","","","","","","","","","","","","1","","","","<p>Ok! We're almost ready to get started.</p><p>We just have a <b>brief quiz</b>, to make sure you understood the task.</p><p>If you need to review the instructions, click 'Previous'.</p><p>It's important to understand the task to do the study, so you have to pass the quiz to move to the study.</p>","","","","","","","","","","","","","","","","","","","",""
"","","","","","survey-multi-choice","13","92939","0.0-7.0-1.0-0.0","5c65739723f6300001380c2c","64d3ef96556dbe1f0e02b5aa","64da90e9f6dda10274309386","","10789","","","","","","","","","","","","","{""generalProcedure"":""Watch a video of a ball falling, some of it behind a gray screen. After each video, drag a triangle to where I think the ball hit the triangle behind the screen.""}","","","","","","","","","","","","","","[0]","","","","","","","","","",""
"","","","","","survey-multi-choice","14","97192","0.0-7.0-1.0-1.0","5c65739723f6300001380c2c","64d3ef96556dbe1f0e02b5aa","64da90e9f6dda10274309386","","4251","","","","","","","","","","","","","{""checkBallHitObstacle"":""Yes.""}","","","","","","","","","","","","","","[0]","","","","","","","","","",""
"","","","","","survey-multi-choice","15","104097","0.0-7.0-1.0-2.0","5c65739723f6300001380c2c","64d3ef96556dbe1f0e02b5aa","64da90e9f6dda10274309386","","6902","","","","","","","","","","","","","{""checkTriangleVisibility"":""No, the triangle is hidden behind the gray screen.""}","","","","","","","","","","","","","","[0]","","","","","","","","","",""
"","","","","","instructions","16","113246","0.0-8.0","5c65739723f6300001380c2c","64d3ef96556dbe1f0e02b5aa","64da90e9f6dda10274309386","[{""page_index"":0,""viewing_time"":9146}]","9147","","","","","","","","","","","","","","","","","","","","","","","","","","","","","","","","","","","","",""
"","","","","","html-keyboard-response","17","116256","0.0-9.0-0.0","5c65739723f6300001380c2c","64d3ef96556dbe1f0e02b5aa","64da90e9f6dda10274309386","","null","","","","","","","","","","","","","null","","","fallScene","","","","","","","","","","","","false","61.94244999999982","322.3","296.07114317029976","371.46","3","1","","",""
"","","","","","html-keyboard-response","18","118416","0.0-9.0-1.0","5c65739723f6300001380c2c","64d3ef96556dbe1f0e02b5aa","64da90e9f6dda10274309386","","","","","","","","","","","","","","","","","","","","","","","","355.0072551186879","377.9931179034572","2158.099999964237","","","","","","","","","","","","",""
"","","","","","html-keyboard-response","18","118416","0.0-9.0-1.0","5c65739723f6300001380c2c","64d3ef96556dbe1f0e02b5aa","64da90e9f6dda10274309386","","","","","","","","","","","","","","","","","","reconstruct","","","","","","355.0072551186879","377.9931179034572","2158.099999964237","","","","","","","","","","1","3","500","250"
"","","","","","html-keyboard-response","19","121419","0.0-9.0-0.1","5c65739723f6300001380c2c","64d3ef96556dbe1f0e02b5aa","64da90e9f6dda10274309386","","null","","","","","","","","","","","","","null","","","fallScene","","","","","","","","","","","","true","61.972034999999856","500","510.8711431702997","369.03","8","2","","",""
"","","","","","html-keyboard-response","20","123446","0.0-9.0-1.1","5c65739723f6300001380c2c","64d3ef96556dbe1f0e02b5aa","64da90e9f6dda10274309386","","","","","","","","","","","","","","","","","","","","","","","","588.9900000703689","413.99996248504124","2026.6000000238419","","","","","","","","","","","","",""
"","","","","","html-keyboard-response","20","123446","0.0-9.0-1.1","5c65739723f6300001380c2c","64d3ef96556dbe1f0e02b5aa","64da90e9f6dda10274309386","","","","","","","","","","","","","","","","","","reconstruct","","","","","","588.9900000703689","413.99996248504124","2026.6000000238419","","","","","","","","","","2","4","500","350"
"","","","","","html-keyboard-response","21","126448","0.0-9.0-0.2","5c65739723f6300001380c2c","64d3ef96556dbe1f0e02b5aa","64da90e9f6dda10274309386","","null","","","","","","","","","","","","","null","","","fallScene","","","","","","","","","","","","false","61.961909000000006","604.4000000000001","667.6211431702998","201.78","9","3","","",""
"","","","","","html-keyboard-response","22","128976","0.0-9.0-1.2","5c65739723f6300001380c2c","64d3ef96556dbe1f0e02b5aa","64da90e9f6dda10274309386","","","","","","","","","","","","","","","","","","","","","","","","656.0099994465801","384.00010520499717","2526.899999976158","","","","","","","","","","","","",""
"","","","","","html-keyboard-response","22","128976","0.0-9.0-1.2","5c65739723f6300001380c2c","64d3ef96556dbe1f0e02b5aa","64da90e9f6dda10274309386","","","","","","","","","","","","","","","","","","reconstruct","","","","","","656.0099994465801","384.00010520499717","2526.899999976158","","","","","","","","","","3","2","375","350"
"","","","","","html-keyboard-response","23","131991","0.0-9.0-0.3","5c65739723f6300001380c2c","64d3ef96556dbe1f0e02b5aa","64da90e9f6dda10274309386","","null","","","","","","","","","","","","","null","","","fallScene","","","","","","","","","","","","true","61.93958300000034","322.3","308.07114317029976","253.89","2","4","","",""
"","","","","","html-keyboard-response","24","134197","0.0-9.0-1.3","5c65739723f6300001380c2c","64d3ef96556dbe1f0e02b5aa","64da90e9f6dda10274309386","","","","","","","","","","","","","","","","","","","","","","","","625.0000046359681","290.00999999892537","2205.900000035763","","","","","","","","","","","","",""
"","","","","","html-keyboard-response","24","134197","0.0-9.0-1.3","5c65739723f6300001380c2c","64d3ef96556dbe1f0e02b5aa","64da90e9f6dda10274309386","","","","","","","","","","","","","","","","","","reconstruct","","","","","","625.0000046359681","290.00999999892537","2205.900000035763","","","","","","","","","","4","5","625","250"
"","","","","","html-keyboard-response","25","137202","0.0-9.0-0.4","5c65739723f6300001380c2c","64d3ef96556dbe1f0e02b5aa","64da90e9f6dda10274309386","","null","","","","","","","","","","","","","null","","","fallScene","","","","","","","","","","","","true","61.95727299999996","322.3","308.07114317029976","253.89","2","5","","",""
"","","","","","html-keyboard-response","26","139734","0.0-9.0-1.4","5c65739723f6300001380c2c","64d3ef96556dbe1f0e02b5aa","64da90e9f6dda10274309386","","","","","","","","","","","","","","","","","","","","","","","","656.99","248.9999999985824","2531.5","","","","","","","","","","","","",""
"","","","","","html-keyboard-response","26","139734","0.0-9.0-1.4","5c65739723f6300001380c2c","64d3ef96556dbe1f0e02b5aa","64da90e9f6dda10274309386","","","","","","","","","","","","","","","","","","reconstruct","","","","","","656.99","248.9999999985824","2531.5","","","","","","","","","","5","1","375","250"
"","","","","","html-keyboard-response","27","142747","0.0-9.0-0.5","5c65739723f6300001380c2c","64d3ef96556dbe1f0e02b5aa","64da90e9f6dda10274309386","","null","","","","","","","","","","","","","null","","","fallScene","","","","","","","","","","","","true","61.95721200000061","500","479.92114317029973","330.87","6","6","","",""
"","","","","","html-keyboard-response","28","144962","0.0-9.0-1.5","5c65739723f6300001380c2c","64d3ef96556dbe1f0e02b5aa","64da90e9f6dda10274309386","","","","","","","","","","","","","","","","","","","","","","","","438.0002679037932","300.9900035892663","2215.099999964237","","","","","","","","","","","","",""
"","","","","","html-keyboard-response","28","144962","0.0-9.0-1.5","5c65739723f6300001380c2c","64d3ef96556dbe1f0e02b5aa","64da90e9f6dda10274309386","","","","","","","","","","","","","","","","","","reconstruct","","","","","","438.0002679037932","300.9900035892663","2215.099999964237","","","","","","","","","","6","5","625","250"
"","","","","","html-keyboard-response","29","147977","0.0-9.0-0.6","5c65739723f6300001380c2c","64d3ef96556dbe1f0e02b5aa","64da90e9f6dda10274309386","","null","","","","","","","","","","","","","null","","","fallScene","","","","","","","","","","","","true","61.95830999999951","500","553.4711431702997","282.51","7","7","","",""
"","","","","","html-keyboard-response","30","149974","0.0-9.0-1.6","5c65739723f6300001380c2c","64d3ef96556dbe1f0e02b5aa","64da90e9f6dda10274309386","","","","","","","","","","","","","","","","","","","","","","","","477.99000010875176","315.999953362853","1996.8999999761581","","","","","","","","","","","","",""
"","","","","","html-keyboard-response","30","149974","0.0-9.0-1.6","5c65739723f6300001380c2c","64d3ef96556dbe1f0e02b5aa","64da90e9f6dda10274309386","","","","","","","","","","","","","","","","","","reconstruct","","","","","","477.99000010875176","315.999953362853","1996.8999999761581","","","","","","","","","","7","6","625","350"
"","","","","","html-keyboard-response","31","152987","0.0-9.0-0.7","5c65739723f6300001380c2c","64d3ef96556dbe1f0e02b5aa","64da90e9f6dda10274309386","","null","","","","","","","","","","","","","null","","","fallScene","","","","","","","","","","","","false","61.95666300000116","500","453.67114317029973","210.33","5","8","","",""
"","","","","","html-keyboard-response","32","155203","0.0-9.0-1.7","5c65739723f6300001380c2c","64d3ef96556dbe1f0e02b5aa","64da90e9f6dda10274309386","","","","","","","","","","","","","","","","","","","","","","","","488.99598099993904","298.00915683561664","2215.199999988079","","","","","","","","","","","","",""
"","","","","","html-keyboard-response","32","155203","0.0-9.0-1.7","5c65739723f6300001380c2c","64d3ef96556dbe1f0e02b5aa","64da90e9f6dda10274309386","","","","","","","","","","","","","","","","","","reconstruct","","","","","","488.99598099993904","298.00915683561664","2215.199999988079","","","","","","","","","","8","1","375","250"
"","","","","","html-keyboard-response","33","158205","0.0-9.0-0.8","5c65739723f6300001380c2c","64d3ef96556dbe1f0e02b5aa","64da90e9f6dda10274309386","","null","","","","","","","","","","","","","null","","","fallScene","","","","","","","","","","","","false","61.97904999999929","500","453.67114317029973","210.33","5","9","","",""
"","","","","","html-keyboard-response","34","159878","0.0-9.0-1.8","5c65739723f6300001380c2c","64d3ef96556dbe1f0e02b5aa","64da90e9f6dda10274309386","","","","","","","","","","","","","","","","","","","","","","","","465.0099286792586","315.99880780530987","1672.199999988079","","","","","","","","","","","","",""
"","","","","","html-keyboard-response","34","159878","0.0-9.0-1.8","5c65739723f6300001380c2c","64d3ef96556dbe1f0e02b5aa","64da90e9f6dda10274309386","","","","","","","","","","","","","","","","","","reconstruct","","","","","","465.0099286792586","315.99880780530987","1672.199999988079","","","","","","","","","","9","6","625","350"
"","","","","","html-keyboard-response","35","162894","0.0-9.0-0.9","5c65739723f6300001380c2c","64d3ef96556dbe1f0e02b5aa","64da90e9f6dda10274309386","","null","","","","","","","","","","","","","null","","","fallScene","","","","","","","","","","","","false","61.93799700000047","500","453.67114317029973","210.33","5","10","","",""
"","","","","","html-keyboard-response","36","164574","0.0-9.0-1.9","5c65739723f6300001380c2c","64d3ef96556dbe1f0e02b5aa","64da90e9f6dda10274309386","","","","","","","","","","","","","","","","","","","","","","","","504.00958894354864","307.0028376331019","1679.1000000238419","","","","","","","","","","","","",""
"","","","","","html-keyboard-response","36","164574","0.0-9.0-1.9","5c65739723f6300001380c2c","64d3ef96556dbe1f0e02b5aa","64da90e9f6dda10274309386","","","","","","","","","","","","","","","","","","reconstruct","","","","","","504.00958894354864","307.0028376331019","1679.1000000238419","","","","","","","","","","10","4","500","350"
"","","","","","html-keyboard-response","37","167589","0.0-9.0-0.10","5c65739723f6300001380c2c","64d3ef96556dbe1f0e02b5aa","64da90e9f6dda10274309386","","null","","","","","","","","","","","","","null","","","fallScene","","","","","","","","","","","","true","61.98508900000029","604.4000000000001","667.6211431702998","201.78","9","11","","",""
"","","","","","html-keyboard-response","38","169664","0.0-9.0-1.10","5c65739723f6300001380c2c","64d3ef96556dbe1f0e02b5aa","64da90e9f6dda10274309386","","","","","","","","","","","","","","","","","","","","","","","","319.0083753001923","284.99453608687037","2074.899999976158","","","","","","","","","","","","",""
"","","","","","html-keyboard-response","38","169664","0.0-9.0-1.10","5c65739723f6300001380c2c","64d3ef96556dbe1f0e02b5aa","64da90e9f6dda10274309386","","","","","","","","","","","","","","","","","","reconstruct","","","","","","319.0083753001923","284.99453608687037","2074.899999976158","","","","","","","","","","11","6","625","350"
"","","","","","html-keyboard-response","39","172668","0.0-9.0-0.11","5c65739723f6300001380c2c","64d3ef96556dbe1f0e02b5aa","64da90e9f6dda10274309386","","null","","","","","","","","","","","","","null","","","fallScene","","","","","","","","","","","","false","61.937264999999435","604.4000000000001","575.4211431702997","266.76","12","12","","",""
"","","","","","html-keyboard-response","40","174476","0.0-9.0-1.11","5c65739723f6300001380c2c","64d3ef96556dbe1f0e02b5aa","64da90e9f6dda10274309386","","","","","","","","","","","","","","","","","","","","","","","","569.9914817941365","295.00523833645985","1807.0999999642372","","","","","","","","","","","","",""
"","","","","","html-keyboard-response","40","174476","0.0-9.0-1.11","5c65739723f6300001380c2c","64d3ef96556dbe1f0e02b5aa","64da90e9f6dda10274309386","","","","","","","","","","","","","","","","","","reconstruct","","","","","","569.9914817941365","295.00523833645985","1807.0999999642372","","","","","","","","","","12","3","500","250"
"","","","","","html-keyboard-response","41","177480","0.0-9.0-0.12","5c65739723f6300001380c2c","64d3ef96556dbe1f0e02b5aa","64da90e9f6dda10274309386","","null","","","","","","","","","","","","","null","","","fallScene","","","","","","","","","","","","false","61.95617500000106","604.4000000000001","596.8711431702998","394.5","10","13","","",""
"","","","","","html-keyboard-response","42","179213","0.0-9.0-1.12","5c65739723f6300001380c2c","64d3ef96556dbe1f0e02b5aa","64da90e9f6dda10274309386","","","","","","","","","","","","","","","","","","","","","","","","629.0021231945863","295.0097720031083","1733.3999999761581","","","","","","","","","","","","",""
"","","","","","html-keyboard-response","42","179213","0.0-9.0-1.12","5c65739723f6300001380c2c","64d3ef96556dbe1f0e02b5aa","64da90e9f6dda10274309386","","","","","","","","","","","","","","","","","","reconstruct","","","","","","629.0021231945863","295.0097720031083","1733.3999999761581","","","","","","","","","","13","6","625","350"
"","","","","","html-keyboard-response","43","182226","0.0-9.0-0.13","5c65739723f6300001380c2c","64d3ef96556dbe1f0e02b5aa","64da90e9f6dda10274309386","","null","","","","","","","","","","","","","null","","","fallScene","","","","","","","","","","","","true","61.953125","604.4000000000001","667.6211431702998","201.78","9","14","","",""
"","","","","","html-keyboard-response","44","184342","0.0-9.0-1.13","5c65739723f6300001380c2c","64d3ef96556dbe1f0e02b5aa","64da90e9f6dda10274309386","","","","","","","","","","","","","","","","","","","","","","","","335.99121922764914","294.9952148106701","2115.5","","","","","","","","","","","","",""
"","","","","","html-keyboard-response","44","184342","0.0-9.0-1.13","5c65739723f6300001380c2c","64d3ef96556dbe1f0e02b5aa","64da90e9f6dda10274309386","","","","","","","","","","","","","","","","","","reconstruct","","","","","","335.99121922764914","294.9952148106701","2115.5","","","","","","","","","","14","3","500","250"
"","","","","","html-keyboard-response","45","187354","0.0-9.0-0.14","5c65739723f6300001380c2c","64d3ef96556dbe1f0e02b5aa","64da90e9f6dda10274309386","","null","","","","","","","","","","","","","null","","","fallScene","","","","","","","","","","","","true","61.95641900000023","322.3","356.42114317029973","357.87","4","15","","",""
"","","","","","html-keyboard-response","46","189110","0.0-9.0-1.14","5c65739723f6300001380c2c","64d3ef96556dbe1f0e02b5aa","64da90e9f6dda10274309386","","","","","","","","","","","","","","","","","","","","","","","","662.9950877605377","280.99128966685686","1756.199999988079","","","","","","","","","","","","",""
"","","","","","html-keyboard-response","46","189110","0.0-9.0-1.14","5c65739723f6300001380c2c","64d3ef96556dbe1f0e02b5aa","64da90e9f6dda10274309386","","","","","","","","","","","","","","","","","","reconstruct","","","","","","662.9950877605377","280.99128966685686","1756.199999988079","","","","","","","","","","15","6","625","350"
"","","","","","html-keyboard-response","47","192115","0.0-9.0-0.15","5c65739723f6300001380c2c","64d3ef96556dbe1f0e02b5aa","64da90e9f6dda10274309386","","null","","","","","","","","","","","","","null","","","fallScene","","","","","","","","","","","","false","61.94934299999967","604.4000000000001","650.0211431702996","404.58000000000004","11","16","","",""
"","","","","","html-keyboard-response","48","193623","0.0-9.0-1.15","5c65739723f6300001380c2c","64d3ef96556dbe1f0e02b5aa","64da90e9f6dda10274309386","","","","","","","","","","","","","","","","","","","","","","","","619.9999795036429","273.9900000210051","1507.800000011921","","","","","","","","","","","","",""
"","","","","","html-keyboard-response","48","193624","0.0-9.0-1.15","5c65739723f6300001380c2c","64d3ef96556dbe1f0e02b5aa","64da90e9f6dda10274309386","","","","","","","","","","","","","","","","","","reconstruct","","","","","","619.9999795036429","273.9900000210051","1507.800000011921","","","","","","","","","","16","5","625","250"
"","","","","","html-keyboard-response","49","196628","0.0-9.0-0.16","5c65739723f6300001380c2c","64d3ef96556dbe1f0e02b5aa","64da90e9f6dda10274309386","","null","","","","","","","","","","","","","null","","","fallScene","","","","","","","","","","","","false","61.96239700000012","500","479.92114317029973","330.87","6","17","","",""
"","","","","","html-keyboard-response","50","199051","0.0-9.0-1.16","5c65739723f6300001380c2c","64d3ef96556dbe1f0e02b5aa","64da90e9f6dda10274309386","","","","","","","","","","","","","","","","","","","","","","","","506.9946312335906","299.0084366075671","2422.7999999523163","","","","","","","","","","","","",""
"","","","","","html-keyboard-response","50","199051","0.0-9.0-1.16","5c65739723f6300001380c2c","64d3ef96556dbe1f0e02b5aa","64da90e9f6dda10274309386","","","","","","","","","","","","","","","","","","reconstruct","","","","","","506.9946312335906","299.0084366075671","2422.7999999523163","","","","","","","","","","17","2","375","350"
"","","","","","html-keyboard-response","51","202056","0.0-9.0-0.17","5c65739723f6300001380c2c","64d3ef96556dbe1f0e02b5aa","64da90e9f6dda10274309386","","null","","","","","","","","","","","","","null","","","fallScene","","","","","","","","","","","","true","61.955869999999","500","453.67114317029973","210.33","5","18","","",""
"","","","","","html-keyboard-response","52","203654","0.0-9.0-1.17","5c65739723f6300001380c2c","64d3ef96556dbe1f0e02b5aa","64da90e9f6dda10274309386","","","","","","","","","","","","","","","","","","","","","","","","452.9950805227124","285.00870624736706","1597.800000011921","","","","","","","","","","","","",""
"","","","","","html-keyboard-response","52","203654","0.0-9.0-1.17","5c65739723f6300001380c2c","64d3ef96556dbe1f0e02b5aa","64da90e9f6dda10274309386","","","","","","","","","","","","","","","","","","reconstruct","","","","","","452.9950805227124","285.00870624736706","1597.800000011921","","","","","","","","","","18","2","375","350"
"","","","","","html-button-response","53","241440","0.0-10.0","5c65739723f6300001380c2c","64d3ef96556dbe1f0e02b5aa","64da90e9f6dda10274309386","","37784","","","","","","","","","","","","","0","","","","<p><span style = ""font-size:40px;"">BREAK</span></p><p>You are doing great! Click 'Next' when you are ready for the next set.</p>","","","","","","","","","","","","","","","","","","","",""
"","","","","","html-keyboard-response","54","244446","0.0-11.0-0.0","5c65739723f6300001380c2c","64d3ef96556dbe1f0e02b5aa","64da90e9f6dda10274309386","","null","","","","","","","","","","","","","null","","","fallScene","","","","","","","","","","","","false","61.9565410000007","322.3","296.07114317029976","371.46","3","19","","",""
"","","","","","html-keyboard-response","55","249429","0.0-11.0-1.0","5c65739723f6300001380c2c","64d3ef96556dbe1f0e02b5aa","64da90e9f6dda10274309386","","","","","","","","","","","","","","","","","","","","","","","","464.9905535324262","263.00328089170455","4982.800000011921","","","","","","","","","","","","",""
"","","","","","html-keyboard-response","55","249429","0.0-11.0-1.0","5c65739723f6300001380c2c","64d3ef96556dbe1f0e02b5aa","64da90e9f6dda10274309386","","","","","","","","","","","","","","","","","","reconstruct","","","","","","464.9905535324262","263.00328089170455","4982.800000011921","","","","","","","","","","19","2","375","350"
"","","","","","html-keyboard-response","56","252442","0.0-11.0-0.1","5c65739723f6300001380c2c","64d3ef96556dbe1f0e02b5aa","64da90e9f6dda10274309386","","null","","","","","","","","","","","","","null","","","fallScene","","","","","","","","","","","","false","61.95550399999937","604.4000000000001","667.6211431702998","201.78","9","20","","",""
"","","","","","html-keyboard-response","57","254209","0.0-11.0-1.1","5c65739723f6300001380c2c","64d3ef96556dbe1f0e02b5aa","64da90e9f6dda10274309386","","","","","","","","","","","","","","","","","","","","","","","","592.9951969270331","298.9912289972024","1766.7000000476837","","","","","","","","","","","","",""
"","","","","","html-keyboard-response","57","254209","0.0-11.0-1.1","5c65739723f6300001380c2c","64d3ef96556dbe1f0e02b5aa","64da90e9f6dda10274309386","","","","","","","","","","","","","","","","","","reconstruct","","","","","","592.9951969270331","298.9912289972024","1766.7000000476837","","","","","","","","","","20","5","625","250"
"","","","","","html-keyboard-response","58","257218","0.0-11.0-0.2","5c65739723f6300001380c2c","64d3ef96556dbe1f0e02b5aa","64da90e9f6dda10274309386","","null","","","","","","","","","","","","","null","","","fallScene","","","","","","","","","","","","false","61.96020100000055","500","553.4711431702997","282.51","7","21","","",""
"","","","","","html-keyboard-response","59","259251","0.0-11.0-1.2","5c65739723f6300001380c2c","64d3ef96556dbe1f0e02b5aa","64da90e9f6dda10274309386","","","","","","","","","","","","","","","","","","","","","","","","515.9900022584463","304.0002125178243","2032.1000000238419","","","","","","","","","","","","",""
"","","","","","html-keyboard-response","59","259251","0.0-11.0-1.2","5c65739723f6300001380c2c","64d3ef96556dbe1f0e02b5aa","64da90e9f6dda10274309386","","","","","","","","","","","","","","","","","","reconstruct","","","","","","515.9900022584463","304.0002125178243","2032.1000000238419","","","","","","","","","","21","2","375","350"
"","","","","","html-keyboard-response","60","262263","0.0-11.0-0.3","5c65739723f6300001380c2c","64d3ef96556dbe1f0e02b5aa","64da90e9f6dda10274309386","","null","","","","","","","","","","","","","null","","","fallScene","","","","","","","","","","","","false","61.95013600000006","604.4000000000001","596.8711431702998","394.5","10","22","","",""
"","","","","","html-keyboard-response","61","264742","0.0-11.0-1.3","5c65739723f6300001380c2c","64d3ef96556dbe1f0e02b5aa","64da90e9f6dda10274309386","","","","","","","","","","","","","","","","","","","","","","","","617.01","267.9999999998778","2478.2999999523163","","","","","","","","","","","","",""
"","","","","","html-keyboard-response","61","264742","0.0-11.0-1.3","5c65739723f6300001380c2c","64d3ef96556dbe1f0e02b5aa","64da90e9f6dda10274309386","","","","","","","","","","","","","","","","","","reconstruct","","","","","","617.01","267.9999999998778","2478.2999999523163","","","","","","","","","","22","2","375","350"
"","","","","","html-keyboard-response","62","267744","0.0-11.0-0.4","5c65739723f6300001380c2c","64d3ef96556dbe1f0e02b5aa","64da90e9f6dda10274309386","","null","","","","","","","","","","","","","null","","","fallScene","","","","","","","","","","","","false","61.96319000000227","604.4000000000001","596.8711431702998","394.5","10","23","","",""
"","","","","","html-keyboard-response","63","269542","0.0-11.0-1.4","5c65739723f6300001380c2c","64d3ef96556dbe1f0e02b5aa","64da90e9f6dda10274309386","","","","","","","","","","","","","","","","","","","","","","","","580.0099811036353","250.0006144674289","1797.3999999761581","","","","","","","","","","","","",""
"","","","","","html-keyboard-response","63","269542","0.0-11.0-1.4","5c65739723f6300001380c2c","64d3ef96556dbe1f0e02b5aa","64da90e9f6dda10274309386","","","","","","","","","","","","","","","","","","reconstruct","","","","","","580.0099811036353","250.0006144674289","1797.3999999761581","","","","","","","","","","23","4","500","350"
"","","","","","html-keyboard-response","64","272553","0.0-11.0-0.5","5c65739723f6300001380c2c","64d3ef96556dbe1f0e02b5aa","64da90e9f6dda10274309386","","null","","","","","","","","","","","","","null","","","fallScene","","","","","","","","","","","","false","61.95336900000094","322.3","308.07114317029976","253.89","2","24","","",""
"","","","","","html-keyboard-response","65","274341","0.0-11.0-1.5","5c65739723f6300001380c2c","64d3ef96556dbe1f0e02b5aa","64da90e9f6dda10274309386","","","","","","","","","","","","","","","","","","","","","","","","271.0099999767033","252.99997841448803","1786.699999988079","","","","","","","","","","","","",""
"","","","","","html-keyboard-response","65","274341","0.0-11.0-1.5","5c65739723f6300001380c2c","64d3ef96556dbe1f0e02b5aa","64da90e9f6dda10274309386","","","","","","","","","","","","","","","","","","reconstruct","","","","","","271.0099999767033","252.99997841448803","1786.699999988079","","","","","","","","","","24","4","500","350"
"","","","","","html-keyboard-response","66","277349","0.0-11.0-0.6","5c65739723f6300001380c2c","64d3ef96556dbe1f0e02b5aa","64da90e9f6dda10274309386","","null","","","","","","","","","","","","","null","","","fallScene","","","","","","","","","","","","true","61.9549550000017","500","453.67114317029973","210.33","5","25","","",""
"","","","","","html-keyboard-response","67","279035","0.0-11.0-1.6","5c65739723f6300001380c2c","64d3ef96556dbe1f0e02b5aa","64da90e9f6dda10274309386","","","","","","","","","","","","","","","","","","","","","","","","495.99330160462256","263.00742505887973","1685.699999988079","","","","","","","","","","","","",""
"","","","","","html-keyboard-response","67","279035","0.0-11.0-1.6","5c65739723f6300001380c2c","64d3ef96556dbe1f0e02b5aa","64da90e9f6dda10274309386","","","","","","","","","","","","","","","","","","reconstruct","","","","","","495.99330160462256","263.00742505887973","1685.699999988079","","","","","","","","","","25","5","625","250"
"","","","","","html-keyboard-response","68","282044","0.0-11.0-0.7","5c65739723f6300001380c2c","64d3ef96556dbe1f0e02b5aa","64da90e9f6dda10274309386","","null","","","","","","","","","","","","","null","","","fallScene","","","","","","","","","","","","true","61.95995699999784","500","453.67114317029973","210.33","5","26","","",""
"","","","","","html-keyboard-response","69","283914","0.0-11.0-1.7","5c65739723f6300001380c2c","64d3ef96556dbe1f0e02b5aa","64da90e9f6dda10274309386","","","","","","","","","","","","","","","","","","","","","","","","456.9947122536451","278.991512377336","1870","","","","","","","","","","","","",""
"","","","","","html-keyboard-response","69","283914","0.0-11.0-1.7","5c65739723f6300001380c2c","64d3ef96556dbe1f0e02b5aa","64da90e9f6dda10274309386","","","","","","","","","","","","","","","","","","reconstruct","","","","","","456.9947122536451","278.991512377336","1870","","","","","","","","","","26","3","500","250"
"","","","","","html-keyboard-response","70","286922","0.0-11.0-0.8","5c65739723f6300001380c2c","64d3ef96556dbe1f0e02b5aa","64da90e9f6dda10274309386","","null","","","","","","","","","","","","","null","","","fallScene","","","","","","","","","","","","false","61.95245400000008","604.4000000000001","575.4211431702997","266.76","12","27","","",""
"","","","","","html-keyboard-response","71","290536","0.0-11.0-1.8","5c65739723f6300001380c2c","64d3ef96556dbe1f0e02b5aa","64da90e9f6dda10274309386","","","","","","","","","","","","","","","","","","","","","","","","607.9900001542749","254.99994445295985","3613.5","","","","","","","","","","","","",""
"","","","","","html-keyboard-response","71","290536","0.0-11.0-1.8","5c65739723f6300001380c2c","64d3ef96556dbe1f0e02b5aa","64da90e9f6dda10274309386","","","","","","","","","","","","","","","","","","reconstruct","","","","","","607.9900001542749","254.99994445295985","3613.5","","","","","","","","","","27","4","500","350"
"","","","","","html-keyboard-response","72","293548","0.0-11.0-0.9","5c65739723f6300001380c2c","64d3ef96556dbe1f0e02b5aa","64da90e9f6dda10274309386","","null","","","","","","","","","","","","","null","","","fallScene","","","","","","","","","","","","true","61.96544700000295","604.4000000000001","596.8711431702998","394.5","10","28","","",""
"","","","","","html-keyboard-response","73","295411","0.0-11.0-1.9","5c65739723f6300001380c2c","64d3ef96556dbe1f0e02b5aa","64da90e9f6dda10274309386","","","","","","","","","","","","","","","","","","","","","","","","352.0089131532162","302.9954661605957","1862.5","","","","","","","","","","","","",""
"","","","","","html-keyboard-response","73","295412","0.0-11.0-1.9","5c65739723f6300001380c2c","64d3ef96556dbe1f0e02b5aa","64da90e9f6dda10274309386","","","","","","","","","","","","","","","","","","reconstruct","","","","","","352.0089131532162","302.9954661605957","1862.5","","","","","","","","","","28","3","500","250"
"","","","","","html-keyboard-response","74","298413","0.0-11.0-0.10","5c65739723f6300001380c2c","64d3ef96556dbe1f0e02b5aa","64da90e9f6dda10274309386","","null","","","","","","","","","","","","","null","","","fallScene","","","","","","","","","","","","false","61.97026599999751","322.3","379.3711431702997","245.25","1","29","","",""
"","","","","","html-keyboard-response","75","300441","0.0-11.0-1.10","5c65739723f6300001380c2c","64d3ef96556dbe1f0e02b5aa","64da90e9f6dda10274309386","","","","","","","","","","","","","","","","","","","","","","","","274.00731935030336","266.0068137442817","2027.2000000476837","","","","","","","","","","","","",""
"","","","","","html-keyboard-response","75","300442","0.0-11.0-1.10","5c65739723f6300001380c2c","64d3ef96556dbe1f0e02b5aa","64da90e9f6dda10274309386","","","","","","","","","","","","","","","","","","reconstruct","","","","","","274.00731935030336","266.0068137442817","2027.2000000476837","","","","","","","","","","29","5","625","250"
"","","","","","html-keyboard-response","76","303456","0.0-11.0-0.11","5c65739723f6300001380c2c","64d3ef96556dbe1f0e02b5aa","64da90e9f6dda10274309386","","null","","","","","","","","","","","","","null","","","fallScene","","","","","","","","","","","","false","61.94037600000162","500","479.92114317029973","330.87","6","30","","",""
"","","","","","html-keyboard-response","77","305231","0.0-11.0-1.11","5c65739723f6300001380c2c","64d3ef96556dbe1f0e02b5aa","64da90e9f6dda10274309386","","","","","","","","","","","","","","","","","","","","","","","","474.99278271970206","276.0069217674839","1775.199999988079","","","","","","","","","","","","",""
"","","","","","html-keyboard-response","77","305231","0.0-11.0-1.11","5c65739723f6300001380c2c","64d3ef96556dbe1f0e02b5aa","64da90e9f6dda10274309386","","","","","","","","","","","","","","","","","","reconstruct","","","","","","474.99278271970206","276.0069217674839","1775.199999988079","","","","","","","","","","30","4","500","350"
"","","","","","html-keyboard-response","78","308234","0.0-11.0-0.12","5c65739723f6300001380c2c","64d3ef96556dbe1f0e02b5aa","64da90e9f6dda10274309386","","null","","","","","","","","","","","","","null","","","fallScene","","","","","","","","","","","","false","61.95568700000097","604.4000000000001","575.4211431702997","266.76","12","31","","",""
"","","","","","html-keyboard-response","79","309689","0.0-11.0-1.12","5c65739723f6300001380c2c","64d3ef96556dbe1f0e02b5aa","64da90e9f6dda10274309386","","","","","","","","","","","","","","","","","","","","","","","","576.9999427565","295.99000016384224","1454.7999999523163","","","","","","","","","","","","",""
"","","","","","html-keyboard-response","79","309689","0.0-11.0-1.12","5c65739723f6300001380c2c","64d3ef96556dbe1f0e02b5aa","64da90e9f6dda10274309386","","","","","","","","","","","","","","","","","","reconstruct","","","","","","576.9999427565","295.99000016384224","1454.7999999523163","","","","","","","","","","31","5","625","250"
"","","","","","html-keyboard-response","80","312697","0.0-11.0-0.13","5c65739723f6300001380c2c","64d3ef96556dbe1f0e02b5aa","64da90e9f6dda10274309386","","null","","","","","","","","","","","","","null","","","fallScene","","","","","","","","","","","","true","61.961786999999546","604.4000000000001","650.0211431702996","404.58000000000004","11","32","","",""
"","","","","","html-keyboard-response","81","314183","0.0-11.0-1.13","5c65739723f6300001380c2c","64d3ef96556dbe1f0e02b5aa","64da90e9f6dda10274309386","","","","","","","","","","","","","","","","","","","","","","","","346.99840755369974","290.0098723915431","1485","","","","","","","","","","","","",""
"","","","","","html-keyboard-response","81","314183","0.0-11.0-1.13","5c65739723f6300001380c2c","64d3ef96556dbe1f0e02b5aa","64da90e9f6dda10274309386","","","","","","","","","","","","","","","","","","reconstruct","","","","","","346.99840755369974","290.0098723915431","1485","","","","","","","","","","32","4","500","350"
"","","","","","html-keyboard-response","82","317192","0.0-11.0-0.14","5c65739723f6300001380c2c","64d3ef96556dbe1f0e02b5aa","64da90e9f6dda10274309386","","null","","","","","","","","","","","","","null","","","fallScene","","","","","","","","","","","","false","61.93946099999721","322.3","379.3711431702997","245.25","1","33","","",""
"","","","","","html-keyboard-response","83","319253","0.0-11.0-1.14","5c65739723f6300001380c2c","64d3ef96556dbe1f0e02b5aa","64da90e9f6dda10274309386","","","","","","","","","","","","","","","","","","","","","","","","321.0073846290361","265.00674294104965","2061.199999988079","","","","","","","","","","","","",""
"","","","","","html-keyboard-response","83","319253","0.0-11.0-1.14","5c65739723f6300001380c2c","64d3ef96556dbe1f0e02b5aa","64da90e9f6dda10274309386","","","","","","","","","","","","","","","","","","reconstruct","","","","","","321.0073846290361","265.00674294104965","2061.199999988079","","","","","","","","","","33","4","500","350"
"","","","","","html-keyboard-response","84","322258","0.0-11.0-0.15","5c65739723f6300001380c2c","64d3ef96556dbe1f0e02b5aa","64da90e9f6dda10274309386","","null","","","","","","","","","","","","","null","","","fallScene","","","","","","","","","","","","true","61.9673989999998","322.3","296.07114317029976","371.46","3","34","","",""
"","","","","","html-keyboard-response","85","324278","0.0-11.0-1.15","5c65739723f6300001380c2c","64d3ef96556dbe1f0e02b5aa","64da90e9f6dda10274309386","","","","","","","","","","","","","","","","","","","","","","","","671.01","316.0000000344851","2019.3999999761581","","","","","","","","","","","","",""
"","","","","","html-keyboard-response","85","324278","0.0-11.0-1.15","5c65739723f6300001380c2c","64d3ef96556dbe1f0e02b5aa","64da90e9f6dda10274309386","","","","","","","","","","","","","","","","","","reconstruct","","","","","","671.01","316.0000000344851","2019.3999999761581","","","","","","","","","","34","5","625","250"
"","","","","","html-keyboard-response","86","327282","0.0-11.0-0.16","5c65739723f6300001380c2c","64d3ef96556dbe1f0e02b5aa","64da90e9f6dda10274309386","","null","","","","","","","","","","","","","null","","","fallScene","","","","","","","","","","","","false","61.97057100000134","322.3","308.07114317029976","253.89","2","35","","",""
"","","","","","html-keyboard-response","87","328805","0.0-11.0-1.16","5c65739723f6300001380c2c","64d3ef96556dbe1f0e02b5aa","64da90e9f6dda10274309386","","","","","","","","","","","","","","","","","","","","","","","","320.0099999997792","311.99999789869224","1522.2999999523163","","","","","","","","","","","","",""
"","","","","","html-keyboard-response","87","328805","0.0-11.0-1.16","5c65739723f6300001380c2c","64d3ef96556dbe1f0e02b5aa","64da90e9f6dda10274309386","","","","","","","","","","","","","","","","","","reconstruct","","","","","","320.0099999997792","311.99999789869224","1522.2999999523163","","","","","","","","","","35","6","625","350"
"","","","","","html-keyboard-response","88","331810","0.0-11.0-0.17","5c65739723f6300001380c2c","64d3ef96556dbe1f0e02b5aa","64da90e9f6dda10274309386","","null","","","","","","","","","","","","","null","","","fallScene","","","","","","","","","","","","true","61.95214900000336","500","510.8711431702997","369.03","8","36","","",""
"","","","","","html-keyboard-response","89","334066","0.0-11.0-1.17","5c65739723f6300001380c2c","64d3ef96556dbe1f0e02b5aa","64da90e9f6dda10274309386","","","","","","","","","","","","","","","","","","","","","","","","518.9900000003538","290.99999733985277","2255.899999976158","","","","","","","","","","","","",""
"","","","","","html-keyboard-response","89","334066","0.0-11.0-1.17","5c65739723f6300001380c2c","64d3ef96556dbe1f0e02b5aa","64da90e9f6dda10274309386","","","","","","","","","","","","","","","","","","reconstruct","","","","","","518.9900000003538","290.99999733985277","2255.899999976158","","","","","","","","","","36","2","375","350"
"","","","","","html-button-response","90","408043","0.0-12.0","5c65739723f6300001380c2c","64d3ef96556dbe1f0e02b5aa","64da90e9f6dda10274309386","","73973","","","","","","","","","","","","","0","","","","<p><span style = ""font-size:40px;"">BREAK</span></p><p>You are halfway done! Click 'Next' when you are ready for the next set.</p>","","","","","","","","","","","","","","","","","","","",""
"","","","","","html-keyboard-response","91","411050","0.0-13.0-0.0","5c65739723f6300001380c2c","64d3ef96556dbe1f0e02b5aa","64da90e9f6dda10274309386","","null","","","","","","","","","","","","","null","","","fallScene","","","","","","","","","","","","false","66.00511100000219","500","479.92114317029973","330.87","6","37","","",""
"","","","","","html-keyboard-response","92","413472","0.0-13.0-1.0","5c65739723f6300001380c2c","64d3ef96556dbe1f0e02b5aa","64da90e9f6dda10274309386","","","","","","","","","","","","","","","","","","","","","","","","458.009695610197","316.0024484980921","2420.900000035763","","","","","","","","","","","","",""
"","","","","","html-keyboard-response","92","413472","0.0-13.0-1.0","5c65739723f6300001380c2c","64d3ef96556dbe1f0e02b5aa","64da90e9f6dda10274309386","","","","","","","","","","","","","","","","","","reconstruct","","","","","","458.009695610197","316.0024484980921","2420.900000035763","","","","","","","","","","37","6","625","350"
"","","","","","html-keyboard-response","93","416479","0.0-13.0-0.1","5c65739723f6300001380c2c","64d3ef96556dbe1f0e02b5aa","64da90e9f6dda10274309386","","null","","","","","","","","","","","","","null","","","fallScene","","","","","","","","","","","","true","61.95568700000097","500","510.8711431702997","369.03","8","38","","",""
"","","","","","html-keyboard-response","94","418108","0.0-13.0-1.1","5c65739723f6300001380c2c","64d3ef96556dbe1f0e02b5aa","64da90e9f6dda10274309386","","","","","","","","","","","","","","","","","","","","","","","","492.00947927824757","357.996815147742","1628","","","","","","","","","","","","",""
"","","","","","html-keyboard-response","94","418108","0.0-13.0-1.1","5c65739723f6300001380c2c","64d3ef96556dbe1f0e02b5aa","64da90e9f6dda10274309386","","","","","","","","","","","","","","","","","","reconstruct","","","","","","492.00947927824757","357.996815147742","1628","","","","","","","","","","38","6","625","350"
"","","","","","html-keyboard-response","95","421110","0.0-13.0-0.2","5c65739723f6300001380c2c","64d3ef96556dbe1f0e02b5aa","64da90e9f6dda10274309386","","null","","","","","","","","","","","","","null","","","fallScene","","","","","","","","","","","","true","61.95349100000318","322.3","296.07114317029976","371.46","3","39","","",""
"","","","","","html-keyboard-response","96","422806","0.0-13.0-1.2","5c65739723f6300001380c2c","64d3ef96556dbe1f0e02b5aa","64da90e9f6dda10274309386","","","","","","","","","","","","","","","","","","","","","","","","610.0000054015518","332.99000000145884","1694.8999999761581","","","","","","","","","","","","",""
"","","","","","html-keyboard-response","96","422806","0.0-13.0-1.2","5c65739723f6300001380c2c","64d3ef96556dbe1f0e02b5aa","64da90e9f6dda10274309386","","","","","","","","","","","","","","","","","","reconstruct","","","","","","610.0000054015518","332.99000000145884","1694.8999999761581","","","","","","","","","","39","1","375","250"
"","","","","","html-keyboard-response","97","425820","0.0-13.0-0.3","5c65739723f6300001380c2c","64d3ef96556dbe1f0e02b5aa","64da90e9f6dda10274309386","","null","","","","","","","","","","","","","null","","","fallScene","","","","","","","","","","","","false","61.97179099999892","604.4000000000001","667.6211431702998","201.78","9","40","","",""
"","","","","","html-keyboard-response","98","427486","0.0-13.0-1.3","5c65739723f6300001380c2c","64d3ef96556dbe1f0e02b5aa","64da90e9f6dda10274309386","","","","","","","","","","","","","","","","","","","","","","","","612.9900060989594","348.9996507980678","1665.300000011921","","","","","","","","","","","","",""
"","","","","","html-keyboard-response","98","427486","0.0-13.0-1.3","5c65739723f6300001380c2c","64d3ef96556dbe1f0e02b5aa","64da90e9f6dda10274309386","","","","","","","","","","","","","","","","","","reconstruct","","","","","","612.9900060989594","348.9996507980678","1665.300000011921","","","","","","","","","","40","1","375","250"
"","","","","","html-keyboard-response","99","430499","0.0-13.0-0.4","5c65739723f6300001380c2c","64d3ef96556dbe1f0e02b5aa","64da90e9f6dda10274309386","","null","","","","","","","","","","","","","null","","","fallScene","","","","","","","","","","","","false","61.955808999999654","322.3","296.07114317029976","371.46","3","41","","",""
"","","","","","html-keyboard-response","100","432182","0.0-13.0-1.4","5c65739723f6300001380c2c","64d3ef96556dbe1f0e02b5aa","64da90e9f6dda10274309386","","","","","","","","","","","","","","","","","","","","","","","","302.00991132294394","376.00132878798183","1682.4000000357628","","","","","","","","","","","","",""
"","","","","","html-keyboard-response","100","432182","0.0-13.0-1.4","5c65739723f6300001380c2c","64d3ef96556dbe1f0e02b5aa","64da90e9f6dda10274309386","","","","","","","","","","","","","","","","","","reconstruct","","","","","","302.00991132294394","376.00132878798183","1682.4000000357628","","","","","","","","","","41","4","500","350"
"","","","","","html-keyboard-response","101","435194","0.0-13.0-0.5","5c65739723f6300001380c2c","64d3ef96556dbe1f0e02b5aa","64da90e9f6dda10274309386","","null","","","","","","","","","","","","","null","","","fallScene","","","","","","","","","","","","false","61.95245400000008","322.3","356.42114317029973","357.87","4","42","","",""
"","","","","","html-keyboard-response","102","436838","0.0-13.0-1.5","5c65739723f6300001380c2c","64d3ef96556dbe1f0e02b5aa","64da90e9f6dda10274309386","","","","","","","","","","","","","","","","","","","","","","","","339.00010046168745","361.99000050464025","1643","","","","","","","","","","","","",""
"","","","","","html-keyboard-response","102","436838","0.0-13.0-1.5","5c65739723f6300001380c2c","64d3ef96556dbe1f0e02b5aa","64da90e9f6dda10274309386","","","","","","","","","","","","","","","","","","reconstruct","","","","","","339.00010046168745","361.99000050464025","1643","","","","","","","","","","42","4","500","350"
"","","","","","html-keyboard-response","103","439840","0.0-13.0-0.6","5c65739723f6300001380c2c","64d3ef96556dbe1f0e02b5aa","64da90e9f6dda10274309386","","null","","","","","","","","","","","","","null","","","fallScene","","","","","","","","","","","","true","61.95379599999992","322.3","308.07114317029976","253.89","2","43","","",""
"","","","","","html-keyboard-response","104","441845","0.0-13.0-1.6","5c65739723f6300001380c2c","64d3ef96556dbe1f0e02b5aa","64da90e9f6dda10274309386","","","","","","","","","","","","","","","","","","","","","","","","619.0002668659911","329.9900035615071","2004.3999999761581","","","","","","","","","","","","",""
"","","","","","html-keyboard-response","104","441845","0.0-13.0-1.6","5c65739723f6300001380c2c","64d3ef96556dbe1f0e02b5aa","64da90e9f6dda10274309386","","","","","","","","","","","","","","","","","","reconstruct","","","","","","619.0002668659911","329.9900035615071","2004.3999999761581","","","","","","","","","","43","3","500","250"
"","","","","","html-keyboard-response","105","444852","0.0-13.0-0.7","5c65739723f6300001380c2c","64d3ef96556dbe1f0e02b5aa","64da90e9f6dda10274309386","","null","","","","","","","","","","","","","null","","","fallScene","","","","","","","","","","","","false","61.95318599999934","500","553.4711431702997","282.51","7","44","","",""
"","","","","","html-keyboard-response","106","446880","0.0-13.0-1.7","5c65739723f6300001380c2c","64d3ef96556dbe1f0e02b5aa","64da90e9f6dda10274309386","","","","","","","","","","","","","","","","","","","","","","","","449.0099383668383","326.9988914583509","2027.8999999761581","","","","","","","","","","","","",""
"","","","","","html-keyboard-response","106","446880","0.0-13.0-1.7","5c65739723f6300001380c2c","64d3ef96556dbe1f0e02b5aa","64da90e9f6dda10274309386","","","","","","","","","","","","","","","","","","reconstruct","","","","","","449.0099383668383","326.9988914583509","2027.8999999761581","","","","","","","","","","44","3","500","250"
"","","","","","html-keyboard-response","107","449882","0.0-13.0-0.8","5c65739723f6300001380c2c","64d3ef96556dbe1f0e02b5aa","64da90e9f6dda10274309386","","null","","","","","","","","","","","","","null","","","fallScene","","","","","","","","","","","","true","61.94958700000239","500","510.8711431702997","369.03","8","45","","",""
"","","","","","html-keyboard-response","108","451994","0.0-13.0-1.8","5c65739723f6300001380c2c","64d3ef96556dbe1f0e02b5aa","64da90e9f6dda10274309386","","","","","","","","","","","","","","","","","","","","","","","","480.00403171635645","330.9908487561927","2111.100000023842","","","","","","","","","","","","",""
"","","","","","html-keyboard-response","108","451994","0.0-13.0-1.8","5c65739723f6300001380c2c","64d3ef96556dbe1f0e02b5aa","64da90e9f6dda10274309386","","","","","","","","","","","","","","","","","","reconstruct","","","","","","480.00403171635645","330.9908487561927","2111.100000023842","","","","","","","","","","45","5","625","250"
"","","","","","html-keyboard-response","109","454996","0.0-13.0-0.9","5c65739723f6300001380c2c","64d3ef96556dbe1f0e02b5aa","64da90e9f6dda10274309386","","null","","","","","","","","","","","","","null","","","fallScene","","","","","","","","","","","","true","61.96093299999804","322.3","308.07114317029976","253.89","2","46","","",""
"","","","","","html-keyboard-response","110","456938","0.0-13.0-1.9","5c65739723f6300001380c2c","64d3ef96556dbe1f0e02b5aa","64da90e9f6dda10274309386","","","","","","","","","","","","","","","","","","","","","","","","613.0099997653041","317.9999314882225","1941.699999988079","","","","","","","","","","","","",""
"","","","","","html-keyboard-response","110","456938","0.0-13.0-1.9","5c65739723f6300001380c2c","64d3ef96556dbe1f0e02b5aa","64da90e9f6dda10274309386","","","","","","","","","","","","","","","","","","reconstruct","","","","","","613.0099997653041","317.9999314882225","1941.699999988079","","","","","","","","","","46","2","375","350"
"","","","","","html-keyboard-response","111","459953","0.0-13.0-0.10","5c65739723f6300001380c2c","64d3ef96556dbe1f0e02b5aa","64da90e9f6dda10274309386","","null","","","","","","","","","","","","","null","","","fallScene","","","","","","","","","","","","false","61.955198999999084","500","510.8711431702997","369.03","8","47","","",""
"","","","","","html-keyboard-response","112","461555","0.0-13.0-1.10","5c65739723f6300001380c2c","64d3ef96556dbe1f0e02b5aa","64da90e9f6dda10274309386","","","","","","","","","","","","","","","","","","","","","","","","459.9911006715314","316.0045609157861","1601.5","","","","","","","","","","","","",""
"","","","","","html-keyboard-response","112","461555","0.0-13.0-1.10","5c65739723f6300001380c2c","64d3ef96556dbe1f0e02b5aa","64da90e9f6dda10274309386","","","","","","","","","","","","","","","","","","reconstruct","","","","","","459.9911006715314","316.0045609157861","1601.5","","","","","","","","","","47","1","375","250"
"","","","","","html-keyboard-response","113","464565","0.0-13.0-0.11","5c65739723f6300001380c2c","64d3ef96556dbe1f0e02b5aa","64da90e9f6dda10274309386","","null","","","","","","","","","","","","","null","","","fallScene","","","","","","","","","","","","true","61.96715500000241","604.4000000000001","667.6211431702998","201.78","9","48","","",""
"","","","","","html-keyboard-response","114","466219","0.0-13.0-1.11","5c65739723f6300001380c2c","64d3ef96556dbe1f0e02b5aa","64da90e9f6dda10274309386","","","","","","","","","","","","","","","","","","","","","","","","399.99000000000933","301.9999995686453","1653.4000000357628","","","","","","","","","","","","",""
"","","","","","html-keyboard-response","114","466219","0.0-13.0-1.11","5c65739723f6300001380c2c","64d3ef96556dbe1f0e02b5aa","64da90e9f6dda10274309386","","","","","","","","","","","","","","","","","","reconstruct","","","","","","399.99000000000933","301.9999995686453","1653.4000000357628","","","","","","","","","","48","4","500","350"
"","","","","","html-keyboard-response","115","469227","0.0-13.0-0.12","5c65739723f6300001380c2c","64d3ef96556dbe1f0e02b5aa","64da90e9f6dda10274309386","","null","","","","","","","","","","","","","null","","","fallScene","","","","","","","","","","","","false","61.97087600000162","322.3","379.3711431702997","245.25","1","49","","",""
"","","","","","html-keyboard-response","116","470951","0.0-13.0-1.12","5c65739723f6300001380c2c","64d3ef96556dbe1f0e02b5aa","64da90e9f6dda10274309386","","","","","","","","","","","","","","","","","","","","","","","","343.00999950032934","314.9999000341867","1724","","","","","","","","","","","","",""
"","","","","","html-keyboard-response","116","470951","0.0-13.0-1.12","5c65739723f6300001380c2c","64d3ef96556dbe1f0e02b5aa","64da90e9f6dda10274309386","","","","","","","","","","","","","","","","","","reconstruct","","","","","","343.00999950032934","314.9999000341867","1724","","","","","","","","","","49","1","375","250"
"","","","","","html-keyboard-response","117","473956","0.0-13.0-0.13","5c65739723f6300001380c2c","64d3ef96556dbe1f0e02b5aa","64da90e9f6dda10274309386","","null","","","","","","","","","","","","","null","","","fallScene","","","","","","","","","","","","true","61.953186000002894","500","553.4711431702997","282.51","7","50","","",""
"","","","","","html-keyboard-response","118","475540","0.0-13.0-1.13","5c65739723f6300001380c2c","64d3ef96556dbe1f0e02b5aa","64da90e9f6dda10274309386","","","","","","","","","","","","","","","","","","","","","","","","502.00950044677313","330.99687886060696","1584.5999999642372","","","","","","","","","","","","",""
"","","","","","html-keyboard-response","118","475540","0.0-13.0-1.13","5c65739723f6300001380c2c","64d3ef96556dbe1f0e02b5aa","64da90e9f6dda10274309386","","","","","","","","","","","","","","","","","","reconstruct","","","","","","502.00950044677313","330.99687886060696","1584.5999999642372","","","","","","","","","","50","1","375","250"
"","","","","","html-keyboard-response","119","478551","0.0-13.0-0.14","5c65739723f6300001380c2c","64d3ef96556dbe1f0e02b5aa","64da90e9f6dda10274309386","","null","","","","","","","","","","","","","null","","","fallScene","","","","","","","","","","","","true","61.96245800000301","604.4000000000001","650.0211431702996","404.58000000000004","11","51","","",""
"","","","","","html-keyboard-response","120","480286","0.0-13.0-1.14","5c65739723f6300001380c2c","64d3ef96556dbe1f0e02b5aa","64da90e9f6dda10274309386","","","","","","","","","","","","","","","","","","","","","","","","384.99207465744684","317.00609827397017","1734.9000000357628","","","","","","","","","","","","",""
"","","","","","html-keyboard-response","120","480286","0.0-13.0-1.14","5c65739723f6300001380c2c","64d3ef96556dbe1f0e02b5aa","64da90e9f6dda10274309386","","","","","","","","","","","","","","","","","","reconstruct","","","","","","384.99207465744684","317.00609827397017","1734.9000000357628","","","","","","","","","","51","6","625","350"
"","","","","","html-keyboard-response","121","483295","0.0-13.0-0.15","5c65739723f6300001380c2c","64d3ef96556dbe1f0e02b5aa","64da90e9f6dda10274309386","","null","","","","","","","","","","","","","null","","","fallScene","","","","","","","","","","","","true","61.948488999999945","604.4000000000001","596.8711431702998","394.5","10","52","","",""
"","","","","","html-keyboard-response","122","485879","0.0-13.0-1.15","5c65739723f6300001380c2c","64d3ef96556dbe1f0e02b5aa","64da90e9f6dda10274309386","","","","","","","","","","","","","","","","","","","","","","","","331.99663435043055","349.99058339748234","2583","","","","","","","","","","","","",""
"","","","","","html-keyboard-response","122","485879","0.0-13.0-1.15","5c65739723f6300001380c2c","64d3ef96556dbe1f0e02b5aa","64da90e9f6dda10274309386","","","","","","","","","","","","","","","","","","reconstruct","","","","","","331.99663435043055","349.99058339748234","2583","","","","","","","","","","52","5","625","250"
"","","","","","html-keyboard-response","123","488890","0.0-13.0-0.16","5c65739723f6300001380c2c","64d3ef96556dbe1f0e02b5aa","64da90e9f6dda10274309386","","null","","","","","","","","","","","","","null","","","fallScene","","","","","","","","","","","","true","61.969351000000195","604.4000000000001","575.4211431702997","266.76","12","53","","",""
"","","","","","html-keyboard-response","124","490617","0.0-13.0-1.16","5c65739723f6300001380c2c","64d3ef96556dbe1f0e02b5aa","64da90e9f6dda10274309386","","","","","","","","","","","","","","","","","","","","","","","","348.009997032129","316.0002436157052","1726.5","","","","","","","","","","","","",""
"","","","","","html-keyboard-response","124","490617","0.0-13.0-1.16","5c65739723f6300001380c2c","64d3ef96556dbe1f0e02b5aa","64da90e9f6dda10274309386","","","","","","","","","","","","","","","","","","reconstruct","","","","","","348.009997032129","316.0002436157052","1726.5","","","","","","","","","","53","2","375","350"
"","","","","","html-keyboard-response","125","493620","0.0-13.0-0.17","5c65739723f6300001380c2c","64d3ef96556dbe1f0e02b5aa","64da90e9f6dda10274309386","","null","","","","","","","","","","","","","null","","","fallScene","","","","","","","","","","","","false","61.96099400000094","322.3","379.3711431702997","245.25","1","54","","",""
"","","","","","html-keyboard-response","126","496008","0.0-13.0-1.17","5c65739723f6300001380c2c","64d3ef96556dbe1f0e02b5aa","64da90e9f6dda10274309386","","","","","","","","","","","","","","","","","","","","","","","","269.00863640403287","253.9949589162494","2388.2999999523163","","","","","","","","","","","","",""
"","","","","","html-keyboard-response","126","496008","0.0-13.0-1.17","5c65739723f6300001380c2c","64d3ef96556dbe1f0e02b5aa","64da90e9f6dda10274309386","","","","","","","","","","","","","","","","","","reconstruct","","","","","","269.00863640403287","253.9949589162494","2388.2999999523163","","","","","","","","","","54","2","375","350"
"","","","","","html-button-response","127","593448","0.0-14.0","5c65739723f6300001380c2c","64d3ef96556dbe1f0e02b5aa","64da90e9f6dda10274309386","","97437","","","","","","","","","","","","","0","","","","<p><span style = ""font-size:40px;"">BREAK</span></p><p>You are almost done! Click 'Next' when you are ready for the next set.</p>","","","","","","","","","","","","","","","","","","","",""
"","","","","","html-keyboard-response","128","596455","0.0-15.0-0.0","5c65739723f6300001380c2c","64d3ef96556dbe1f0e02b5aa","64da90e9f6dda10274309386","","null","","","","","","","","","","","","","null","","","fallScene","","","","","","","","","","","","false","61.951965999998215","500","553.4711431702997","282.51","7","55","","",""
"","","","","","html-keyboard-response","129","598792","0.0-15.0-1.0","5c65739723f6300001380c2c","64d3ef96556dbe1f0e02b5aa","64da90e9f6dda10274309386","","","","","","","","","","","","","","","","","","","","","","","","440.99989999661176","274.0099994999536","2337.100000023842","","","","","","","","","","","","",""
"","","","","","html-keyboard-response","129","598792","0.0-15.0-1.0","5c65739723f6300001380c2c","64d3ef96556dbe1f0e02b5aa","64da90e9f6dda10274309386","","","","","","","","","","","","","","","","","","reconstruct","","","","","","440.99989999661176","274.0099994999536","2337.100000023842","","","","","","","","","","55","4","500","350"
"","","","","","html-keyboard-response","130","601805","0.0-15.0-0.1","5c65739723f6300001380c2c","64d3ef96556dbe1f0e02b5aa","64da90e9f6dda10274309386","","null","","","","","","","","","","","","","null","","","fallScene","","","","","","","","","","","","false","61.955808999999654","604.4000000000001","650.0211431702996","404.58000000000004","11","56","","",""
"","","","","","html-keyboard-response","131","603404","0.0-15.0-1.1","5c65739723f6300001380c2c","64d3ef96556dbe1f0e02b5aa","64da90e9f6dda10274309386","","","","","","","","","","","","","","","","","","","","","","","","594.9955225390974","280.99105839254577","1598.9000000357628","","","","","","","","","","","","",""
"","","","","","html-keyboard-response","131","603404","0.0-15.0-1.1","5c65739723f6300001380c2c","64d3ef96556dbe1f0e02b5aa","64da90e9f6dda10274309386","","","","","","","","","","","","","","","","","","reconstruct","","","","","","594.9955225390974","280.99105839254577","1598.9000000357628","","","","","","","","","","56","1","375","250"
"","","","","","html-keyboard-response","132","606418","0.0-15.0-0.2","5c65739723f6300001380c2c","64d3ef96556dbe1f0e02b5aa","64da90e9f6dda10274309386","","null","","","","","","","","","","","","","null","","","fallScene","","","","","","","","","","","","false","61.95647999999603","500","553.4711431702997","282.51","7","57","","",""
"","","","","","html-keyboard-response","133","608370","0.0-15.0-1.2","5c65739723f6300001380c2c","64d3ef96556dbe1f0e02b5aa","64da90e9f6dda10274309386","","","","","","","","","","","","","","","","","","","","","","","","476.9982344109715","282.9901570992394","1951.699999988079","","","","","","","","","","","","",""
"","","","","","html-keyboard-response","133","608370","0.0-15.0-1.2","5c65739723f6300001380c2c","64d3ef96556dbe1f0e02b5aa","64da90e9f6dda10274309386","","","","","","","","","","","","","","","","","","reconstruct","","","","","","476.9982344109715","282.9901570992394","1951.699999988079","","","","","","","","","","57","5","625","250"
"","","","","","html-keyboard-response","134","611381","0.0-15.0-0.3","5c65739723f6300001380c2c","64d3ef96556dbe1f0e02b5aa","64da90e9f6dda10274309386","","null","","","","","","","","","","","","","null","","","fallScene","","","","","","","","","","","","false","61.95568700000097","322.3","356.42114317029973","357.87","4","58","","",""
"","","","","","html-keyboard-response","135","613364","0.0-15.0-1.3","5c65739723f6300001380c2c","64d3ef96556dbe1f0e02b5aa","64da90e9f6dda10274309386","","","","","","","","","","","","","","","","","","","","","","","","348.9984225453321","305.9901252019377","1982.699999988079","","","","","","","","","","","","",""
"","","","","","html-keyboard-response","135","613364","0.0-15.0-1.3","5c65739723f6300001380c2c","64d3ef96556dbe1f0e02b5aa","64da90e9f6dda10274309386","","","","","","","","","","","","","","","","","","reconstruct","","","","","","348.9984225453321","305.9901252019377","1982.699999988079","","","","","","","","","","58","1","375","250"
"","","","","","html-keyboard-response","136","616367","0.0-15.0-0.4","5c65739723f6300001380c2c","64d3ef96556dbe1f0e02b5aa","64da90e9f6dda10274309386","","null","","","","","","","","","","","","","null","","","fallScene","","","","","","","","","","","","false","61.955077000000394","604.4000000000001","650.0211431702996","404.58000000000004","11","59","","",""
"","","","","","html-keyboard-response","137","618333","0.0-15.0-1.4","5c65739723f6300001380c2c","64d3ef96556dbe1f0e02b5aa","64da90e9f6dda10274309386","","","","","","","","","","","","","","","","","","","","","","","","614.9977206060614","284.0097367532203","1966","","","","","","","","","","","","",""
"","","","","","html-keyboard-response","137","618333","0.0-15.0-1.4","5c65739723f6300001380c2c","64d3ef96556dbe1f0e02b5aa","64da90e9f6dda10274309386","","","","","","","","","","","","","","","","","","reconstruct","","","","","","614.9977206060614","284.0097367532203","1966","","","","","","","","","","59","2","375","350"
"","","","","","html-keyboard-response","138","621341","0.0-15.0-0.5","5c65739723f6300001380c2c","64d3ef96556dbe1f0e02b5aa","64da90e9f6dda10274309386","","null","","","","","","","","","","","","","null","","","fallScene","","","","","","","","","","","","true","61.95568700000097","500","479.92114317029973","330.87","6","60","","",""
"","","","","","html-keyboard-response","139","622990","0.0-15.0-1.5","5c65739723f6300001380c2c","64d3ef96556dbe1f0e02b5aa","64da90e9f6dda10274309386","","","","","","","","","","","","","","","","","","","","","","","","466.0071897749681","308.9930496664894","1648.9000000357628","","","","","","","","","","","","",""
"","","","","","html-keyboard-response","139","622990","0.0-15.0-1.5","5c65739723f6300001380c2c","64d3ef96556dbe1f0e02b5aa","64da90e9f6dda10274309386","","","","","","","","","","","","","","","","","","reconstruct","","","","","","466.0071897749681","308.9930496664894","1648.9000000357628","","","","","","","","","","60","1","375","250"
"","","","","","html-keyboard-response","140","626004","0.0-15.0-0.6","5c65739723f6300001380c2c","64d3ef96556dbe1f0e02b5aa","64da90e9f6dda10274309386","","null","","","","","","","","","","","","","null","","","fallScene","","","","","","","","","","","","true","61.955808999999654","322.3","356.42114317029973","357.87","4","61","","",""
"","","","","","html-keyboard-response","141","628154","0.0-15.0-1.6","5c65739723f6300001380c2c","64d3ef96556dbe1f0e02b5aa","64da90e9f6dda10274309386","","","","","","","","","","","","","","","","","","","","","","","","641.9934026656698","312.0075149969884","2149.300000011921","","","","","","","","","","","","",""
"","","","","","html-keyboard-response","141","628154","0.0-15.0-1.6","5c65739723f6300001380c2c","64d3ef96556dbe1f0e02b5aa","64da90e9f6dda10274309386","","","","","","","","","","","","","","","","","","reconstruct","","","","","","641.9934026656698","312.0075149969884","2149.300000011921","","","","","","","","","","61","3","500","250"
"","","","","","html-keyboard-response","142","631167","0.0-15.0-0.7","5c65739723f6300001380c2c","64d3ef96556dbe1f0e02b5aa","64da90e9f6dda10274309386","","null","","","","","","","","","","","","","null","","","fallScene","","","","","","","","","","","","true","61.953125","604.4000000000001","575.4211431702997","266.76","12","62","","",""
"","","","","","html-keyboard-response","143","633116","0.0-15.0-1.7","5c65739723f6300001380c2c","64d3ef96556dbe1f0e02b5aa","64da90e9f6dda10274309386","","","","","","","","","","","","","","","","","","","","","","","","360.0084519669878","306.00534455367983","1949.1000000238419","","","","","","","","","","","","",""
"","","","","","html-keyboard-response","143","633116","0.0-15.0-1.7","5c65739723f6300001380c2c","64d3ef96556dbe1f0e02b5aa","64da90e9f6dda10274309386","","","","","","","","","","","","","","","","","","reconstruct","","","","","","360.0084519669878","306.00534455367983","1949.1000000238419","","","","","","","","","","62","1","375","250"
"","","","","","html-keyboard-response","144","636151","0.0-15.0-0.8","5c65739723f6300001380c2c","64d3ef96556dbe1f0e02b5aa","64da90e9f6dda10274309386","","null","","","","","","","","","","","","","null","","","fallScene","","","","","","","","","","","","false","61.95617499999574","322.3","356.42114317029973","357.87","4","63","","",""
"","","","","","html-keyboard-response","145","638027","0.0-15.0-1.8","5c65739723f6300001380c2c","64d3ef96556dbe1f0e02b5aa","64da90e9f6dda10274309386","","","","","","","","","","","","","","","","","","","","","","","","316.99835214839106","291.9901367051613","1875.800000011921","","","","","","","","","","","","",""
"","","","","","html-keyboard-response","145","638027","0.0-15.0-1.8","5c65739723f6300001380c2c","64d3ef96556dbe1f0e02b5aa","64da90e9f6dda10274309386","","","","","","","","","","","","","","","","","","reconstruct","","","","","","316.99835214839106","291.9901367051613","1875.800000011921","","","","","","","","","","63","5","625","250"
"","","","","","html-keyboard-response","146","641055","0.0-15.0-0.9","5c65739723f6300001380c2c","64d3ef96556dbe1f0e02b5aa","64da90e9f6dda10274309386","","null","","","","","","","","","","","","","null","","","fallScene","","","","","","","","","","","","false","59.92464800000121","604.4000000000001","575.4211431702997","266.76","12","64","","",""
"","","","","","html-keyboard-response","147","642667","0.0-15.0-1.9","5c65739723f6300001380c2c","64d3ef96556dbe1f0e02b5aa","64da90e9f6dda10274309386","","","","","","","","","","","","","","","","","","","","","","","","586.9977578630946","283.00974540004813","1611.6000000238419","","","","","","","","","","","","",""
"","","","","","html-keyboard-response","147","642667","0.0-15.0-1.9","5c65739723f6300001380c2c","64d3ef96556dbe1f0e02b5aa","64da90e9f6dda10274309386","","","","","","","","","","","","","","","","","","reconstruct","","","","","","586.9977578630946","283.00974540004813","1611.6000000238419","","","","","","","","","","64","6","625","350"
"","","","","","html-keyboard-response","148","645692","0.0-15.0-0.10","5c65739723f6300001380c2c","64d3ef96556dbe1f0e02b5aa","64da90e9f6dda10274309386","","null","","","","","","","","","","","","","null","","","fallScene","","","","","","","","","","","","false","54.84645000000251","500","479.92114317029973","330.87","6","65","","",""
"","","","","","html-keyboard-response","149","647562","0.0-15.0-1.10","5c65739723f6300001380c2c","64d3ef96556dbe1f0e02b5aa","64da90e9f6dda10274309386","","","","","","","","","","","","","","","","","","","","","","","","538.99000473512","323.9996922988809","1869","","","","","","","","","","","","",""
"","","","","","html-keyboard-response","149","647562","0.0-15.0-1.10","5c65739723f6300001380c2c","64d3ef96556dbe1f0e02b5aa","64da90e9f6dda10274309386","","","","","","","","","","","","","","","","","","reconstruct","","","","","","538.99000473512","323.9996922988809","1869","","","","","","","","","","65","3","500","250"
"","","","","","html-keyboard-response","150","650596","0.0-15.0-0.11","5c65739723f6300001380c2c","64d3ef96556dbe1f0e02b5aa","64da90e9f6dda10274309386","","null","","","","","","","","","","","","","null","","","fallScene","","","","","","","","","","","","true","50.7836500000034","322.3","379.3711431702997","245.25","1","66","","",""
"","","","","","html-keyboard-response","151","652270","0.0-15.0-1.11","5c65739723f6300001380c2c","64d3ef96556dbe1f0e02b5aa","64da90e9f6dda10274309386","","","","","","","","","","","","","","","","","","","","","","","","636.9900000000006","241.0000001121827","1673.199999988079","","","","","","","","","","","","",""
"","","","","","html-keyboard-response","151","652270","0.0-15.0-1.11","5c65739723f6300001380c2c","64d3ef96556dbe1f0e02b5aa","64da90e9f6dda10274309386","","","","","","","","","","","","","","","","","","reconstruct","","","","","","636.9900000000006","241.0000001121827","1673.199999988079","","","","","","","","","","66","3","500","250"
"","","","","","html-keyboard-response","152","655308","0.0-15.0-0.12","5c65739723f6300001380c2c","64d3ef96556dbe1f0e02b5aa","64da90e9f6dda10274309386","","null","","","","","","","","","","","","","null","","","fallScene","","","","","","","","","","","","true","47.73658400000097","322.3","379.3711431702997","245.25","1","67","","",""
"","","","","","html-keyboard-response","153","657012","0.0-15.0-1.12","5c65739723f6300001380c2c","64d3ef96556dbe1f0e02b5aa","64da90e9f6dda10274309386","","","","","","","","","","","","","","","","","","","","","","","","616.9902874738293","251.00238051158027","1703.7000000476837","","","","","","","","","","","","",""
"","","","","","html-keyboard-response","153","657012","0.0-15.0-1.12","5c65739723f6300001380c2c","64d3ef96556dbe1f0e02b5aa","64da90e9f6dda10274309386","","","","","","","","","","","","","","","","","","reconstruct","","","","","","616.9902874738293","251.00238051158027","1703.7000000476837","","","","","","","","","","67","6","625","350"
"","","","","","html-keyboard-response","154","660050","0.0-15.0-0.13","5c65739723f6300001380c2c","64d3ef96556dbe1f0e02b5aa","64da90e9f6dda10274309386","","null","","","","","","","","","","","","","null","","","fallScene","","","","","","","","","","","","true","44.68961199999787","604.4000000000001","596.8711431702998","394.5","10","68","","",""
"","","","","","html-keyboard-response","155","661731","0.0-15.0-1.13","5c65739723f6300001380c2c","64d3ef96556dbe1f0e02b5aa","64da90e9f6dda10274309386","","","","","","","","","","","","","","","","","","","","","","","","351.00999999999993","274.9999999619818","1680.4000000357628","","","","","","","","","","","","",""
"","","","","","html-keyboard-response","155","661731","0.0-15.0-1.13","5c65739723f6300001380c2c","64d3ef96556dbe1f0e02b5aa","64da90e9f6dda10274309386","","","","","","","","","","","","","","","","","","reconstruct","","","","","","351.00999999999993","274.9999999619818","1680.4000000357628","","","","","","","","","","68","1","375","250"
"","","","","","html-keyboard-response","156","664761","0.0-15.0-0.14","5c65739723f6300001380c2c","64d3ef96556dbe1f0e02b5aa","64da90e9f6dda10274309386","","null","","","","","","","","","","","","","null","","","fallScene","","","","","","","","","","","","false","41.64271599999908","604.4000000000001","650.0211431702996","404.58000000000004","11","69","","",""
"","","","","","html-keyboard-response","157","666253","0.0-15.0-1.14","5c65739723f6300001380c2c","64d3ef96556dbe1f0e02b5aa","64da90e9f6dda10274309386","","","","","","","","","","","","","","","","","","","","","","","","665.9900003469393","287.9999167013437","1492.199999988079","","","","","","","","","","","","",""
"","","","","","html-keyboard-response","157","666253","0.0-15.0-1.14","5c65739723f6300001380c2c","64d3ef96556dbe1f0e02b5aa","64da90e9f6dda10274309386","","","","","","","","","","","","","","","","","","reconstruct","","","","","","665.9900003469393","287.9999167013437","1492.199999988079","","","","","","","","","","69","3","500","250"
"","","","","","html-keyboard-response","158","669298","0.0-15.0-0.15","5c65739723f6300001380c2c","64d3ef96556dbe1f0e02b5aa","64da90e9f6dda10274309386","","null","","","","","","","","","","","","","null","","","fallScene","","","","","","","","","","","","true","39.611168999998945","322.3","296.07114317029976","371.46","3","70","","",""
"","","","","","html-keyboard-response","159","671231","0.0-15.0-1.15","5c65739723f6300001380c2c","64d3ef96556dbe1f0e02b5aa","64da90e9f6dda10274309386","","","","","","","","","","","","","","","","","","","","","","","","639.9929482586298","268.9929096584252","1932.9000000357628","","","","","","","","","","","","",""
"","","","","","html-keyboard-response","159","671231","0.0-15.0-1.15","5c65739723f6300001380c2c","64d3ef96556dbe1f0e02b5aa","64da90e9f6dda10274309386","","","","","","","","","","","","","","","","","","reconstruct","","","","","","639.9929482586298","268.9929096584252","1932.9000000357628","","","","","","","","","","70","6","625","350"
"","","","","","html-keyboard-response","160","674275","0.0-15.0-0.16","5c65739723f6300001380c2c","64d3ef96556dbe1f0e02b5aa","64da90e9f6dda10274309386","","null","","","","","","","","","","","","","null","","","fallScene","","","","","","","","","","","","false","37.58001199999917","500","510.8711431702997","369.03","8","71","","",""
"","","","","","html-keyboard-response","161","675871","0.0-15.0-1.16","5c65739723f6300001380c2c","64d3ef96556dbe1f0e02b5aa","64da90e9f6dda10274309386","","","","","","","","","","","","","","","","","","","","","","","","434.00951385485956","272.996919973099","1595.800000011921","","","","","","","","","","","","",""
"","","","","","html-keyboard-response","161","675871","0.0-15.0-1.16","5c65739723f6300001380c2c","64d3ef96556dbe1f0e02b5aa","64da90e9f6dda10274309386","","","","","","","","","","","","","","","","","","reconstruct","","","","","","434.00951385485956","272.996919973099","1595.800000011921","","","","","","","","","","71","3","500","250"
"","","","","","html-keyboard-response","162","678915","0.0-15.0-0.17","5c65739723f6300001380c2c","64d3ef96556dbe1f0e02b5aa","64da90e9f6dda10274309386","","null","","","","","","","","","","","","","null","","","fallScene","","","","","","","","","","","","false","37.16369999999833","322.3","356.42114317029973","357.87","4","72","","",""
"","","","","","html-keyboard-response","163","680428","0.0-15.0-1.17","5c65739723f6300001380c2c","64d3ef96556dbe1f0e02b5aa","64da90e9f6dda10274309386","","","","","","","","","","","","","","","","","","","","","","","","319.00618151533376","304.0078605895567","1513.199999988079","","","","","","","","","","","","",""
"","","","","","html-keyboard-response","163","680428","0.0-15.0-1.17","5c65739723f6300001380c2c","64d3ef96556dbe1f0e02b5aa","64da90e9f6dda10274309386","","","","","","","","","","","","","","","","","","reconstruct","","","","","","319.00618151533376","304.0078605895567","1513.199999988079","","","","","","","","","","72","2","375","350"
"","","","","","survey-text","164","717676","0.0-16.0","5c65739723f6300001380c2c","64d3ef96556dbe1f0e02b5aa","64da90e9f6dda10274309386","","37246","","","","","","","","","","","","","{""Summary"":""I had to pick where I thought a triangle was behind a curtain""}","","","","","","","","","","","","","","","","","","","","","","","",""
"","","","","","survey-text","165","718928","0.0-17.0","5c65739723f6300001380c2c","64d3ef96556dbe1f0e02b5aa","64da90e9f6dda10274309386","","1250","","","","","","","","","","","","","{""Comments"":""""}","","","","","","","","","","","","","","","","","","","","","","","",""
