"success","timeout","failed_images","failed_audio","failed_video","trial_type","trial_index","time_elapsed","internal_node_id","subject_id","study_id","session_id","view_history","rt","width","height","webaudio","browser","browser_version","mobile","os","fullscreen","vsync_rate","webcam","microphone","url","response","triangle_prac_final_x","triangle_prac_final_y","trial_name","stimulus","ball_X_prac_occ","ball_Y_prac_occ","obstacle_X_prac_occ","obstacle_Y_prac_occ","triangle_final_x","triangle_final_y","response_time","obstacle_X_prac_occ_init","obstacle_Y_prac_occ_init","question_order","comprehensionCheck","flipped","runnerFPS","ball_X","obstacle_groundTruth_x","obstacle_groundTruth_y","stimulus_idx","currentTrial","obstacle_idx","obstacle_initial_x","obstacle_initial_y"
"true","false","[]","[]","[]","preload","0","116","0.0-0.0","5ec885ed5583f336538f0a23","64d3ef96556dbe1f0e02b5aa","64da90e0232da71eb99886dd","","","","","","","","","","","","","","","","","","","","","","","","","","","","","","","","","","","","","","","",""
"","","","","","instructions","1","9935","0.0-1.0","5ec885ed5583f336538f0a23","64d3ef96556dbe1f0e02b5aa","64da90e0232da71eb99886dd","[{""page_index"":0,""viewing_time"":9817}]","9818","","","","","","","","","","","","","","","","","","","","","","","","","","","","","","","","","","","","","",""
"","","","","","browser-check","2","11565","0.0-2.0","5ec885ed5583f336538f0a23","64d3ef96556dbe1f0e02b5aa","64da90e0232da71eb99886dd","","","1003","862","true","chrome","114.0.0","false","Mac OS","true","122","true","true","","","","","","","","","","","","","","","","","","","","","","","","","","",""
"","","","","","external-html","3","14023","0.0-3.0","5ec885ed5583f336538f0a23","64d3ef96556dbe1f0e02b5aa","64da90e0232da71eb99886dd","","2400","","","","","","","","","","","","consent.html","","","","","","","","","","","","","","","","","","","","","","","","","",""
"true","","","","","fullscreen","4","17246","0.0-4.0","5ec885ed5583f336538f0a23","64d3ef96556dbe1f0e02b5aa","64da90e0232da71eb99886dd","","2709","","","","","","","","","","","","","","","","","","","","","","","","","","","","","","","","","","","","","",""
"","","","","","survey-text","5","19904","0.0-5.0","5ec885ed5583f336538f0a23","64d3ef96556dbe1f0e02b5aa","64da90e0232da71eb99886dd","","2651","","","","","","","","","","","","","{""prolificID"":""5ec885ed5583f336538f0a23""}","","","","","","","","","","","","","","","","","","","","","","","","",""
"","","","","","browser-check","6","20402","0.0-6.0","5ec885ed5583f336538f0a23","64d3ef96556dbe1f0e02b5aa","64da90e0232da71eb99886dd","","","1728","1080","true","chrome","114.0.0","false","Mac OS","true","121.24","true","true","","","","","","","","","","","","","","","","","","","","","","","","","","",""
"","","","","","instructions","7","63575","0.0-7.0-0.0-0.0","5ec885ed5583f336538f0a23","64d3ef96556dbe1f0e02b5aa","64da90e0232da71eb99886dd","[{""page_index"":0,""viewing_time"":10961},{""page_index"":1,""viewing_time"":11730},{""page_index"":2,""viewing_time"":8989},{""page_index"":3,""viewing_time"":11492}]","43173","","","","","","","","","","","","","","","","","","","","","","","","","","","","","","","","","","","","","",""
"","","","","","html-keyboard-response","8","115699","0.0-7.0-0.0-1.0","5ec885ed5583f336538f0a23","64d3ef96556dbe1f0e02b5aa","64da90e0232da71eb99886dd","","","","","","","","","","","","","","","","574.9999000049037","319.99000049996346","","","","","","","","","","","","","","","","","","","","","","",""
"","","","","","html-keyboard-response","8","115699","0.0-7.0-0.0-1.0","5ec885ed5583f336538f0a23","64d3ef96556dbe1f0e02b5aa","64da90e0232da71eb99886dd","","","","","","","","","","","","","","","","","","practiceTrial_move","","","","","","","","","","","","","","","","","","","","","",""
"","","","","","html-button-response","9","131180","0.0-7.0-0.0-2.0","5ec885ed5583f336538f0a23","64d3ef96556dbe1f0e02b5aa","64da90e0232da71eb99886dd","","15477","","","","","","","","","","","","","0","","","","<p>To help you get more comfortable with the task, let's begin with a practice trial first!</p><p>As described previously, you will first see a video of a ball falling, some of it behind a gray screen.</p><p>After the video, you will drag a triangle to the spot you think the ball hit the triangle behind the screen.</p><p>Click 'Next' to start your practice trial.</p>","","","","","","","","","","","","","","","","","","","","",""
"","","","","","html-keyboard-response","10","134192","0.0-7.0-0.0-3.0","5ec885ed5583f336538f0a23","64d3ef96556dbe1f0e02b5aa","64da90e0232da71eb99886dd","","null","","","","","","","","","","","","","null","","","fallScene_practiceTrial_withOccluder","","400","50","420","415","","","","","","","","","","","","","","","","",""
"","","","","","html-keyboard-response","11","138084","0.0-7.0-0.0-4.0","5ec885ed5583f336538f0a23","64d3ef96556dbe1f0e02b5aa","64da90e0232da71eb99886dd","","","","","","","","","","","","","","","","","","","","","","","","388.99296394858555","298.0071059116582","3891","","","","","","","","","","","","","",""
"","","","","","html-keyboard-response","11","138084","0.0-7.0-0.0-4.0","5ec885ed5583f336538f0a23","64d3ef96556dbe1f0e02b5aa","64da90e0232da71eb99886dd","","","","","","","","","","","","","","","","","","reconstruct_practiceTrial_withOccluder","","","","","","388.99296394858555","298.0071059116582","3891","500","300","","","","","","","","","","","",""
"","","","","","html-button-response","12","144007","0.0-7.0-0.0-5.0","5ec885ed5583f336538f0a23","64d3ef96556dbe1f0e02b5aa","64da90e0232da71eb99886dd","","5920","","","","","","","","","","","","","1","","","","<p>Ok! We're almost ready to get started.</p><p>We just have a <b>brief quiz</b>, to make sure you understood the task.</p><p>If you need to review the instructions, click 'Previous'.</p><p>It's important to understand the task to do the study, so you have to pass the quiz to move to the study.</p>","","","","","","","","","","","","","","","","","","","","",""
"","","","","","survey-multi-choice","13","153321","0.0-7.0-1.0-0.0","5ec885ed5583f336538f0a23","64d3ef96556dbe1f0e02b5aa","64da90e0232da71eb99886dd","","9310","","","","","","","","","","","","","{""generalProcedure"":""Watch a video of a ball falling, some of it behind a gray screen. After each video, drag a triangle to where I think the ball hit the triangle behind the screen.""}","","","","","","","","","","","","","","[0]","","","","","","","","","","",""
"","","","","","survey-multi-choice","14","157839","0.0-7.0-1.0-1.0","5ec885ed5583f336538f0a23","64d3ef96556dbe1f0e02b5aa","64da90e0232da71eb99886dd","","4512","","","","","","","","","","","","","{""checkBallHitObstacle"":""I am not sure.""}","","","","","","","","","","","","","","[0]","","","","","","","","","","",""
"","","","","","survey-multi-choice","15","162358","0.0-7.0-1.0-2.0","5ec885ed5583f336538f0a23","64d3ef96556dbe1f0e02b5aa","64da90e0232da71eb99886dd","","4514","","","","","","","","","","","","","{""checkTriangleVisibility"":""No, the triangle is hidden behind the gray screen.""}","","","","","","","","","","","","","","[0]","","","","","","","","","","",""
"","","","","","html-button-response","16","163922","0.0-7.0-2.0-0.0","5ec885ed5583f336538f0a23","64d3ef96556dbe1f0e02b5aa","64da90e0232da71eb99886dd","","1556","","","","","","","","","","","","","0","","","","<p>Oops! You did not pass the quiz.</p><p>You will now repeat the instructions and practice.</p>","","","","","","","","","","","failed","","","","","","","","","",""
"","","","","","instructions","17","189635","0.0-7.1-0.1-0.1","5ec885ed5583f336538f0a23","64d3ef96556dbe1f0e02b5aa","64da90e0232da71eb99886dd","[{""page_index"":0,""viewing_time"":17361},{""page_index"":1,""viewing_time"":5584},{""page_index"":2,""viewing_time"":1499},{""page_index"":3,""viewing_time"":1266}]","25710","","","","","","","","","","","","","","","","","","","","","","","","","","","","","","","","","","","","","",""
"","","","","","html-keyboard-response","18","193983","0.0-7.1-0.1-1.1","5ec885ed5583f336538f0a23","64d3ef96556dbe1f0e02b5aa","64da90e0232da71eb99886dd","","","","","","","","","","","","","","","","302.99","305.00000000202203","","","","","","","","","","","","","","","","","","","","","","",""
"","","","","","html-keyboard-response","18","193983","0.0-7.1-0.1-1.1","5ec885ed5583f336538f0a23","64d3ef96556dbe1f0e02b5aa","64da90e0232da71eb99886dd","","","","","","","","","","","","","","","","","","practiceTrial_move","","","","","","","","","","","","","","","","","","","","","",""
"","","","","","html-button-response","19","195054","0.0-7.1-0.1-2.1","5ec885ed5583f336538f0a23","64d3ef96556dbe1f0e02b5aa","64da90e0232da71eb99886dd","","1068","","","","","","","","","","","","","0","","","","<p>To help you get more comfortable with the task, let's begin with a practice trial first!</p><p>As described previously, you will first see a video of a ball falling, some of it behind a gray screen.</p><p>After the video, you will drag a triangle to the spot you think the ball hit the triangle behind the screen.</p><p>Click 'Next' to start your practice trial.</p>","","","","","","","","","","","","","","","","","","","","",""
"","","","","","html-keyboard-response","20","198058","0.0-7.1-0.1-3.1","5ec885ed5583f336538f0a23","64d3ef96556dbe1f0e02b5aa","64da90e0232da71eb99886dd","","null","","","","","","","","","","","","","null","","","fallScene_practiceTrial_withOccluder","","400","50","420","415","","","","","","","","","","","","","","","","",""
"","","","","","html-keyboard-response","21","201347","0.0-7.1-0.1-4.1","5ec885ed5583f336538f0a23","64d3ef96556dbe1f0e02b5aa","64da90e0232da71eb99886dd","","","","","","","","","","","","","","","","","","","","","","","","371.0070952300225","303.0070468227541","3287.9000000953674","","","","","","","","","","","","","",""
"","","","","","html-keyboard-response","21","201347","0.0-7.1-0.1-4.1","5ec885ed5583f336538f0a23","64d3ef96556dbe1f0e02b5aa","64da90e0232da71eb99886dd","","","","","","","","","","","","","","","","","","reconstruct_practiceTrial_withOccluder","","","","","","371.0070952300225","303.0070468227541","3287.9000000953674","500","300","","","","","","","","","","","",""
"","","","","","html-button-response","22","203283","0.0-7.1-0.1-5.1","5ec885ed5583f336538f0a23","64d3ef96556dbe1f0e02b5aa","64da90e0232da71eb99886dd","","1934","","","","","","","","","","","","","1","","","","<p>Ok! We're almost ready to get started.</p><p>We just have a <b>brief quiz</b>, to make sure you understood the task.</p><p>If you need to review the instructions, click 'Previous'.</p><p>It's important to understand the task to do the study, so you have to pass the quiz to move to the study.</p>","","","","","","","","","","","","","","","","","","","","",""
"","","","","","survey-multi-choice","23","207003","0.0-7.1-1.1-0.1","5ec885ed5583f336538f0a23","64d3ef96556dbe1f0e02b5aa","64da90e0232da71eb99886dd","","3718","","","","","","","","","","","","","{""generalProcedure"":""Watch a video of a ball falling, some of it behind a gray screen. After each video, drag a triangle to where I think the ball hit the triangle behind the screen.""}","","","","","","","","","","","","","","[0]","","","","","","","","","","",""
"","","","","","survey-multi-choice","24","210141","0.0-7.1-1.1-1.1","5ec885ed5583f336538f0a23","64d3ef96556dbe1f0e02b5aa","64da90e0232da71eb99886dd","","3132","","","","","","","","","","","","","{""checkBallHitObstacle"":""Yes.""}","","","","","","","","","","","","","","[0]","","","","","","","","","","",""
"","","","","","survey-multi-choice","25","212754","0.0-7.1-1.1-2.1","5ec885ed5583f336538f0a23","64d3ef96556dbe1f0e02b5aa","64da90e0232da71eb99886dd","","2608","","","","","","","","","","","","","{""checkTriangleVisibility"":""No, the triangle is hidden behind the gray screen.""}","","","","","","","","","","","","","","[0]","","","","","","","","","","",""
"","","","","","instructions","26","218967","0.0-8.0","5ec885ed5583f336538f0a23","64d3ef96556dbe1f0e02b5aa","64da90e0232da71eb99886dd","[{""page_index"":0,""viewing_time"":6208}]","6209","","","","","","","","","","","","","","","","","","","","","","","","","","","","","","","","","","","","","",""
"","","","","","html-keyboard-response","27","221975","0.0-9.0-0.0","5ec885ed5583f336538f0a23","64d3ef96556dbe1f0e02b5aa","64da90e0232da71eb99886dd","","null","","","","","","","","","","","","","null","","","fallScene","","","","","","","","","","","","","true","122.00345300000063","500","453.67114317029973","210.33","5","1","","",""
"","","","","","html-keyboard-response","28","225301","0.0-9.0-1.0","5ec885ed5583f336538f0a23","64d3ef96556dbe1f0e02b5aa","64da90e0232da71eb99886dd","","","","","","","","","","","","","","","","","","","","","","","","474.0000999804486","303.990000499817","3325.0999999046326","","","","","","","","","","","","","",""
"","","","","","html-keyboard-response","28","225301","0.0-9.0-1.0","5ec885ed5583f336538f0a23","64d3ef96556dbe1f0e02b5aa","64da90e0232da71eb99886dd","","","","","","","","","","","","","","","","","","reconstruct","","","","","","474.0000999804486","303.990000499817","3325.0999999046326","","","","","","","","","","","1","2","375","350"
"","","","","","html-keyboard-response","29","228306","0.0-9.0-0.1","5ec885ed5583f336538f0a23","64d3ef96556dbe1f0e02b5aa","64da90e0232da71eb99886dd","","null","","","","","","","","","","","","","null","","","fallScene","","","","","","","","","","","","","true","122.00345300000063","322.3","296.07114317029976","371.46","3","2","","",""
"","","","","","html-keyboard-response","30","233821","0.0-9.0-1.1","5ec885ed5583f336538f0a23","64d3ef96556dbe1f0e02b5aa","64da90e0232da71eb99886dd","","","","","","","","","","","","","","","","","","","","","","","","817.9900021389317","305.99979318109644","5514","","","","","","","","","","","","","",""
"","","","","","html-keyboard-response","30","233821","0.0-9.0-1.1","5ec885ed5583f336538f0a23","64d3ef96556dbe1f0e02b5aa","64da90e0232da71eb99886dd","","","","","","","","","","","","","","","","","","reconstruct","","","","","","817.9900021389317","305.99979318109644","5514","","","","","","","","","","","2","6","625","350"
"","","","","","html-keyboard-response","31","236826","0.0-9.0-0.2","5ec885ed5583f336538f0a23","64d3ef96556dbe1f0e02b5aa","64da90e0232da71eb99886dd","","null","","","","","","","","","","","","","null","","","fallScene","","","","","","","","","","","","","true","122.00345299999711","604.4000000000001","575.4211431702997","266.76","12","3","","",""
"","","","","","html-keyboard-response","32","241547","0.0-9.0-1.2","5ec885ed5583f336538f0a23","64d3ef96556dbe1f0e02b5aa","64da90e0232da71eb99886dd","","","","","","","","","","","","","","","","","","","","","","","","336.00000001015945","335.01","4720.299999713898","","","","","","","","","","","","","",""
"","","","","","html-keyboard-response","32","241547","0.0-9.0-1.2","5ec885ed5583f336538f0a23","64d3ef96556dbe1f0e02b5aa","64da90e0232da71eb99886dd","","","","","","","","","","","","","","","","","","reconstruct","","","","","","336.00000001015945","335.01","4720.299999713898","","","","","","","","","","","3","3","500","250"
"","","","","","html-keyboard-response","33","244550","0.0-9.0-0.3","5ec885ed5583f336538f0a23","64d3ef96556dbe1f0e02b5aa","64da90e0232da71eb99886dd","","null","","","","","","","","","","","","","null","","","fallScene","","","","","","","","","","","","","false","122.00345300000063","604.4000000000001","667.6211431702998","201.78","9","4","","",""
"","","","","","html-keyboard-response","34","250051","0.0-9.0-1.3","5ec885ed5583f336538f0a23","64d3ef96556dbe1f0e02b5aa","64da90e0232da71eb99886dd","","","","","","","","","","","","","","","","","","","","","","","","593.0004558614364","324.99701612474365","5500.5","","","","","","","","","","","","","",""
"","","","","","html-keyboard-response","34","250051","0.0-9.0-1.3","5ec885ed5583f336538f0a23","64d3ef96556dbe1f0e02b5aa","64da90e0232da71eb99886dd","","","","","","","","","","","","","","","","","","reconstruct","","","","","","593.0004558614364","324.99701612474365","5500.5","","","","","","","","","","","4","6","625","350"
"","","","","","html-keyboard-response","35","253059","0.0-9.0-0.4","5ec885ed5583f336538f0a23","64d3ef96556dbe1f0e02b5aa","64da90e0232da71eb99886dd","","null","","","","","","","","","","","","","null","","","fallScene","","","","","","","","","","","","","true","122.00345300000063","500","479.92114317029973","330.87","6","5","","",""
"","","","","","html-keyboard-response","36","256483","0.0-9.0-1.4","5ec885ed5583f336538f0a23","64d3ef96556dbe1f0e02b5aa","64da90e0232da71eb99886dd","","","","","","","","","","","","","","","","","","","","","","","","492.9900004998126","273.00009998000667","3423.9000000953674","","","","","","","","","","","","","",""
"","","","","","html-keyboard-response","36","256483","0.0-9.0-1.4","5ec885ed5583f336538f0a23","64d3ef96556dbe1f0e02b5aa","64da90e0232da71eb99886dd","","","","","","","","","","","","","","","","","","reconstruct","","","","","","492.9900004998126","273.00009998000667","3423.9000000953674","","","","","","","","","","","5","1","375","250"
"","","","","","html-keyboard-response","37","259490","0.0-9.0-0.5","5ec885ed5583f336538f0a23","64d3ef96556dbe1f0e02b5aa","64da90e0232da71eb99886dd","","null","","","","","","","","","","","","","null","","","fallScene","","","","","","","","","","","","","false","122.00345299999711","500","479.92114317029973","330.87","6","6","","",""
"","","","","","html-keyboard-response","38","263713","0.0-9.0-1.5","5ec885ed5583f336538f0a23","64d3ef96556dbe1f0e02b5aa","64da90e0232da71eb99886dd","","","","","","","","","","","","","","","","","","","","","","","","541.999900005","280.0099995000375","4222.700000286102","","","","","","","","","","","","","",""
"","","","","","html-keyboard-response","38","263713","0.0-9.0-1.5","5ec885ed5583f336538f0a23","64d3ef96556dbe1f0e02b5aa","64da90e0232da71eb99886dd","","","","","","","","","","","","","","","","","","reconstruct","","","","","","541.999900005","280.0099995000375","4222.700000286102","","","","","","","","","","","6","4","500","350"
"","","","","","html-keyboard-response","39","266718","0.0-9.0-0.6","5ec885ed5583f336538f0a23","64d3ef96556dbe1f0e02b5aa","64da90e0232da71eb99886dd","","null","","","","","","","","","","","","","null","","","fallScene","","","","","","","","","","","","","true","122.00345300000063","604.4000000000001","596.8711431702998","394.5","10","7","","",""
"","","","","","html-keyboard-response","40","270348","0.0-9.0-1.6","5ec885ed5583f336538f0a23","64d3ef96556dbe1f0e02b5aa","64da90e0232da71eb99886dd","","","","","","","","","","","","","","","","","","","","","","","","393.01","297.9999999999994","3630.300000190735","","","","","","","","","","","","","",""
"","","","","","html-keyboard-response","40","270348","0.0-9.0-1.6","5ec885ed5583f336538f0a23","64d3ef96556dbe1f0e02b5aa","64da90e0232da71eb99886dd","","","","","","","","","","","","","","","","","","reconstruct","","","","","","393.01","297.9999999999994","3630.300000190735","","","","","","","","","","","7","6","625","350"
"","","","","","html-keyboard-response","41","273351","0.0-9.0-0.7","5ec885ed5583f336538f0a23","64d3ef96556dbe1f0e02b5aa","64da90e0232da71eb99886dd","","null","","","","","","","","","","","","","null","","","fallScene","","","","","","","","","","","","","false","122.00345300000063","322.3","356.42114317029973","357.87","4","8","","",""
"","","","","","html-keyboard-response","42","277832","0.0-9.0-1.7","5ec885ed5583f336538f0a23","64d3ef96556dbe1f0e02b5aa","64da90e0232da71eb99886dd","","","","","","","","","","","","","","","","","","","","","","","","358.0099995001781","257.00009998094174","4480.299999713898","","","","","","","","","","","","","",""
"","","","","","html-keyboard-response","42","277832","0.0-9.0-1.7","5ec885ed5583f336538f0a23","64d3ef96556dbe1f0e02b5aa","64da90e0232da71eb99886dd","","","","","","","","","","","","","","","","","","reconstruct","","","","","","358.0099995001781","257.00009998094174","4480.299999713898","","","","","","","","","","","8","6","625","350"
"","","","","","html-keyboard-response","43","280834","0.0-9.0-0.8","5ec885ed5583f336538f0a23","64d3ef96556dbe1f0e02b5aa","64da90e0232da71eb99886dd","","null","","","","","","","","","","","","","null","","","fallScene","","","","","","","","","","","","","false","122.00345300000063","500","553.4711431702997","282.51","7","9","","",""
"","","","","","html-keyboard-response","44","283697","0.0-9.0-1.8","5ec885ed5583f336538f0a23","64d3ef96556dbe1f0e02b5aa","64da90e0232da71eb99886dd","","","","","","","","","","","","","","","","","","","","","","","","493.9900000000115","339.9999995209703","2862.7999997138977","","","","","","","","","","","","","",""
"","","","","","html-keyboard-response","44","283697","0.0-9.0-1.8","5ec885ed5583f336538f0a23","64d3ef96556dbe1f0e02b5aa","64da90e0232da71eb99886dd","","","","","","","","","","","","","","","","","","reconstruct","","","","","","493.9900000000115","339.9999995209703","2862.7999997138977","","","","","","","","","","","9","1","375","250"
"","","","","","html-keyboard-response","45","286701","0.0-9.0-0.9","5ec885ed5583f336538f0a23","64d3ef96556dbe1f0e02b5aa","64da90e0232da71eb99886dd","","null","","","","","","","","","","","","","null","","","fallScene","","","","","","","","","","","","","true","122.00345300000063","500","553.4711431702997","282.51","7","10","","",""
"","","","","","html-keyboard-response","46","290115","0.0-9.0-1.9","5ec885ed5583f336538f0a23","64d3ef96556dbe1f0e02b5aa","64da90e0232da71eb99886dd","","","","","","","","","","","","","","","","","","","","","","","","479.00009998000513","324.00999950018746","3413.5","","","","","","","","","","","","","",""
"","","","","","html-keyboard-response","46","290115","0.0-9.0-1.9","5ec885ed5583f336538f0a23","64d3ef96556dbe1f0e02b5aa","64da90e0232da71eb99886dd","","","","","","","","","","","","","","","","","","reconstruct","","","","","","479.00009998000513","324.00999950018746","3413.5","","","","","","","","","","","10","3","500","250"
"","","","","","html-keyboard-response","47","293118","0.0-9.0-0.10","5ec885ed5583f336538f0a23","64d3ef96556dbe1f0e02b5aa","64da90e0232da71eb99886dd","","null","","","","","","","","","","","","","null","","","fallScene","","","","","","","","","","","","","false","122.00345300000063","322.3","308.07114317029976","253.89","2","11","","",""
"","","","","","html-keyboard-response","48","299120","0.0-9.0-1.10","5ec885ed5583f336538f0a23","64d3ef96556dbe1f0e02b5aa","64da90e0232da71eb99886dd","","","","","","","","","","","","","","","","","","","","","","","","371.99","262.9999999902003","6001","","","","","","","","","","","","","",""
"","","","","","html-keyboard-response","48","299120","0.0-9.0-1.10","5ec885ed5583f336538f0a23","64d3ef96556dbe1f0e02b5aa","64da90e0232da71eb99886dd","","","","","","","","","","","","","","","","","","reconstruct","","","","","","371.99","262.9999999902003","6001","","","","","","","","","","","11","6","625","350"
"","","","","","html-keyboard-response","49","302122","0.0-9.0-0.11","5ec885ed5583f336538f0a23","64d3ef96556dbe1f0e02b5aa","64da90e0232da71eb99886dd","","null","","","","","","","","","","","","","null","","","fallScene","","","","","","","","","","","","","true","122.00345300000063","604.4000000000001","596.8711431702998","394.5","10","12","","",""
"","","","","","html-keyboard-response","50","305149","0.0-9.0-1.11","5ec885ed5583f336538f0a23","64d3ef96556dbe1f0e02b5aa","64da90e0232da71eb99886dd","","","","","","","","","","","","","","","","","","","","","","","","361.99","256.99999999999625","3026.5999999046326","","","","","","","","","","","","","",""
"","","","","","html-keyboard-response","50","305149","0.0-9.0-1.11","5ec885ed5583f336538f0a23","64d3ef96556dbe1f0e02b5aa","64da90e0232da71eb99886dd","","","","","","","","","","","","","","","","","","reconstruct","","","","","","361.99","256.99999999999625","3026.5999999046326","","","","","","","","","","","12","2","375","350"
"","","","","","html-keyboard-response","51","308150","0.0-9.0-0.12","5ec885ed5583f336538f0a23","64d3ef96556dbe1f0e02b5aa","64da90e0232da71eb99886dd","","null","","","","","","","","","","","","","null","","","fallScene","","","","","","","","","","","","","true","122.00345300000063","604.4000000000001","650.0211431702996","404.58000000000004","11","13","","",""
"","","","","","html-keyboard-response","52","313913","0.0-9.0-1.12","5ec885ed5583f336538f0a23","64d3ef96556dbe1f0e02b5aa","64da90e0232da71eb99886dd","","","","","","","","","","","","","","","","","","","","","","","","633.9844570567709","280.99814835053587","5762.599999904633","","","","","","","","","","","","","",""
"","","","","","html-keyboard-response","52","313913","0.0-9.0-1.12","5ec885ed5583f336538f0a23","64d3ef96556dbe1f0e02b5aa","64da90e0232da71eb99886dd","","","","","","","","","","","","","","","","","","reconstruct","","","","","","633.9844570567709","280.99814835053587","5762.599999904633","","","","","","","","","","","13","4","500","350"
"","","","","","html-keyboard-response","53","316918","0.0-9.0-0.13","5ec885ed5583f336538f0a23","64d3ef96556dbe1f0e02b5aa","64da90e0232da71eb99886dd","","null","","","","","","","","","","","","","null","","","fallScene","","","","","","","","","","","","","true","122.00345300000063","322.3","379.3711431702997","245.25","1","14","","",""
"","","","","","html-keyboard-response","54","319831","0.0-9.0-1.13","5ec885ed5583f336538f0a23","64d3ef96556dbe1f0e02b5aa","64da90e0232da71eb99886dd","","","","","","","","","","","","","","","","","","","","","","","","621.0000999961326","257.9900004999738","2913.2999997138977","","","","","","","","","","","","","",""
"","","","","","html-keyboard-response","54","319831","0.0-9.0-1.13","5ec885ed5583f336538f0a23","64d3ef96556dbe1f0e02b5aa","64da90e0232da71eb99886dd","","","","","","","","","","","","","","","","","","reconstruct","","","","","","621.0000999961326","257.9900004999738","2913.2999997138977","","","","","","","","","","","14","4","500","350"
"","","","","","html-keyboard-response","55","322834","0.0-9.0-0.14","5ec885ed5583f336538f0a23","64d3ef96556dbe1f0e02b5aa","64da90e0232da71eb99886dd","","null","","","","","","","","","","","","","null","","","fallScene","","","","","","","","","","","","","true","122.00345300000063","322.3","356.42114317029973","357.87","4","15","","",""
"","","","","","html-keyboard-response","56","325452","0.0-9.0-1.14","5ec885ed5583f336538f0a23","64d3ef96556dbe1f0e02b5aa","64da90e0232da71eb99886dd","","","","","","","","","","","","","","","","","","","","","","","","657.0000000000971","293.01","2617.5","","","","","","","","","","","","","",""
"","","","","","html-keyboard-response","56","325452","0.0-9.0-1.14","5ec885ed5583f336538f0a23","64d3ef96556dbe1f0e02b5aa","64da90e0232da71eb99886dd","","","","","","","","","","","","","","","","","","reconstruct","","","","","","657.0000000000971","293.01","2617.5","","","","","","","","","","","15","2","375","350"
"","","","","","html-keyboard-response","57","328459","0.0-9.0-0.15","5ec885ed5583f336538f0a23","64d3ef96556dbe1f0e02b5aa","64da90e0232da71eb99886dd","","null","","","","","","","","","","","","","null","","","fallScene","","","","","","","","","","","","","false","122.00345300000063","604.4000000000001","650.0211431702996","404.58000000000004","11","16","","",""
"","","","","","html-keyboard-response","58","338764","0.0-9.0-1.15","5ec885ed5583f336538f0a23","64d3ef96556dbe1f0e02b5aa","64da90e0232da71eb99886dd","","","","","","","","","","","","","","","","","","","","","","","","584.9999814761927","292.0099999828434","10305","","","","","","","","","","","","","",""
"","","","","","html-keyboard-response","58","338764","0.0-9.0-1.15","5ec885ed5583f336538f0a23","64d3ef96556dbe1f0e02b5aa","64da90e0232da71eb99886dd","","","","","","","","","","","","","","","","","","reconstruct","","","","","","584.9999814761927","292.0099999828434","10305","","","","","","","","","","","16","1","375","250"
"","","","","","html-keyboard-response","59","341766","0.0-9.0-0.16","5ec885ed5583f336538f0a23","64d3ef96556dbe1f0e02b5aa","64da90e0232da71eb99886dd","","null","","","","","","","","","","","","","null","","","fallScene","","","","","","","","","","","","","true","122.00345300000063","604.4000000000001","650.0211431702996","404.58000000000004","11","17","","",""
"","","","","","html-keyboard-response","60","345783","0.0-9.0-1.16","5ec885ed5583f336538f0a23","64d3ef96556dbe1f0e02b5aa","64da90e0232da71eb99886dd","","","","","","","","","","","","","","","","","","","","","","","","347.9997180889874","354.00999602551923","4016.5999999046326","","","","","","","","","","","","","",""
"","","","","","html-keyboard-response","60","345783","0.0-9.0-1.16","5ec885ed5583f336538f0a23","64d3ef96556dbe1f0e02b5aa","64da90e0232da71eb99886dd","","","","","","","","","","","","","","","","","","reconstruct","","","","","","347.9997180889874","354.00999602551923","4016.5999999046326","","","","","","","","","","","17","3","500","250"
"","","","","","html-keyboard-response","61","348785","0.0-9.0-0.17","5ec885ed5583f336538f0a23","64d3ef96556dbe1f0e02b5aa","64da90e0232da71eb99886dd","","null","","","","","","","","","","","","","null","","","fallScene","","","","","","","","","","","","","false","122.00345300000063","604.4000000000001","667.6211431702998","201.78","9","18","","",""
"","","","","","html-keyboard-response","62","352747","0.0-9.0-1.17","5ec885ed5583f336538f0a23","64d3ef96556dbe1f0e02b5aa","64da90e0232da71eb99886dd","","","","","","","","","","","","","","","","","","","","","","","","609.0000009900509","315.990000000049","3961.2999997138977","","","","","","","","","","","","","",""
"","","","","","html-keyboard-response","62","352747","0.0-9.0-1.17","5ec885ed5583f336538f0a23","64d3ef96556dbe1f0e02b5aa","64da90e0232da71eb99886dd","","","","","","","","","","","","","","","","","","reconstruct","","","","","","609.0000009900509","315.990000000049","3961.2999997138977","","","","","","","","","","","18","3","500","250"
"","","","","","html-button-response","63","357127","0.0-10.0","5ec885ed5583f336538f0a23","64d3ef96556dbe1f0e02b5aa","64da90e0232da71eb99886dd","","4380","","","","","","","","","","","","","0","","","","<p><span style = ""font-size:40px;"">BREAK</span></p><p>You are doing great! Click 'Next' when you are ready for the next set.</p>","","","","","","","","","","","","","","","","","","","","",""
"","","","","","html-keyboard-response","64","360135","0.0-11.0-0.0","5ec885ed5583f336538f0a23","64d3ef96556dbe1f0e02b5aa","64da90e0232da71eb99886dd","","null","","","","","","","","","","","","","null","","","fallScene","","","","","","","","","","","","","false","120.09540000000501","322.3","296.07114317029976","371.46","3","19","","",""
"","","","","","html-keyboard-response","65","363916","0.0-11.0-1.0","5ec885ed5583f336538f0a23","64d3ef96556dbe1f0e02b5aa","64da90e0232da71eb99886dd","","","","","","","","","","","","","","","","","","","","","","","","305.00696646379623","343.9928258532092","3780.7000002861023","","","","","","","","","","","","","",""
"","","","","","html-keyboard-response","65","363916","0.0-11.0-1.0","5ec885ed5583f336538f0a23","64d3ef96556dbe1f0e02b5aa","64da90e0232da71eb99886dd","","","","","","","","","","","","","","","","","","reconstruct","","","","","","305.00696646379623","343.9928258532092","3780.7000002861023","","","","","","","","","","","19","5","625","250"
"","","","","","html-keyboard-response","66","366920","0.0-11.0-0.1","5ec885ed5583f336538f0a23","64d3ef96556dbe1f0e02b5aa","64da90e0232da71eb99886dd","","null","","","","","","","","","","","","","null","","","fallScene","","","","","","","","","","","","","true","122.00345300000063","500","553.4711431702997","282.51","7","20","","",""
"","","","","","html-keyboard-response","67","370531","0.0-11.0-1.1","5ec885ed5583f336538f0a23","64d3ef96556dbe1f0e02b5aa","64da90e0232da71eb99886dd","","","","","","","","","","","","","","","","","","","","","","","","498.0071065836004","260.99296462726426","3611.199999809265","","","","","","","","","","","","","",""
"","","","","","html-keyboard-response","67","370531","0.0-11.0-1.1","5ec885ed5583f336538f0a23","64d3ef96556dbe1f0e02b5aa","64da90e0232da71eb99886dd","","","","","","","","","","","","","","","","","","reconstruct","","","","","","498.0071065836004","260.99296462726426","3611.199999809265","","","","","","","","","","","20","6","625","350"
"","","","","","html-keyboard-response","68","373535","0.0-11.0-0.2","5ec885ed5583f336538f0a23","64d3ef96556dbe1f0e02b5aa","64da90e0232da71eb99886dd","","null","","","","","","","","","","","","","null","","","fallScene","","","","","","","","","","","","","true","122.00345300000063","500","453.67114317029973","210.33","5","21","","",""
"","","","","","html-keyboard-response","69","376413","0.0-11.0-1.2","5ec885ed5583f336538f0a23","64d3ef96556dbe1f0e02b5aa","64da90e0232da71eb99886dd","","","","","","","","","","","","","","","","","","","","","","","","461.0000007161553","271.00999999997435","2878.3999996185303","","","","","","","","","","","","","",""
"","","","","","html-keyboard-response","69","376413","0.0-11.0-1.2","5ec885ed5583f336538f0a23","64d3ef96556dbe1f0e02b5aa","64da90e0232da71eb99886dd","","","","","","","","","","","","","","","","","","reconstruct","","","","","","461.0000007161553","271.00999999997435","2878.3999996185303","","","","","","","","","","","21","6","625","350"
"","","","","","html-keyboard-response","70","379417","0.0-11.0-0.3","5ec885ed5583f336538f0a23","64d3ef96556dbe1f0e02b5aa","64da90e0232da71eb99886dd","","null","","","","","","","","","","","","","null","","","fallScene","","","","","","","","","","","","","true","122.00345300000063","500","510.8711431702997","369.03","8","22","","",""
"","","","","","html-keyboard-response","71","382014","0.0-11.0-1.3","5ec885ed5583f336538f0a23","64d3ef96556dbe1f0e02b5aa","64da90e0232da71eb99886dd","","","","","","","","","","","","","","","","","","","","","","","","611.0000009899285","304.009999999951","2596.800000190735","","","","","","","","","","","","","",""
"","","","","","html-keyboard-response","71","382014","0.0-11.0-1.3","5ec885ed5583f336538f0a23","64d3ef96556dbe1f0e02b5aa","64da90e0232da71eb99886dd","","","","","","","","","","","","","","","","","","reconstruct","","","","","","611.0000009899285","304.009999999951","2596.800000190735","","","","","","","","","","","22","4","500","350"
"","","","","","html-keyboard-response","72","385017","0.0-11.0-0.4","5ec885ed5583f336538f0a23","64d3ef96556dbe1f0e02b5aa","64da90e0232da71eb99886dd","","null","","","","","","","","","","","","","null","","","fallScene","","","","","","","","","","","","","true","122.00345300000063","322.3","356.42114317029973","357.87","4","23","","",""
"","","","","","html-keyboard-response","73","388497","0.0-11.0-1.4","5ec885ed5583f336538f0a23","64d3ef96556dbe1f0e02b5aa","64da90e0232da71eb99886dd","","","","","","","","","","","","","","","","","","","","","","","","628.0046950731505","287.00882928582115","3479.9000000953674","","","","","","","","","","","","","",""
"","","","","","html-keyboard-response","73","388497","0.0-11.0-1.4","5ec885ed5583f336538f0a23","64d3ef96556dbe1f0e02b5aa","64da90e0232da71eb99886dd","","","","","","","","","","","","","","","","","","reconstruct","","","","","","628.0046950731505","287.00882928582115","3479.9000000953674","","","","","","","","","","","23","4","500","350"
"","","","","","html-keyboard-response","74","391500","0.0-11.0-0.5","5ec885ed5583f336538f0a23","64d3ef96556dbe1f0e02b5aa","64da90e0232da71eb99886dd","","null","","","","","","","","","","","","","null","","","fallScene","","","","","","","","","","","","","true","122.00345300000063","604.4000000000001","575.4211431702997","266.76","12","24","","",""
"","","","","","html-keyboard-response","75","403264","0.0-11.0-1.5","5ec885ed5583f336538f0a23","64d3ef96556dbe1f0e02b5aa","64da90e0232da71eb99886dd","","","","","","","","","","","","","","","","","","","","","","","","336.0099999999506","281.00000099407345","11763.800000190735","","","","","","","","","","","","","",""
"","","","","","html-keyboard-response","75","403264","0.0-11.0-1.5","5ec885ed5583f336538f0a23","64d3ef96556dbe1f0e02b5aa","64da90e0232da71eb99886dd","","","","","","","","","","","","","","","","","","reconstruct","","","","","","336.0099999999506","281.00000099407345","11763.800000190735","","","","","","","","","","","24","5","625","250"
"","","","","","html-keyboard-response","76","406268","0.0-11.0-0.6","5ec885ed5583f336538f0a23","64d3ef96556dbe1f0e02b5aa","64da90e0232da71eb99886dd","","null","","","","","","","","","","","","","null","","","fallScene","","","","","","","","","","","","","true","122.00345299999357","604.4000000000001","596.8711431702998","394.5","10","25","","",""
"","","","","","html-keyboard-response","77","409486","0.0-11.0-1.6","5ec885ed5583f336538f0a23","64d3ef96556dbe1f0e02b5aa","64da90e0232da71eb99886dd","","","","","","","","","","","","","","","","","","","","","","","","346.9900000000002","290.99999993656434","3217.699999809265","","","","","","","","","","","","","",""
"","","","","","html-keyboard-response","77","409486","0.0-11.0-1.6","5ec885ed5583f336538f0a23","64d3ef96556dbe1f0e02b5aa","64da90e0232da71eb99886dd","","","","","","","","","","","","","","","","","","reconstruct","","","","","","346.9900000000002","290.99999993656434","3217.699999809265","","","","","","","","","","","25","5","625","250"
"","","","","","html-keyboard-response","78","412490","0.0-11.0-0.7","5ec885ed5583f336538f0a23","64d3ef96556dbe1f0e02b5aa","64da90e0232da71eb99886dd","","null","","","","","","","","","","","","","null","","","fallScene","","","","","","","","","","","","","false","122.00345300000063","322.3","308.07114317029976","253.89","2","26","","",""
"","","","","","html-keyboard-response","79","416466","0.0-11.0-1.7","5ec885ed5583f336538f0a23","64d3ef96556dbe1f0e02b5aa","64da90e0232da71eb99886dd","","","","","","","","","","","","","","","","","","","","","","","","520.0099996523657","296.00008338204486","3975.5999999046326","","","","","","","","","","","","","",""
"","","","","","html-keyboard-response","79","416466","0.0-11.0-1.7","5ec885ed5583f336538f0a23","64d3ef96556dbe1f0e02b5aa","64da90e0232da71eb99886dd","","","","","","","","","","","","","","","","","","reconstruct","","","","","","520.0099996523657","296.00008338204486","3975.5999999046326","","","","","","","","","","","26","4","500","350"
"","","","","","html-keyboard-response","80","419468","0.0-11.0-0.8","5ec885ed5583f336538f0a23","64d3ef96556dbe1f0e02b5aa","64da90e0232da71eb99886dd","","null","","","","","","","","","","","","","null","","","fallScene","","","","","","","","","","","","","true","122.00345300000063","500","453.67114317029973","210.33","5","27","","",""
"","","","","","html-keyboard-response","81","422381","0.0-11.0-1.8","5ec885ed5583f336538f0a23","64d3ef96556dbe1f0e02b5aa","64da90e0232da71eb99886dd","","","","","","","","","","","","","","","","","","","","","","","","429.01","293.9999999956271","2912","","","","","","","","","","","","","",""
"","","","","","html-keyboard-response","81","422381","0.0-11.0-1.8","5ec885ed5583f336538f0a23","64d3ef96556dbe1f0e02b5aa","64da90e0232da71eb99886dd","","","","","","","","","","","","","","","","","","reconstruct","","","","","","429.01","293.9999999956271","2912","","","","","","","","","","","27","5","625","250"
"","","","","","html-keyboard-response","82","425386","0.0-11.0-0.9","5ec885ed5583f336538f0a23","64d3ef96556dbe1f0e02b5aa","64da90e0232da71eb99886dd","","null","","","","","","","","","","","","","null","","","fallScene","","","","","","","","","","","","","true","122.00345299999357","500","479.92114317029973","330.87","6","28","","",""
"","","","","","html-keyboard-response","83","431616","0.0-11.0-1.9","5ec885ed5583f336538f0a23","64d3ef96556dbe1f0e02b5aa","64da90e0232da71eb99886dd","","","","","","","","","","","","","","","","","","","","","","","","472.0099999564794","390.9999704972934","6230.5","","","","","","","","","","","","","",""
"","","","","","html-keyboard-response","83","431616","0.0-11.0-1.9","5ec885ed5583f336538f0a23","64d3ef96556dbe1f0e02b5aa","64da90e0232da71eb99886dd","","","","","","","","","","","","","","","","","","reconstruct","","","","","","472.0099999564794","390.9999704972934","6230.5","","","","","","","","","","","28","5","625","250"
"","","","","","html-keyboard-response","84","434618","0.0-11.0-0.10","5ec885ed5583f336538f0a23","64d3ef96556dbe1f0e02b5aa","64da90e0232da71eb99886dd","","null","","","","","","","","","","","","","null","","","fallScene","","","","","","","","","","","","","true","122.00345300000063","604.4000000000001","667.6211431702998","201.78","9","29","","",""
"","","","","","html-keyboard-response","85","439483","0.0-11.0-1.10","5ec885ed5583f336538f0a23","64d3ef96556dbe1f0e02b5aa","64da90e0232da71eb99886dd","","","","","","","","","","","","","","","","","","","","","","","","368.0099963575529","364.0002698808529","4865.400000095367","","","","","","","","","","","","","",""
"","","","","","html-keyboard-response","85","439483","0.0-11.0-1.10","5ec885ed5583f336538f0a23","64d3ef96556dbe1f0e02b5aa","64da90e0232da71eb99886dd","","","","","","","","","","","","","","","","","","reconstruct","","","","","","368.0099963575529","364.0002698808529","4865.400000095367","","","","","","","","","","","29","1","375","250"
"","","","","","html-keyboard-response","86","442485","0.0-11.0-0.11","5ec885ed5583f336538f0a23","64d3ef96556dbe1f0e02b5aa","64da90e0232da71eb99886dd","","null","","","","","","","","","","","","","null","","","fallScene","","","","","","","","","","","","","false","122.00345300000063","322.3","379.3711431702997","245.25","1","30","","",""
"","","","","","html-keyboard-response","87","445537","0.0-11.0-1.11","5ec885ed5583f336538f0a23","64d3ef96556dbe1f0e02b5aa","64da90e0232da71eb99886dd","","","","","","","","","","","","","","","","","","","","","","","","372.00000098322306","271.0099999999517","3051.0999999046326","","","","","","","","","","","","","",""
"","","","","","html-keyboard-response","87","445537","0.0-11.0-1.11","5ec885ed5583f336538f0a23","64d3ef96556dbe1f0e02b5aa","64da90e0232da71eb99886dd","","","","","","","","","","","","","","","","","","reconstruct","","","","","","372.00000098322306","271.0099999999517","3051.0999999046326","","","","","","","","","","","30","3","500","250"
"","","","","","html-keyboard-response","88","448539","0.0-11.0-0.12","5ec885ed5583f336538f0a23","64d3ef96556dbe1f0e02b5aa","64da90e0232da71eb99886dd","","null","","","","","","","","","","","","","null","","","fallScene","","","","","","","","","","","","","true","119.98686699999367","322.3","308.07114317029976","253.89","2","31","","",""
"","","","","","html-keyboard-response","89","451833","0.0-11.0-1.12","5ec885ed5583f336538f0a23","64d3ef96556dbe1f0e02b5aa","64da90e0232da71eb99886dd","","","","","","","","","","","","","","","","","","","","","","","","618.999998991986","316.0099999999492","3294","","","","","","","","","","","","","",""
"","","","","","html-keyboard-response","89","451833","0.0-11.0-1.12","5ec885ed5583f336538f0a23","64d3ef96556dbe1f0e02b5aa","64da90e0232da71eb99886dd","","","","","","","","","","","","","","","","","","reconstruct","","","","","","618.999998991986","316.0099999999492","3294","","","","","","","","","","","31","5","625","250"
"","","","","","html-keyboard-response","90","454838","0.0-11.0-0.13","5ec885ed5583f336538f0a23","64d3ef96556dbe1f0e02b5aa","64da90e0232da71eb99886dd","","null","","","","","","","","","","","","","null","","","fallScene","","","","","","","","","","","","","true","115.9536950000006","500","553.4711431702997","282.51","7","32","","",""
"","","","","","html-keyboard-response","91","459049","0.0-11.0-1.13","5ec885ed5583f336538f0a23","64d3ef96556dbe1f0e02b5aa","64da90e0232da71eb99886dd","","","","","","","","","","","","","","","","","","","","","","","","494.99289384069004","294.99296419870507","4211.5","","","","","","","","","","","","","",""
"","","","","","html-keyboard-response","91","459049","0.0-11.0-1.13","5ec885ed5583f336538f0a23","64d3ef96556dbe1f0e02b5aa","64da90e0232da71eb99886dd","","","","","","","","","","","","","","","","","","reconstruct","","","","","","494.99289384069004","294.99296419870507","4211.5","","","","","","","","","","","32","4","500","350"
"","","","","","html-keyboard-response","92","462056","0.0-11.0-0.14","5ec885ed5583f336538f0a23","64d3ef96556dbe1f0e02b5aa","64da90e0232da71eb99886dd","","null","","","","","","","","","","","","","null","","","fallScene","","","","","","","","","","","","","true","112.92881599999404","322.3","308.07114317029976","253.89","2","33","","",""
"","","","","","html-keyboard-response","93","465399","0.0-11.0-1.14","5ec885ed5583f336538f0a23","64d3ef96556dbe1f0e02b5aa","64da90e0232da71eb99886dd","","","","","","","","","","","","","","","","","","","","","","","","524.0031289119684","293.00949788976004","3342.300000190735","","","","","","","","","","","","","",""
"","","","","","html-keyboard-response","93","465399","0.0-11.0-1.14","5ec885ed5583f336538f0a23","64d3ef96556dbe1f0e02b5aa","64da90e0232da71eb99886dd","","","","","","","","","","","","","","","","","","reconstruct","","","","","","524.0031289119684","293.00949788976004","3342.300000190735","","","","","","","","","","","33","2","375","350"
"","","","","","html-keyboard-response","94","468401","0.0-11.0-0.15","5ec885ed5583f336538f0a23","64d3ef96556dbe1f0e02b5aa","64da90e0232da71eb99886dd","","null","","","","","","","","","","","","","null","","","fallScene","","","","","","","","","","","","","false","107.88735100000056","322.3","296.07114317029976","371.46","3","34","","",""
"","","","","","html-keyboard-response","95","498467","0.0-11.0-1.15","5ec885ed5583f336538f0a23","64d3ef96556dbe1f0e02b5aa","64da90e0232da71eb99886dd","","","","","","","","","","","","","","","","","","","","","","","","293.0099999984706","339.99999446936636","30065.699999809265","","","","","","","","","","","","","",""
"","","","","","html-keyboard-response","95","498467","0.0-11.0-1.15","5ec885ed5583f336538f0a23","64d3ef96556dbe1f0e02b5aa","64da90e0232da71eb99886dd","","","","","","","","","","","","","","","","","","reconstruct","","","","","","293.0099999984706","339.99999446936636","30065.699999809265","","","","","","","","","","","34","3","500","250"
"","","","","","html-keyboard-response","96","501471","0.0-11.0-0.16","5ec885ed5583f336538f0a23","64d3ef96556dbe1f0e02b5aa","64da90e0232da71eb99886dd","","null","","","","","","","","","","","","","null","","","fallScene","","","","","","","","","","","","","true","106.9903579999993","604.4000000000001","596.8711431702998","394.5","10","35","","",""
"","","","","","html-keyboard-response","97","505285","0.0-11.0-1.16","5ec885ed5583f336538f0a23","64d3ef96556dbe1f0e02b5aa","64da90e0232da71eb99886dd","","","","","","","","","","","","","","","","","","","","","","","","361.9928258841414","258.9930335043496","3814","","","","","","","","","","","","","",""
"","","","","","html-keyboard-response","97","505285","0.0-11.0-1.16","5ec885ed5583f336538f0a23","64d3ef96556dbe1f0e02b5aa","64da90e0232da71eb99886dd","","","","","","","","","","","","","","","","","","reconstruct","","","","","","361.9928258841414","258.9930335043496","3814","","","","","","","","","","","35","1","375","250"
"","","","","","html-keyboard-response","98","508290","0.0-11.0-0.17","5ec885ed5583f336538f0a23","64d3ef96556dbe1f0e02b5aa","64da90e0232da71eb99886dd","","null","","","","","","","","","","","","","null","","","fallScene","","","","","","","","","","","","","true","100.82930000000052","500","510.8711431702997","369.03","8","36","","",""
"","","","","","html-keyboard-response","99","511666","0.0-11.0-1.17","5ec885ed5583f336538f0a23","64d3ef96556dbe1f0e02b5aa","64da90e0232da71eb99886dd","","","","","","","","","","","","","","","","","","","","","","","","528.01","280","3375.0999999046326","","","","","","","","","","","","","",""
"","","","","","html-keyboard-response","99","511666","0.0-11.0-1.17","5ec885ed5583f336538f0a23","64d3ef96556dbe1f0e02b5aa","64da90e0232da71eb99886dd","","","","","","","","","","","","","","","","","","reconstruct","","","","","","528.01","280","3375.0999999046326","","","","","","","","","","","36","6","625","350"
"","","","","","html-button-response","100","516615","0.0-12.0","5ec885ed5583f336538f0a23","64d3ef96556dbe1f0e02b5aa","64da90e0232da71eb99886dd","","4948","","","","","","","","","","","","","0","","","","<p><span style = ""font-size:40px;"">BREAK</span></p><p>You are halfway done! Click 'Next' when you are ready for the next set.</p>","","","","","","","","","","","","","","","","","","","","",""
"","","","","","html-keyboard-response","101","519617","0.0-13.0-0.0","5ec885ed5583f336538f0a23","64d3ef96556dbe1f0e02b5aa","64da90e0232da71eb99886dd","","null","","","","","","","","","","","","","null","","","fallScene","","","","","","","","","","","","","false","100.82930000000052","500","510.8711431702997","369.03","8","37","","",""
"","","","","","html-keyboard-response","102","562133","0.0-13.0-1.0","5ec885ed5583f336538f0a23","64d3ef96556dbe1f0e02b5aa","64da90e0232da71eb99886dd","","","","","","","","","","","","","","","","","","","","","","","","424.00999975351175","354.99992978814856","42515.40000009537","","","","","","","","","","","","","",""
"","","","","","html-keyboard-response","102","562133","0.0-13.0-1.0","5ec885ed5583f336538f0a23","64d3ef96556dbe1f0e02b5aa","64da90e0232da71eb99886dd","","","","","","","","","","","","","","","","","","reconstruct","","","","","","424.00999975351175","354.99992978814856","42515.40000009537","","","","","","","","","","","37","2","375","350"
"","","","","","html-keyboard-response","103","565137","0.0-13.0-0.1","5ec885ed5583f336538f0a23","64d3ef96556dbe1f0e02b5aa","64da90e0232da71eb99886dd","","null","","","","","","","","","","","","","null","","","fallScene","","","","","","","","","","","","","true","97.80442099999485","322.3","356.42114317029973","357.87","4","38","","",""
"","","","","","html-keyboard-response","104","568034","0.0-13.0-1.1","5ec885ed5583f336538f0a23","64d3ef96556dbe1f0e02b5aa","64da90e0232da71eb99886dd","","","","","","","","","","","","","","","","","","","","","","","","675.0000010099546","290.990000000051","2896.300000190735","","","","","","","","","","","","","",""
"","","","","","html-keyboard-response","104","568034","0.0-13.0-1.1","5ec885ed5583f336538f0a23","64d3ef96556dbe1f0e02b5aa","64da90e0232da71eb99886dd","","","","","","","","","","","","","","","","","","reconstruct","","","","","","675.0000010099546","290.990000000051","2896.300000190735","","","","","","","","","","","38","1","375","250"
"","","","","","html-keyboard-response","105","571038","0.0-13.0-0.2","5ec885ed5583f336538f0a23","64d3ef96556dbe1f0e02b5aa","64da90e0232da71eb99886dd","","null","","","","","","","","","","","","","null","","","fallScene","","","","","","","","","","","","","false","97.80442099999485","604.4000000000001","650.0211431702996","404.58000000000004","11","39","","",""
"","","","","","html-keyboard-response","106","620148","0.0-13.0-1.2","5ec885ed5583f336538f0a23","64d3ef96556dbe1f0e02b5aa","64da90e0232da71eb99886dd","","","","","","","","","","","","","","","","","","","","","","","","612.000000990051","347.009999999951","49109.59999990463","","","","","","","","","","","","","",""
"","","","","","html-keyboard-response","106","620148","0.0-13.0-1.2","5ec885ed5583f336538f0a23","64d3ef96556dbe1f0e02b5aa","64da90e0232da71eb99886dd","","","","","","","","","","","","","","","","","","reconstruct","","","","","","612.000000990051","347.009999999951","49109.59999990463","","","","","","","","","","","39","5","625","250"
"","","","","","html-keyboard-response","107","623151","0.0-13.0-0.3","5ec885ed5583f336538f0a23","64d3ef96556dbe1f0e02b5aa","64da90e0232da71eb99886dd","","null","","","","","","","","","","","","","null","","","fallScene","","","","","","","","","","","","","false","94.2194899999965","500","479.92114317029973","330.87","6","40","","",""
"","","","","","html-keyboard-response","108","625998","0.0-13.0-1.3","5ec885ed5583f336538f0a23","64d3ef96556dbe1f0e02b5aa","64da90e0232da71eb99886dd","","","","","","","","","","","","","","","","","","","","","","","","528.9929088020183","297.9929491198291","2846","","","","","","","","","","","","","",""
"","","","","","html-keyboard-response","108","625998","0.0-13.0-1.3","5ec885ed5583f336538f0a23","64d3ef96556dbe1f0e02b5aa","64da90e0232da71eb99886dd","","","","","","","","","","","","","","","","","","reconstruct","","","","","","528.9929088020183","297.9929491198291","2846","","","","","","","","","","","40","6","625","350"
"","","","","","html-keyboard-response","109","629001","0.0-13.0-0.4","5ec885ed5583f336538f0a23","64d3ef96556dbe1f0e02b5aa","64da90e0232da71eb99886dd","","null","","","","","","","","","","","","","null","","","fallScene","","","","","","","","","","","","","false","92.76295599999511","604.4000000000001","667.6211431702998","201.78","9","41","","",""
"","","","","","html-keyboard-response","110","633119","0.0-13.0-1.4","5ec885ed5583f336538f0a23","64d3ef96556dbe1f0e02b5aa","64da90e0232da71eb99886dd","","","","","","","","","","","","","","","","","","","","","","","","591.0068042007707","301.99267177703183","4118","","","","","","","","","","","","","",""
"","","","","","html-keyboard-response","110","633119","0.0-13.0-1.4","5ec885ed5583f336538f0a23","64d3ef96556dbe1f0e02b5aa","64da90e0232da71eb99886dd","","","","","","","","","","","","","","","","","","reconstruct","","","","","","591.0068042007707","301.99267177703183","4118","","","","","","","","","","","41","2","375","350"
"","","","","","html-keyboard-response","111","636123","0.0-13.0-0.5","5ec885ed5583f336538f0a23","64d3ef96556dbe1f0e02b5aa","64da90e0232da71eb99886dd","","null","","","","","","","","","","","","","null","","","fallScene","","","","","","","","","","","","","false","88.72978399999532","604.4000000000001","667.6211431702998","201.78","9","42","","",""
"","","","","","html-keyboard-response","112","638898","0.0-13.0-1.5","5ec885ed5583f336538f0a23","64d3ef96556dbe1f0e02b5aa","64da90e0232da71eb99886dd","","","","","","","","","","","","","","","","","","","","","","","","603.0099999950485","323.00000995141687","2774.7000002861023","","","","","","","","","","","","","",""
"","","","","","html-keyboard-response","112","638898","0.0-13.0-1.5","5ec885ed5583f336538f0a23","64d3ef96556dbe1f0e02b5aa","64da90e0232da71eb99886dd","","","","","","","","","","","","","","","","","","reconstruct","","","","","","603.0099999950485","323.00000995141687","2774.7000002861023","","","","","","","","","","","42","5","625","250"
"","","","","","html-keyboard-response","113","641903","0.0-13.0-0.6","5ec885ed5583f336538f0a23","64d3ef96556dbe1f0e02b5aa","64da90e0232da71eb99886dd","","null","","","","","","","","","","","","","null","","","fallScene","","","","","","","","","","","","","true","87.03131999999877","604.4000000000001","596.8711431702998","394.5","10","43","","",""
"","","","","","html-keyboard-response","114","645215","0.0-13.0-1.6","5ec885ed5583f336538f0a23","64d3ef96556dbe1f0e02b5aa","64da90e0232da71eb99886dd","","","","","","","","","","","","","","","","","","","","","","","","361.99000062312734","300.9998883659621","3312","","","","","","","","","","","","","",""
"","","","","","html-keyboard-response","114","645215","0.0-13.0-1.6","5ec885ed5583f336538f0a23","64d3ef96556dbe1f0e02b5aa","64da90e0232da71eb99886dd","","","","","","","","","","","","","","","","","","reconstruct","","","","","","361.99000062312734","300.9998883659621","3312","","","","","","","","","","","43","4","500","350"
"","","","","","html-keyboard-response","115","648219","0.0-13.0-0.7","5ec885ed5583f336538f0a23","64d3ef96556dbe1f0e02b5aa","64da90e0232da71eb99886dd","","null","","","","","","","","","","","","","null","","","fallScene","","","","","","","","","","","","","true","85.70490499999548","500","510.8711431702997","369.03","8","44","","",""
"","","","","","html-keyboard-response","116","651869","0.0-13.0-1.7","5ec885ed5583f336538f0a23","64d3ef96556dbe1f0e02b5aa","64da90e0232da71eb99886dd","","","","","","","","","","","","","","","","","","","","","","","","568.997169166768","327.99040904680373","3649.5999999046326","","","","","","","","","","","","","",""
"","","","","","html-keyboard-response","116","651869","0.0-13.0-1.7","5ec885ed5583f336538f0a23","64d3ef96556dbe1f0e02b5aa","64da90e0232da71eb99886dd","","","","","","","","","","","","","","","","","","reconstruct","","","","","","568.997169166768","327.99040904680373","3649.5999999046326","","","","","","","","","","","44","5","625","250"
"","","","","","html-keyboard-response","117","654875","0.0-13.0-0.8","5ec885ed5583f336538f0a23","64d3ef96556dbe1f0e02b5aa","64da90e0232da71eb99886dd","","null","","","","","","","","","","","","","null","","","fallScene","","","","","","","","","","","","","false","83.68831900000527","322.3","296.07114317029976","371.46","3","45","","",""
"","","","","","html-keyboard-response","118","657798","0.0-13.0-1.8","5ec885ed5583f336538f0a23","64d3ef96556dbe1f0e02b5aa","64da90e0232da71eb99886dd","","","","","","","","","","","","","","","","","","","","","","","","279.0099988761711","283.00014991769575","2923.0999999046326","","","","","","","","","","","","","",""
"","","","","","html-keyboard-response","118","657798","0.0-13.0-1.8","5ec885ed5583f336538f0a23","64d3ef96556dbe1f0e02b5aa","64da90e0232da71eb99886dd","","","","","","","","","","","","","","","","","","reconstruct","","","","","","279.0099988761711","283.00014991769575","2923.0999999046326","","","","","","","","","","","45","2","375","350"
"","","","","","html-keyboard-response","119","660801","0.0-13.0-0.9","5ec885ed5583f336538f0a23","64d3ef96556dbe1f0e02b5aa","64da90e0232da71eb99886dd","","null","","","","","","","","","","","","","null","","","fallScene","","","","","","","","","","","","","false","85.396584000004","500","453.67114317029973","210.33","5","46","","",""
"","","","","","html-keyboard-response","120","663582","0.0-13.0-1.9","5ec885ed5583f336538f0a23","64d3ef96556dbe1f0e02b5aa","64da90e0232da71eb99886dd","","","","","","","","","","","","","","","","","","","","","","","","517.9903000036937","325.9975689361055","2780.6000003814697","","","","","","","","","","","","","",""
"","","","","","html-keyboard-response","120","663582","0.0-13.0-1.9","5ec885ed5583f336538f0a23","64d3ef96556dbe1f0e02b5aa","64da90e0232da71eb99886dd","","","","","","","","","","","","","","","","","","reconstruct","","","","","","517.9903000036937","325.9975689361055","2780.6000003814697","","","","","","","","","","","46","3","500","250"
"","","","","","html-keyboard-response","121","666583","0.0-13.0-0.10","5ec885ed5583f336538f0a23","64d3ef96556dbe1f0e02b5aa","64da90e0232da71eb99886dd","","null","","","","","","","","","","","","","null","","","fallScene","","","","","","","","","","","","","true","81.67173300000513","322.3","379.3711431702997","245.25","1","47","","",""
"","","","","","html-keyboard-response","122","680365","0.0-13.0-1.10","5ec885ed5583f336538f0a23","64d3ef96556dbe1f0e02b5aa","64da90e0232da71eb99886dd","","","","","","","","","","","","","","","","","","","","","","","","686.9900044066369","295.99970316112143","13781.400000095367","","","","","","","","","","","","","",""
"","","","","","html-keyboard-response","122","680365","0.0-13.0-1.10","5ec885ed5583f336538f0a23","64d3ef96556dbe1f0e02b5aa","64da90e0232da71eb99886dd","","","","","","","","","","","","","","","","","","reconstruct","","","","","","686.9900044066369","295.99970316112143","13781.400000095367","","","","","","","","","","","47","5","625","250"
"","","","","","html-keyboard-response","123","683369","0.0-13.0-0.11","5ec885ed5583f336538f0a23","64d3ef96556dbe1f0e02b5aa","64da90e0232da71eb99886dd","","null","","","","","","","","","","","","","null","","","fallScene","","","","","","","","","","","","","false","80.69655999999495","322.3","379.3711431702997","245.25","1","48","","",""
"","","","","","html-keyboard-response","124","687436","0.0-13.0-1.11","5ec885ed5583f336538f0a23","64d3ef96556dbe1f0e02b5aa","64da90e0232da71eb99886dd","","","","","","","","","","","","","","","","","","","","","","","","281.0000000007315","257.99","4066.3999996185303","","","","","","","","","","","","","",""
"","","","","","html-keyboard-response","124","687436","0.0-13.0-1.11","5ec885ed5583f336538f0a23","64d3ef96556dbe1f0e02b5aa","64da90e0232da71eb99886dd","","","","","","","","","","","","","","","","","","reconstruct","","","","","","281.0000000007315","257.99","4066.3999996185303","","","","","","","","","","","48","2","375","350"
"","","","","","html-keyboard-response","125","690444","0.0-13.0-0.12","5ec885ed5583f336538f0a23","64d3ef96556dbe1f0e02b5aa","64da90e0232da71eb99886dd","","null","","","","","","","","","","","","","null","","","fallScene","","","","","","","","","","","","","true","76.63026799999597","322.3","356.42114317029973","357.87","4","49","","",""
"","","","","","html-keyboard-response","126","761915","0.0-13.0-1.12","5ec885ed5583f336538f0a23","64d3ef96556dbe1f0e02b5aa","64da90e0232da71eb99886dd","","","","","","","","","","","","","","","","","","","","","","","","702.9900009922362","329.0001408678119","71470.59999990463","","","","","","","","","","","","","",""
"","","","","","html-keyboard-response","126","761915","0.0-13.0-1.12","5ec885ed5583f336538f0a23","64d3ef96556dbe1f0e02b5aa","64da90e0232da71eb99886dd","","","","","","","","","","","","","","","","","","reconstruct","","","","","","702.9900009922362","329.0001408678119","71470.59999990463","","","","","","","","","","","49","5","625","250"
"","","","","","html-keyboard-response","127","764919","0.0-13.0-0.13","5ec885ed5583f336538f0a23","64d3ef96556dbe1f0e02b5aa","64da90e0232da71eb99886dd","","null","","","","","","","","","","","","","null","","","fallScene","","","","","","","","","","","","","false","30.06339000000036","604.4000000000001","596.8711431702998","394.5","10","50","","",""
"","","","","","html-keyboard-response","128","768119","0.0-13.0-1.13","5ec885ed5583f336538f0a23","64d3ef96556dbe1f0e02b5aa","64da90e0232da71eb99886dd","","","","","","","","","","","","","","","","","","","","","","","","648.9997553719642","348.9900029925916","3200.4000000953674","","","","","","","","","","","","","",""
"","","","","","html-keyboard-response","128","768120","0.0-13.0-1.13","5ec885ed5583f336538f0a23","64d3ef96556dbe1f0e02b5aa","64da90e0232da71eb99886dd","","","","","","","","","","","","","","","","","","reconstruct","","","","","","648.9997553719642","348.9900029925916","3200.4000000953674","","","","","","","","","","","50","3","500","250"
"","","","","","html-keyboard-response","129","771123","0.0-13.0-0.14","5ec885ed5583f336538f0a23","64d3ef96556dbe1f0e02b5aa","64da90e0232da71eb99886dd","","null","","","","","","","","","","","","","null","","","fallScene","","","","","","","","","","","","","false","32.03205200000049","500","553.4711431702997","282.51","7","51","","",""
"","","","","","html-keyboard-response","130","774515","0.0-13.0-1.14","5ec885ed5583f336538f0a23","64d3ef96556dbe1f0e02b5aa","64da90e0232da71eb99886dd","","","","","","","","","","","","","","","","","","","","","","","","502.99","305.0000000000973","3391.800000190735","","","","","","","","","","","","","",""
"","","","","","html-keyboard-response","130","774515","0.0-13.0-1.14","5ec885ed5583f336538f0a23","64d3ef96556dbe1f0e02b5aa","64da90e0232da71eb99886dd","","","","","","","","","","","","","","","","","","reconstruct","","","","","","502.99","305.0000000000973","3391.800000190735","","","","","","","","","","","51","2","375","350"
"","","","","","html-keyboard-response","131","777519","0.0-13.0-0.15","5ec885ed5583f336538f0a23","64d3ef96556dbe1f0e02b5aa","64da90e0232da71eb99886dd","","null","","","","","","","","","","","","","null","","","fallScene","","","","","","","","","","","","","true","32.03205200000049","604.4000000000001","575.4211431702997","266.76","12","52","","",""
"","","","","","html-keyboard-response","132","839769","0.0-13.0-1.15","5ec885ed5583f336538f0a23","64d3ef96556dbe1f0e02b5aa","64da90e0232da71eb99886dd","","","","","","","","","","","","","","","","","","","","","","","","334.00707085000226","311.99292871438524","62249.40000009537","","","","","","","","","","","","","",""
"","","","","","html-keyboard-response","132","839769","0.0-13.0-1.15","5ec885ed5583f336538f0a23","64d3ef96556dbe1f0e02b5aa","64da90e0232da71eb99886dd","","","","","","","","","","","","","","","","","","reconstruct","","","","","","334.00707085000226","311.99292871438524","62249.40000009537","","","","","","","","","","","52","4","500","350"
"","","","","","html-keyboard-response","133","842784","0.0-13.0-0.16","5ec885ed5583f336538f0a23","64d3ef96556dbe1f0e02b5aa","64da90e0232da71eb99886dd","","null","","","","","","","","","","","","","null","","","fallScene","","","","","","","","","","","","","true","30.039239999998824","322.3","356.42114317029973","357.87","4","53","","",""
"","","","","","html-keyboard-response","134","867832","0.0-13.0-1.16","5ec885ed5583f336538f0a23","64d3ef96556dbe1f0e02b5aa","64da90e0232da71eb99886dd","","","","","","","","","","","","","","","","","","","","","","","","685.0088109985882","270.0047293026842","25047.5","","","","","","","","","","","","","",""
"","","","","","html-keyboard-response","134","867832","0.0-13.0-1.16","5ec885ed5583f336538f0a23","64d3ef96556dbe1f0e02b5aa","64da90e0232da71eb99886dd","","","","","","","","","","","","","","","","","","reconstruct","","","","","","685.0088109985882","270.0047293026842","25047.5","","","","","","","","","","","53","3","500","250"
"","","","","","html-keyboard-response","135","870837","0.0-13.0-0.17","5ec885ed5583f336538f0a23","64d3ef96556dbe1f0e02b5aa","64da90e0232da71eb99886dd","","null","","","","","","","","","","","","","null","","","fallScene","","","","","","","","","","","","","false","30.013620000000813","500","453.67114317029973","210.33","5","54","","",""
"","","","","","html-keyboard-response","136","876615","0.0-13.0-1.17","5ec885ed5583f336538f0a23","64d3ef96556dbe1f0e02b5aa","64da90e0232da71eb99886dd","","","","","","","","","","","","","","","","","","","","","","","","508.99993394337514","278.00999978182375","5778.10000038147","","","","","","","","","","","","","",""
"","","","","","html-keyboard-response","136","876615","0.0-13.0-1.17","5ec885ed5583f336538f0a23","64d3ef96556dbe1f0e02b5aa","64da90e0232da71eb99886dd","","","","","","","","","","","","","","","","","","reconstruct","","","","","","508.99993394337514","278.00999978182375","5778.10000038147","","","","","","","","","","","54","1","375","250"
"","","","","","html-button-response","137","946125","0.0-14.0","5ec885ed5583f336538f0a23","64d3ef96556dbe1f0e02b5aa","64da90e0232da71eb99886dd","","69508","","","","","","","","","","","","","0","","","","<p><span style = ""font-size:40px;"">BREAK</span></p><p>You are almost done! Click 'Next' when you are ready for the next set.</p>","","","","","","","","","","","","","","","","","","","","",""
"","","","","","html-keyboard-response","138","949133","0.0-15.0-0.0","5ec885ed5583f336538f0a23","64d3ef96556dbe1f0e02b5aa","64da90e0232da71eb99886dd","","null","","","","","","","","","","","","","null","","","fallScene","","","","","","","","","","","","","true","32.03205199999689","604.4000000000001","650.0211431702996","404.58000000000004","11","55","","",""
"","","","","","html-keyboard-response","139","952500","0.0-15.0-1.0","5ec885ed5583f336538f0a23","64d3ef96556dbe1f0e02b5aa","64da90e0232da71eb99886dd","","","","","","","","","","","","","","","","","","","","","","","","409.99304922512465","332.0071893482759","3366.6000003814697","","","","","","","","","","","","","",""
"","","","","","html-keyboard-response","139","952500","0.0-15.0-1.0","5ec885ed5583f336538f0a23","64d3ef96556dbe1f0e02b5aa","64da90e0232da71eb99886dd","","","","","","","","","","","","","","","","","","reconstruct","","","","","","409.99304922512465","332.0071893482759","3366.6000003814697","","","","","","","","","","","55","6","625","350"
"","","","","","html-keyboard-response","140","955503","0.0-15.0-0.1","5ec885ed5583f336538f0a23","64d3ef96556dbe1f0e02b5aa","64da90e0232da71eb99886dd","","null","","","","","","","","","","","","","null","","","fallScene","","","","","","","","","","","","","false","32.03205200000049","604.4000000000001","667.6211431702998","201.78","9","56","","",""
"","","","","","html-keyboard-response","141","958753","0.0-15.0-1.1","5ec885ed5583f336538f0a23","64d3ef96556dbe1f0e02b5aa","64da90e0232da71eb99886dd","","","","","","","","","","","","","","","","","","","","","","","","574.0000006158497","314.00999999998106","3249.5","","","","","","","","","","","","","",""
"","","","","","html-keyboard-response","141","958753","0.0-15.0-1.1","5ec885ed5583f336538f0a23","64d3ef96556dbe1f0e02b5aa","64da90e0232da71eb99886dd","","","","","","","","","","","","","","","","","","reconstruct","","","","","","574.0000006158497","314.00999999998106","3249.5","","","","","","","","","","","56","4","500","350"
"","","","","","html-keyboard-response","142","961755","0.0-15.0-0.2","5ec885ed5583f336538f0a23","64d3ef96556dbe1f0e02b5aa","64da90e0232da71eb99886dd","","null","","","","","","","","","","","","","null","","","fallScene","","","","","","","","","","","","","false","32.03205200000049","604.4000000000001","575.4211431702997","266.76","12","57","","",""
"","","","","","html-keyboard-response","143","965570","0.0-15.0-1.2","5ec885ed5583f336538f0a23","64d3ef96556dbe1f0e02b5aa","64da90e0232da71eb99886dd","","","","","","","","","","","","","","","","","","","","","","","","617.9900000181289","278.99998095855074","3814.5","","","","","","","","","","","","","",""
"","","","","","html-keyboard-response","143","965570","0.0-15.0-1.2","5ec885ed5583f336538f0a23","64d3ef96556dbe1f0e02b5aa","64da90e0232da71eb99886dd","","","","","","","","","","","","","","","","","","reconstruct","","","","","","617.9900000181289","278.99998095855074","3814.5","","","","","","","","","","","57","6","625","350"
"","","","","","html-keyboard-response","144","968579","0.0-15.0-0.3","5ec885ed5583f336538f0a23","64d3ef96556dbe1f0e02b5aa","64da90e0232da71eb99886dd","","null","","","","","","","","","","","","","null","","","fallScene","","","","","","","","","","","","","true","30.010830000001008","500","510.8711431702997","369.03","8","58","","",""
"","","","","","html-keyboard-response","145","974749","0.0-15.0-1.3","5ec885ed5583f336538f0a23","64d3ef96556dbe1f0e02b5aa","64da90e0232da71eb99886dd","","","","","","","","","","","","","","","","","","","","","","","","661.9944723619051","300.99166662030797","6170.099999904633","","","","","","","","","","","","","",""
"","","","","","html-keyboard-response","145","974749","0.0-15.0-1.3","5ec885ed5583f336538f0a23","64d3ef96556dbe1f0e02b5aa","64da90e0232da71eb99886dd","","","","","","","","","","","","","","","","","","reconstruct","","","","","","661.9944723619051","300.99166662030797","6170.099999904633","","","","","","","","","","","58","3","500","250"
"","","","","","html-keyboard-response","146","977753","0.0-15.0-0.4","5ec885ed5583f336538f0a23","64d3ef96556dbe1f0e02b5aa","64da90e0232da71eb99886dd","","null","","","","","","","","","","","","","null","","","fallScene","","","","","","","","","","","","","false","32.03205200000049","604.4000000000001","575.4211431702997","266.76","12","59","","",""
"","","","","","html-keyboard-response","147","981032","0.0-15.0-1.4","5ec885ed5583f336538f0a23","64d3ef96556dbe1f0e02b5aa","64da90e0232da71eb99886dd","","","","","","","","","","","","","","","","","","","","","","","","642.9903171564903","323.0024985078678","3279.3999996185303","","","","","","","","","","","","","",""
"","","","","","html-keyboard-response","147","981032","0.0-15.0-1.4","5ec885ed5583f336538f0a23","64d3ef96556dbe1f0e02b5aa","64da90e0232da71eb99886dd","","","","","","","","","","","","","","","","","","reconstruct","","","","","","642.9903171564903","323.0024985078678","3279.3999996185303","","","","","","","","","","","59","1","375","250"
"","","","","","html-keyboard-response","148","984035","0.0-15.0-0.5","5ec885ed5583f336538f0a23","64d3ef96556dbe1f0e02b5aa","64da90e0232da71eb99886dd","","null","","","","","","","","","","","","","null","","","fallScene","","","","","","","","","","","","","true","32.03205200000049","322.3","379.3711431702997","245.25","1","60","","",""
"","","","","","html-keyboard-response","149","987999","0.0-15.0-1.5","5ec885ed5583f336538f0a23","64d3ef96556dbe1f0e02b5aa","64da90e0232da71eb99886dd","","","","","","","","","","","","","","","","","","","","","","","","659.0055277564516","278.00833330118337","3963.8999996185303","","","","","","","","","","","","","",""
"","","","","","html-keyboard-response","149","987999","0.0-15.0-1.5","5ec885ed5583f336538f0a23","64d3ef96556dbe1f0e02b5aa","64da90e0232da71eb99886dd","","","","","","","","","","","","","","","","","","reconstruct","","","","","","659.0055277564516","278.00833330118337","3963.8999996185303","","","","","","","","","","","60","1","375","250"
"","","","","","html-keyboard-response","150","991001","0.0-15.0-0.6","5ec885ed5583f336538f0a23","64d3ef96556dbe1f0e02b5aa","64da90e0232da71eb99886dd","","null","","","","","","","","","","","","","null","","","fallScene","","","","","","","","","","","","","false","32.03205200000049","500","510.8711431702997","369.03","8","61","","",""
"","","","","","html-keyboard-response","151","994132","0.0-15.0-1.6","5ec885ed5583f336538f0a23","64d3ef96556dbe1f0e02b5aa","64da90e0232da71eb99886dd","","","","","","","","","","","","","","","","","","","","","","","","459.9917551704672","286.99434113209423","3131.0999999046326","","","","","","","","","","","","","",""
"","","","","","html-keyboard-response","151","994132","0.0-15.0-1.6","5ec885ed5583f336538f0a23","64d3ef96556dbe1f0e02b5aa","64da90e0232da71eb99886dd","","","","","","","","","","","","","","","","","","reconstruct","","","","","","459.9917551704672","286.99434113209423","3131.0999999046326","","","","","","","","","","","61","1","375","250"
"","","","","","html-keyboard-response","152","997136","0.0-15.0-0.7","5ec885ed5583f336538f0a23","64d3ef96556dbe1f0e02b5aa","64da90e0232da71eb99886dd","","null","","","","","","","","","","","","","null","","","fallScene","","","","","","","","","","","","","false","32.03205199999689","500","553.4711431702997","282.51","7","62","","",""
"","","","","","html-keyboard-response","153","1000166","0.0-15.0-1.7","5ec885ed5583f336538f0a23","64d3ef96556dbe1f0e02b5aa","64da90e0232da71eb99886dd","","","","","","","","","","","","","","","","","","","","","","","","454.9928832218051","307.9929749399914","3029.300000190735","","","","","","","","","","","","","",""
"","","","","","html-keyboard-response","153","1000166","0.0-15.0-1.7","5ec885ed5583f336538f0a23","64d3ef96556dbe1f0e02b5aa","64da90e0232da71eb99886dd","","","","","","","","","","","","","","","","","","reconstruct","","","","","","454.9928832218051","307.9929749399914","3029.300000190735","","","","","","","","","","","62","5","625","250"
"","","","","","html-keyboard-response","154","1003167","0.0-15.0-0.8","5ec885ed5583f336538f0a23","64d3ef96556dbe1f0e02b5aa","64da90e0232da71eb99886dd","","null","","","","","","","","","","","","","null","","","fallScene","","","","","","","","","","","","","true","32.03205200000049","604.4000000000001","575.4211431702997","266.76","12","63","","",""
"","","","","","html-keyboard-response","155","1006999","0.0-15.0-1.8","5ec885ed5583f336538f0a23","64d3ef96556dbe1f0e02b5aa","64da90e0232da71eb99886dd","","","","","","","","","","","","","","","","","","","","","","","","393.00550297406255","290.0089317835687","3831.9000000953674","","","","","","","","","","","","","",""
"","","","","","html-keyboard-response","155","1006999","0.0-15.0-1.8","5ec885ed5583f336538f0a23","64d3ef96556dbe1f0e02b5aa","64da90e0232da71eb99886dd","","","","","","","","","","","","","","","","","","reconstruct","","","","","","393.00550297406255","290.0089317835687","3831.9000000953674","","","","","","","","","","","63","2","375","350"
"","","","","","html-keyboard-response","156","1010003","0.0-15.0-0.9","5ec885ed5583f336538f0a23","64d3ef96556dbe1f0e02b5aa","64da90e0232da71eb99886dd","","null","","","","","","","","","","","","","null","","","fallScene","","","","","","","","","","","","","false","32.03205199999689","322.3","379.3711431702997","245.25","1","64","","",""
"","","","","","html-keyboard-response","157","1013066","0.0-15.0-1.9","5ec885ed5583f336538f0a23","64d3ef96556dbe1f0e02b5aa","64da90e0232da71eb99886dd","","","","","","","","","","","","","","","","","","","","","","","","357.00999999980957","291.0000019514622","3061.8999996185303","","","","","","","","","","","","","",""
"","","","","","html-keyboard-response","157","1013066","0.0-15.0-1.9","5ec885ed5583f336538f0a23","64d3ef96556dbe1f0e02b5aa","64da90e0232da71eb99886dd","","","","","","","","","","","","","","","","","","reconstruct","","","","","","357.00999999980957","291.0000019514622","3061.8999996185303","","","","","","","","","","","64","6","625","350"
"","","","","","html-keyboard-response","158","1016068","0.0-15.0-0.10","5ec885ed5583f336538f0a23","64d3ef96556dbe1f0e02b5aa","64da90e0232da71eb99886dd","","null","","","","","","","","","","","","","null","","","fallScene","","","","","","","","","","","","","true","32.03205200000049","604.4000000000001","650.0211431702996","404.58000000000004","11","65","","",""
"","","","","","html-keyboard-response","159","1021839","0.0-15.0-1.10","5ec885ed5583f336538f0a23","64d3ef96556dbe1f0e02b5aa","64da90e0232da71eb99886dd","","","","","","","","","","","","","","","","","","","","","","","","359.9900002470313","352.0000702891482","5770.900000095367","","","","","","","","","","","","","",""
"","","","","","html-keyboard-response","159","1021839","0.0-15.0-1.10","5ec885ed5583f336538f0a23","64d3ef96556dbe1f0e02b5aa","64da90e0232da71eb99886dd","","","","","","","","","","","","","","","","","","reconstruct","","","","","","359.9900002470313","352.0000702891482","5770.900000095367","","","","","","","","","","","65","2","375","350"
"","","","","","html-keyboard-response","160","1024845","0.0-15.0-0.11","5ec885ed5583f336538f0a23","64d3ef96556dbe1f0e02b5aa","64da90e0232da71eb99886dd","","null","","","","","","","","","","","","","null","","","fallScene","","","","","","","","","","","","","false","32.03205200000049","322.3","296.07114317029976","371.46","3","66","","",""
"","","","","","html-keyboard-response","161","1034166","0.0-15.0-1.11","5ec885ed5583f336538f0a23","64d3ef96556dbe1f0e02b5aa","64da90e0232da71eb99886dd","","","","","","","","","","","","","","","","","","","","","","","","331.9900002425133","365.0000696434275","9321","","","","","","","","","","","","","",""
"","","","","","html-keyboard-response","161","1034166","0.0-15.0-1.11","5ec885ed5583f336538f0a23","64d3ef96556dbe1f0e02b5aa","64da90e0232da71eb99886dd","","","","","","","","","","","","","","","","","","reconstruct","","","","","","331.9900002425133","365.0000696434275","9321","","","","","","","","","","","66","4","500","350"
"","","","","","html-keyboard-response","162","1037170","0.0-15.0-0.12","5ec885ed5583f336538f0a23","64d3ef96556dbe1f0e02b5aa","64da90e0232da71eb99886dd","","null","","","","","","","","","","","","","null","","","fallScene","","","","","","","","","","","","","false","32.03205200000049","322.3","308.07114317029976","253.89","2","67","","",""
"","","","","","html-keyboard-response","163","1041383","0.0-15.0-1.12","5ec885ed5583f336538f0a23","64d3ef96556dbe1f0e02b5aa","64da90e0232da71eb99886dd","","","","","","","","","","","","","","","","","","","","","","","","448.0070247209408","321.007117112877","4211.799999713898","","","","","","","","","","","","","",""
"","","","","","html-keyboard-response","163","1041383","0.0-15.0-1.12","5ec885ed5583f336538f0a23","64d3ef96556dbe1f0e02b5aa","64da90e0232da71eb99886dd","","","","","","","","","","","","","","","","","","reconstruct","","","","","","448.0070247209408","321.007117112877","4211.799999713898","","","","","","","","","","","67","1","375","250"
"","","","","","html-keyboard-response","164","1044386","0.0-15.0-0.13","5ec885ed5583f336538f0a23","64d3ef96556dbe1f0e02b5aa","64da90e0232da71eb99886dd","","null","","","","","","","","","","","","","null","","","fallScene","","","","","","","","","","","","","false","32.03205200000049","322.3","296.07114317029976","371.46","3","68","","",""
"","","","","","html-keyboard-response","165","1047616","0.0-15.0-1.13","5ec885ed5583f336538f0a23","64d3ef96556dbe1f0e02b5aa","64da90e0232da71eb99886dd","","","","","","","","","","","","","","","","","","","","","","","","309.99000185325974","346.0001925143127","3229.4000000953674","","","","","","","","","","","","","",""
"","","","","","html-keyboard-response","165","1047616","0.0-15.0-1.13","5ec885ed5583f336538f0a23","64d3ef96556dbe1f0e02b5aa","64da90e0232da71eb99886dd","","","","","","","","","","","","","","","","","","reconstruct","","","","","","309.99000185325974","346.0001925143127","3229.4000000953674","","","","","","","","","","","68","1","375","250"
"","","","","","html-keyboard-response","166","1050620","0.0-15.0-0.14","5ec885ed5583f336538f0a23","64d3ef96556dbe1f0e02b5aa","64da90e0232da71eb99886dd","","null","","","","","","","","","","","","","null","","","fallScene","","","","","","","","","","","","","false","32.0320520000041","500","479.92114317029973","330.87","6","69","","",""
"","","","","","html-keyboard-response","167","1053637","0.0-15.0-1.14","5ec885ed5583f336538f0a23","64d3ef96556dbe1f0e02b5aa","64da90e0232da71eb99886dd","","","","","","","","","","","","","","","","","","","","","","","","522.9900000451195","311.00003003976104","3017.300000190735","","","","","","","","","","","","","",""
"","","","","","html-keyboard-response","167","1053637","0.0-15.0-1.14","5ec885ed5583f336538f0a23","64d3ef96556dbe1f0e02b5aa","64da90e0232da71eb99886dd","","","","","","","","","","","","","","","","","","reconstruct","","","","","","522.9900000451195","311.00003003976104","3017.300000190735","","","","","","","","","","","69","2","375","350"
"","","","","","html-keyboard-response","168","1056645","0.0-15.0-0.15","5ec885ed5583f336538f0a23","64d3ef96556dbe1f0e02b5aa","64da90e0232da71eb99886dd","","null","","","","","","","","","","","","","null","","","fallScene","","","","","","","","","","","","","false","32.03205199999689","500","453.67114317029973","210.33","5","70","","",""
"","","","","","html-keyboard-response","169","1060716","0.0-15.0-1.15","5ec885ed5583f336538f0a23","64d3ef96556dbe1f0e02b5aa","64da90e0232da71eb99886dd","","","","","","","","","","","","","","","","","","","","","","","","573.9900004999749","330.0000999962446","4071","","","","","","","","","","","","","",""
"","","","","","html-keyboard-response","169","1060716","0.0-15.0-1.15","5ec885ed5583f336538f0a23","64d3ef96556dbe1f0e02b5aa","64da90e0232da71eb99886dd","","","","","","","","","","","","","","","","","","reconstruct","","","","","","573.9900004999749","330.0000999962446","4071","","","","","","","","","","","70","4","500","350"
"","","","","","html-keyboard-response","170","1063720","0.0-15.0-0.16","5ec885ed5583f336538f0a23","64d3ef96556dbe1f0e02b5aa","64da90e0232da71eb99886dd","","null","","","","","","","","","","","","","null","","","fallScene","","","","","","","","","","","","","false","32.03205199999689","500","479.92114317029973","330.87","6","71","","",""
"","","","","","html-keyboard-response","171","1067120","0.0-15.0-1.16","5ec885ed5583f336538f0a23","64d3ef96556dbe1f0e02b5aa","64da90e0232da71eb99886dd","","","","","","","","","","","","","","","","","","","","","","","","511.0000198249158","310.9900000196514","3399.7999997138977","","","","","","","","","","","","","",""
"","","","","","html-keyboard-response","171","1067120","0.0-15.0-1.16","5ec885ed5583f336538f0a23","64d3ef96556dbe1f0e02b5aa","64da90e0232da71eb99886dd","","","","","","","","","","","","","","","","","","reconstruct","","","","","","511.0000198249158","310.9900000196514","3399.7999997138977","","","","","","","","","","","71","3","500","250"
"","","","","","html-keyboard-response","172","1070124","0.0-15.0-0.17","5ec885ed5583f336538f0a23","64d3ef96556dbe1f0e02b5aa","64da90e0232da71eb99886dd","","null","","","","","","","","","","","","","null","","","fallScene","","","","","","","","","","","","","true","32.03205199999689","322.3","308.07114317029976","253.89","2","72","","",""
"","","","","","html-keyboard-response","173","1073150","0.0-15.0-1.17","5ec885ed5583f336538f0a23","64d3ef96556dbe1f0e02b5aa","64da90e0232da71eb99886dd","","","","","","","","","","","","","","","","","","","","","","","","476.9999707496929","373.9900000427791","3026.2999997138977","","","","","","","","","","","","","",""
"","","","","","html-keyboard-response","173","1073150","0.0-15.0-1.17","5ec885ed5583f336538f0a23","64d3ef96556dbe1f0e02b5aa","64da90e0232da71eb99886dd","","","","","","","","","","","","","","","","","","reconstruct","","","","","","476.9999707496929","373.9900000427791","3026.2999997138977","","","","","","","","","","","72","3","500","250"
"","","","","","survey-text","174","1156909","0.0-16.0","5ec885ed5583f336538f0a23","64d3ef96556dbe1f0e02b5aa","64da90e0232da71eb99886dd","","83757","","","","","","","","","","","","","{""Summary"":""place the triangle where we think the ball hit it""}","","","","","","","","","","","","","","","","","","","","","","","","",""
"","","","","","survey-text","175","1178938","0.0-17.0","5ec885ed5583f336538f0a23","64d3ef96556dbe1f0e02b5aa","64da90e0232da71eb99886dd","","22028","","","","","","","","","","","","","{""Comments"":""""}","","","","","","","","","","","","","","","","","","","","","","","","",""
