"success","timeout","failed_images","failed_audio","failed_video","trial_type","trial_index","time_elapsed","internal_node_id","subject_id","study_id","session_id","view_history","rt","width","height","webaudio","browser","browser_version","mobile","os","fullscreen","vsync_rate","webcam","microphone","url","response","triangle_prac_final_x","triangle_prac_final_y","trial_name","stimulus","ball_X_prac_occ","ball_Y_prac_occ","obstacle_X_prac_occ","obstacle_Y_prac_occ","triangle_final_x","triangle_final_y","response_time","obstacle_X_prac_occ_init","obstacle_Y_prac_occ_init","question_order","flipped","runnerFPS","ball_X","obstacle_groundTruth_x","obstacle_groundTruth_y","stimulus_idx","currentTrial","obstacle_idx","obstacle_initial_x","obstacle_initial_y"
"true","false","[]","[]","[]","preload","0","108","0.0-0.0","5ee3c01c7247c006e9a3f4fd","64d3ef96556dbe1f0e02b5aa","64db813196ed0059498bcdd9","","","","","","","","","","","","","","","","","","","","","","","","","","","","","","","","","","","","","","",""
"","","","","","instructions","1","1694","0.0-1.0","5ee3c01c7247c006e9a3f4fd","64d3ef96556dbe1f0e02b5aa","64db813196ed0059498bcdd9","[{""page_index"":0,""viewing_time"":1586}]","1586","","","","","","","","","","","","","","","","","","","","","","","","","","","","","","","","","","","","",""
"","","","","","browser-check","2","2688","0.0-2.0","5ee3c01c7247c006e9a3f4fd","64d3ef96556dbe1f0e02b5aa","64db813196ed0059498bcdd9","","","1902","904","true","chrome","115.0.0","false","Windows 10","true","60.6","false","false","","","","","","","","","","","","","","","","","","","","","","","","","",""
"","","","","","external-html","3","5638","0.0-3.0","5ee3c01c7247c006e9a3f4fd","64d3ef96556dbe1f0e02b5aa","64db813196ed0059498bcdd9","","2894","","","","","","","","","","","","consent.html","","","","","","","","","","","","","","","","","","","","","","","","",""
"true","","","","","fullscreen","4","8435","0.0-4.0","5ee3c01c7247c006e9a3f4fd","64d3ef96556dbe1f0e02b5aa","64db813196ed0059498bcdd9","","2295","","","","","","","","","","","","","","","","","","","","","","","","","","","","","","","","","","","","",""
"","","","","","survey-text","5","23335","0.0-5.0","5ee3c01c7247c006e9a3f4fd","64d3ef96556dbe1f0e02b5aa","64db813196ed0059498bcdd9","","14895","","","","","","","","","","","","","{""prolificID"":""5ee3c01c7247c006e9a3f4fd""}","","","","","","","","","","","","","","","","","","","","","","","",""
"","","","","","browser-check","6","24344","0.0-6.0","5ee3c01c7247c006e9a3f4fd","64d3ef96556dbe1f0e02b5aa","64db813196ed0059498bcdd9","","","1902","904","true","chrome","115.0.0","false","Windows 10","true","59.86","false","false","","","","","","","","","","","","","","","","","","","","","","","","","",""
"","","","","","instructions","7","84310","0.0-7.0-0.0-0.0","5ee3c01c7247c006e9a3f4fd","64d3ef96556dbe1f0e02b5aa","64db813196ed0059498bcdd9","[{""page_index"":0,""viewing_time"":18182},{""page_index"":1,""viewing_time"":16880},{""page_index"":2,""viewing_time"":12224},{""page_index"":3,""viewing_time"":12680}]","59966","","","","","","","","","","","","","","","","","","","","","","","","","","","","","","","","","","","","",""
"","","","","","html-keyboard-response","8","91462","0.0-7.0-0.0-1.0","5ee3c01c7247c006e9a3f4fd","64d3ef96556dbe1f0e02b5aa","64db813196ed0059498bcdd9","","","","","","","","","","","","","","","","517.0071296704916","341.0070119753765","","","","","","","","","","","","","","","","","","","","","",""
"","","","","","html-keyboard-response","8","91462","0.0-7.0-0.0-1.0","5ee3c01c7247c006e9a3f4fd","64d3ef96556dbe1f0e02b5aa","64db813196ed0059498bcdd9","","","","","","","","","","","","","","","","","","practiceTrial_move","","","","","","","","","","","","","","","","","","","","",""
"","","","","","html-button-response","9","95702","0.0-7.0-0.0-2.0","5ee3c01c7247c006e9a3f4fd","64d3ef96556dbe1f0e02b5aa","64db813196ed0059498bcdd9","","4238","","","","","","","","","","","","","0","","","","<p>To help you get more comfortable with the task, let's begin with a practice trial first!</p><p>As described previously, you will first see a video of a ball falling, some of it behind a gray screen.</p><p>After the video, you will drag a triangle to the spot you think the ball hit the triangle behind the screen.</p><p>Click 'Next' to start your practice trial.</p>","","","","","","","","","","","","","","","","","","","",""
"","","","","","html-keyboard-response","10","98720","0.0-7.0-0.0-3.0","5ee3c01c7247c006e9a3f4fd","64d3ef96556dbe1f0e02b5aa","64db813196ed0059498bcdd9","","null","","","","","","","","","","","","","null","","","fallScene_practiceTrial_withOccluder","","400","50","420","415","","","","","","","","","","","","","","","",""
"","","","","","html-keyboard-response","11","103454","0.0-7.0-0.0-4.0","5ee3c01c7247c006e9a3f4fd","64d3ef96556dbe1f0e02b5aa","64db813196ed0059498bcdd9","","","","","","","","","","","","","","","","","","","","","","","","368.009999999994","342.9999996541479","4732.099999964237","","","","","","","","","","","","",""
"","","","","","html-keyboard-response","11","103454","0.0-7.0-0.0-4.0","5ee3c01c7247c006e9a3f4fd","64d3ef96556dbe1f0e02b5aa","64db813196ed0059498bcdd9","","","","","","","","","","","","","","","","","","reconstruct_practiceTrial_withOccluder","","","","","","368.009999999994","342.9999996541479","4732.099999964237","500","300","","","","","","","","","","",""
"","","","","","html-button-response","12","105830","0.0-7.0-0.0-5.0","5ee3c01c7247c006e9a3f4fd","64d3ef96556dbe1f0e02b5aa","64db813196ed0059498bcdd9","","2374","","","","","","","","","","","","","1","","","","<p>Ok! We're almost ready to get started.</p><p>We just have a <b>brief quiz</b>, to make sure you understood the task.</p><p>If you need to review the instructions, click 'Previous'.</p><p>It's important to understand the task to do the study, so you have to pass the quiz to move to the study.</p>","","","","","","","","","","","","","","","","","","","",""
"","","","","","survey-multi-choice","13","114288","0.0-7.0-1.0-0.0","5ee3c01c7247c006e9a3f4fd","64d3ef96556dbe1f0e02b5aa","64db813196ed0059498bcdd9","","8456","","","","","","","","","","","","","{""generalProcedure"":""Watch a video of a ball falling, some of it behind a gray screen. After each video, drag a triangle to where I think the ball hit the triangle behind the screen.""}","","","","","","","","","","","","","","[0]","","","","","","","","","",""
"","","","","","survey-multi-choice","14","120959","0.0-7.0-1.0-1.0","5ee3c01c7247c006e9a3f4fd","64d3ef96556dbe1f0e02b5aa","64db813196ed0059498bcdd9","","6669","","","","","","","","","","","","","{""checkBallHitObstacle"":""Yes.""}","","","","","","","","","","","","","","[0]","","","","","","","","","",""
"","","","","","survey-multi-choice","15","123918","0.0-7.0-1.0-2.0","5ee3c01c7247c006e9a3f4fd","64d3ef96556dbe1f0e02b5aa","64db813196ed0059498bcdd9","","2957","","","","","","","","","","","","","{""checkTriangleVisibility"":""No, the triangle is hidden behind the gray screen.""}","","","","","","","","","","","","","","[0]","","","","","","","","","",""
"","","","","","instructions","16","131734","0.0-8.0","5ee3c01c7247c006e9a3f4fd","64d3ef96556dbe1f0e02b5aa","64db813196ed0059498bcdd9","[{""page_index"":0,""viewing_time"":7813}]","7814","","","","","","","","","","","","","","","","","","","","","","","","","","","","","","","","","","","","",""
"","","","","","html-keyboard-response","17","134740","0.0-9.0-0.0","5ee3c01c7247c006e9a3f4fd","64d3ef96556dbe1f0e02b5aa","64db813196ed0059498bcdd9","","null","","","","","","","","","","","","","null","","","fallScene","","","","","","","","","","","","true","60.004860000000335","322.3","308.07114317029976","253.89","2","1","","",""
"","","","","","html-keyboard-response","18","140686","0.0-9.0-1.0","5ee3c01c7247c006e9a3f4fd","64d3ef96556dbe1f0e02b5aa","64db813196ed0059498bcdd9","","","","","","","","","","","","","","","","","","","","","","","","672.0064113511996","364.98265020262716","5944.300000011921","","","","","","","","","","","","",""
"","","","","","html-keyboard-response","18","140686","0.0-9.0-1.0","5ee3c01c7247c006e9a3f4fd","64d3ef96556dbe1f0e02b5aa","64db813196ed0059498bcdd9","","","","","","","","","","","","","","","","","","reconstruct","","","","","","672.0064113511996","364.98265020262716","5944.300000011921","","","","","","","","","","1","2","375","350"
"","","","","","html-keyboard-response","19","143702","0.0-9.0-0.1","5ee3c01c7247c006e9a3f4fd","64d3ef96556dbe1f0e02b5aa","64db813196ed0059498bcdd9","","null","","","","","","","","","","","","","null","","","fallScene","","","","","","","","","","","","false","62.00119300000003","500","553.4711431702997","282.51","7","2","","",""
"","","","","","html-keyboard-response","20","146870","0.0-9.0-1.1","5ee3c01c7247c006e9a3f4fd","64d3ef96556dbe1f0e02b5aa","64db813196ed0059498bcdd9","","","","","","","","","","","","","","","","","","","","","","","","490.0000709661993","267.0099997481868","3167.399999976158","","","","","","","","","","","","",""
"","","","","","html-keyboard-response","20","146870","0.0-9.0-1.1","5ee3c01c7247c006e9a3f4fd","64d3ef96556dbe1f0e02b5aa","64db813196ed0059498bcdd9","","","","","","","","","","","","","","","","","","reconstruct","","","","","","490.0000709661993","267.0099997481868","3167.399999976158","","","","","","","","","","2","1","375","250"
"","","","","","html-keyboard-response","21","149872","0.0-9.0-0.2","5ee3c01c7247c006e9a3f4fd","64d3ef96556dbe1f0e02b5aa","64db813196ed0059498bcdd9","","null","","","","","","","","","","","","","null","","","fallScene","","","","","","","","","","","","true","62.01144100000034","500","479.92114317029973","330.87","6","3","","",""
"","","","","","html-keyboard-response","22","154094","0.0-9.0-1.2","5ee3c01c7247c006e9a3f4fd","64d3ef96556dbe1f0e02b5aa","64db813196ed0059498bcdd9","","","","","","","","","","","","","","","","","","","","","","","","468.00394402405135","279.00918937834035","4221.600000023842","","","","","","","","","","","","",""
"","","","","","html-keyboard-response","22","154094","0.0-9.0-1.2","5ee3c01c7247c006e9a3f4fd","64d3ef96556dbe1f0e02b5aa","64db813196ed0059498bcdd9","","","","","","","","","","","","","","","","","","reconstruct","","","","","","468.00394402405135","279.00918937834035","4221.600000023842","","","","","","","","","","3","2","375","350"
"","","","","","html-keyboard-response","23","157106","0.0-9.0-0.3","5ee3c01c7247c006e9a3f4fd","64d3ef96556dbe1f0e02b5aa","64db813196ed0059498bcdd9","","null","","","","","","","","","","","","","null","","","fallScene","","","","","","","","","","","","false","62.017236000000416","322.3","296.07114317029976","371.46","3","4","","",""
"","","","","","html-keyboard-response","24","162534","0.0-9.0-1.3","5ee3c01c7247c006e9a3f4fd","64d3ef96556dbe1f0e02b5aa","64db813196ed0059498bcdd9","","","","","","","","","","","","","","","","","","","","","","","","293.99301690872767","329.9928420368622","5427.399999976158","","","","","","","","","","","","",""
"","","","","","html-keyboard-response","24","162534","0.0-9.0-1.3","5ee3c01c7247c006e9a3f4fd","64d3ef96556dbe1f0e02b5aa","64db813196ed0059498bcdd9","","","","","","","","","","","","","","","","","","reconstruct","","","","","","293.99301690872767","329.9928420368622","5427.399999976158","","","","","","","","","","4","3","500","250"
"","","","","","html-keyboard-response","25","165537","0.0-9.0-0.4","5ee3c01c7247c006e9a3f4fd","64d3ef96556dbe1f0e02b5aa","64db813196ed0059498bcdd9","","null","","","","","","","","","","","","","null","","","fallScene","","","","","","","","","","","","true","61.9936900000005","604.4000000000001","667.6211431702998","201.78","9","5","","",""
"","","","","","html-keyboard-response","26","169317","0.0-9.0-1.4","5ee3c01c7247c006e9a3f4fd","64d3ef96556dbe1f0e02b5aa","64db813196ed0059498bcdd9","","","","","","","","","","","","","","","","","","","","","","","","284.01","343","3780.7999999523163","","","","","","","","","","","","",""
"","","","","","html-keyboard-response","26","169317","0.0-9.0-1.4","5ee3c01c7247c006e9a3f4fd","64d3ef96556dbe1f0e02b5aa","64db813196ed0059498bcdd9","","","","","","","","","","","","","","","","","","reconstruct","","","","","","284.01","343","3780.7999999523163","","","","","","","","","","5","2","375","350"
"","","","","","html-keyboard-response","27","172320","0.0-9.0-0.5","5ee3c01c7247c006e9a3f4fd","64d3ef96556dbe1f0e02b5aa","64db813196ed0059498bcdd9","","null","","","","","","","","","","","","","null","","","fallScene","","","","","","","","","","","","true","61.999606999999266","500","479.92114317029973","330.87","6","6","","",""
"","","","","","html-keyboard-response","28","176733","0.0-9.0-1.5","5ee3c01c7247c006e9a3f4fd","64d3ef96556dbe1f0e02b5aa","64db813196ed0059498bcdd9","","","","","","","","","","","","","","","","","","","","","","","","534.9999108677721","270.0099996027644","4413.100000023842","","","","","","","","","","","","",""
"","","","","","html-keyboard-response","28","176733","0.0-9.0-1.5","5ee3c01c7247c006e9a3f4fd","64d3ef96556dbe1f0e02b5aa","64db813196ed0059498bcdd9","","","","","","","","","","","","","","","","","","reconstruct","","","","","","534.9999108677721","270.0099996027644","4413.100000023842","","","","","","","","","","6","5","625","250"
"","","","","","html-keyboard-response","29","179738","0.0-9.0-0.6","5ee3c01c7247c006e9a3f4fd","64d3ef96556dbe1f0e02b5aa","64db813196ed0059498bcdd9","","null","","","","","","","","","","","","","null","","","fallScene","","","","","","","","","","","","false","60.00125999999872","500","453.67114317029973","210.33","5","7","","",""
"","","","","","html-keyboard-response","30","184133","0.0-9.0-1.6","5ee3c01c7247c006e9a3f4fd","64d3ef96556dbe1f0e02b5aa","64db813196ed0059498bcdd9","","","","","","","","","","","","","","","","","","","","","","","","535.0099999984527","311.9999944370142","4394.599999964237","","","","","","","","","","","","",""
"","","","","","html-keyboard-response","30","184133","0.0-9.0-1.6","5ee3c01c7247c006e9a3f4fd","64d3ef96556dbe1f0e02b5aa","64db813196ed0059498bcdd9","","","","","","","","","","","","","","","","","","reconstruct","","","","","","535.0099999984527","311.9999944370142","4394.599999964237","","","","","","","","","","7","5","625","250"
"","","","","","html-keyboard-response","31","187137","0.0-9.0-0.7","5ee3c01c7247c006e9a3f4fd","64d3ef96556dbe1f0e02b5aa","64db813196ed0059498bcdd9","","null","","","","","","","","","","","","","null","","","fallScene","","","","","","","","","","","","false","60.00030000000028","322.3","379.3711431702997","245.25","1","8","","",""
"","","","","","html-keyboard-response","32","194269","0.0-9.0-1.7","5ee3c01c7247c006e9a3f4fd","64d3ef96556dbe1f0e02b5aa","64db813196ed0059498bcdd9","","","","","","","","","","","","","","","","","","","","","","","","296.00000000000875","359.99","7131.599999964237","","","","","","","","","","","","",""
"","","","","","html-keyboard-response","32","194269","0.0-9.0-1.7","5ee3c01c7247c006e9a3f4fd","64d3ef96556dbe1f0e02b5aa","64db813196ed0059498bcdd9","","","","","","","","","","","","","","","","","","reconstruct","","","","","","296.00000000000875","359.99","7131.599999964237","","","","","","","","","","8","2","375","350"
"","","","","","html-keyboard-response","33","197272","0.0-9.0-0.8","5ee3c01c7247c006e9a3f4fd","64d3ef96556dbe1f0e02b5aa","64db813196ed0059498bcdd9","","null","","","","","","","","","","","","","null","","","fallScene","","","","","","","","","","","","false","60.00030000000028","604.4000000000001","650.0211431702996","404.58000000000004","11","9","","",""
"","","","","","html-keyboard-response","34","199949","0.0-9.0-1.8","5ee3c01c7247c006e9a3f4fd","64d3ef96556dbe1f0e02b5aa","64db813196ed0059498bcdd9","","","","","","","","","","","","","","","","","","","","","","","","647.9900131059838","271.99948819152985","2677.199999988079","","","","","","","","","","","","",""
"","","","","","html-keyboard-response","34","199949","0.0-9.0-1.8","5ee3c01c7247c006e9a3f4fd","64d3ef96556dbe1f0e02b5aa","64db813196ed0059498bcdd9","","","","","","","","","","","","","","","","","","reconstruct","","","","","","647.9900131059838","271.99948819152985","2677.199999988079","","","","","","","","","","9","2","375","350"
"","","","","","html-keyboard-response","35","202953","0.0-9.0-0.9","5ee3c01c7247c006e9a3f4fd","64d3ef96556dbe1f0e02b5aa","64db813196ed0059498bcdd9","","null","","","","","","","","","","","","","null","","","fallScene","","","","","","","","","","","","false","62.00631700000019","500","479.92114317029973","330.87","6","10","","",""
"","","","","","html-keyboard-response","36","205397","0.0-9.0-1.9","5ee3c01c7247c006e9a3f4fd","64d3ef96556dbe1f0e02b5aa","64db813196ed0059498bcdd9","","","","","","","","","","","","","","","","","","","","","","","","491.99256885610106","268.9933083559305","2444","","","","","","","","","","","","",""
"","","","","","html-keyboard-response","36","205397","0.0-9.0-1.9","5ee3c01c7247c006e9a3f4fd","64d3ef96556dbe1f0e02b5aa","64db813196ed0059498bcdd9","","","","","","","","","","","","","","","","","","reconstruct","","","","","","491.99256885610106","268.9933083559305","2444","","","","","","","","","","10","1","375","250"
"","","","","","html-keyboard-response","37","208403","0.0-9.0-0.10","5ee3c01c7247c006e9a3f4fd","64d3ef96556dbe1f0e02b5aa","64db813196ed0059498bcdd9","","null","","","","","","","","","","","","","null","","","fallScene","","","","","","","","","","","","false","62.00064400000059","322.3","379.3711431702997","245.25","1","11","","",""
"","","","","","html-keyboard-response","38","212181","0.0-9.0-1.10","5ee3c01c7247c006e9a3f4fd","64d3ef96556dbe1f0e02b5aa","64db813196ed0059498bcdd9","","","","","","","","","","","","","","","","","","","","","","","","301.01","245.0000000131992","3777.300000011921","","","","","","","","","","","","",""
"","","","","","html-keyboard-response","38","212181","0.0-9.0-1.10","5ee3c01c7247c006e9a3f4fd","64d3ef96556dbe1f0e02b5aa","64db813196ed0059498bcdd9","","","","","","","","","","","","","","","","","","reconstruct","","","","","","301.01","245.0000000131992","3777.300000011921","","","","","","","","","","11","3","500","250"
"","","","","","html-keyboard-response","39","215186","0.0-9.0-0.11","5ee3c01c7247c006e9a3f4fd","64d3ef96556dbe1f0e02b5aa","64db813196ed0059498bcdd9","","null","","","","","","","","","","","","","null","","","fallScene","","","","","","","","","","","","true","60.00840000000084","500","553.4711431702997","282.51","7","12","","",""
"","","","","","html-keyboard-response","40","219149","0.0-9.0-1.11","5ee3c01c7247c006e9a3f4fd","64d3ef96556dbe1f0e02b5aa","64db813196ed0059498bcdd9","","","","","","","","","","","","","","","","","","","","","","","","515.0013755319887","289.00990494380335","3962.600000023842","","","","","","","","","","","","",""
"","","","","","html-keyboard-response","40","219149","0.0-9.0-1.11","5ee3c01c7247c006e9a3f4fd","64d3ef96556dbe1f0e02b5aa","64db813196ed0059498bcdd9","","","","","","","","","","","","","","","","","","reconstruct","","","","","","515.0013755319887","289.00990494380335","3962.600000023842","","","","","","","","","","12","5","625","250"
"","","","","","html-keyboard-response","41","222152","0.0-9.0-0.12","5ee3c01c7247c006e9a3f4fd","64d3ef96556dbe1f0e02b5aa","64db813196ed0059498bcdd9","","null","","","","","","","","","","","","","null","","","fallScene","","","","","","","","","","","","true","60.0044399999996","322.3","308.07114317029976","253.89","2","13","","",""
"","","","","","html-keyboard-response","42","226254","0.0-9.0-1.12","5ee3c01c7247c006e9a3f4fd","64d3ef96556dbe1f0e02b5aa","64db813196ed0059498bcdd9","","","","","","","","","","","","","","","","","","","","","","","","657.0099998687632","244.00005123200145","4102.099999964237","","","","","","","","","","","","",""
"","","","","","html-keyboard-response","42","226254","0.0-9.0-1.12","5ee3c01c7247c006e9a3f4fd","64d3ef96556dbe1f0e02b5aa","64db813196ed0059498bcdd9","","","","","","","","","","","","","","","","","","reconstruct","","","","","","657.0099998687632","244.00005123200145","4102.099999964237","","","","","","","","","","13","4","500","350"
"","","","","","html-keyboard-response","43","229269","0.0-9.0-0.13","5ee3c01c7247c006e9a3f4fd","64d3ef96556dbe1f0e02b5aa","64db813196ed0059498bcdd9","","null","","","","","","","","","","","","","null","","","fallScene","","","","","","","","","","","","false","61.99985100000019","500","510.8711431702997","369.03","8","14","","",""
"","","","","","html-keyboard-response","44","233894","0.0-9.0-1.13","5ee3c01c7247c006e9a3f4fd","64d3ef96556dbe1f0e02b5aa","64db813196ed0059498bcdd9","","","","","","","","","","","","","","","","","","","","","","","","529.0099644750052","247.9991578373847","4623.800000011921","","","","","","","","","","","","",""
"","","","","","html-keyboard-response","44","233894","0.0-9.0-1.13","5ee3c01c7247c006e9a3f4fd","64d3ef96556dbe1f0e02b5aa","64db813196ed0059498bcdd9","","","","","","","","","","","","","","","","","","reconstruct","","","","","","529.0099644750052","247.9991578373847","4623.800000011921","","","","","","","","","","14","1","375","250"
"","","","","","html-keyboard-response","45","236903","0.0-9.0-0.14","5ee3c01c7247c006e9a3f4fd","64d3ef96556dbe1f0e02b5aa","64db813196ed0059498bcdd9","","null","","","","","","","","","","","","","null","","","fallScene","","","","","","","","","","","","true","62.01278300000017","604.4000000000001","575.4211431702997","266.76","12","15","","",""
"","","","","","html-keyboard-response","46","240991","0.0-9.0-1.14","5ee3c01c7247c006e9a3f4fd","64d3ef96556dbe1f0e02b5aa","64db813196ed0059498bcdd9","","","","","","","","","","","","","","","","","","","","","","","","352.00982523732154","242.9981386264278","4087.400000035763","","","","","","","","","","","","",""
"","","","","","html-keyboard-response","46","240991","0.0-9.0-1.14","5ee3c01c7247c006e9a3f4fd","64d3ef96556dbe1f0e02b5aa","64db813196ed0059498bcdd9","","","","","","","","","","","","","","","","","","reconstruct","","","","","","352.00982523732154","242.9981386264278","4087.400000035763","","","","","","","","","","15","1","375","250"
"","","","","","html-keyboard-response","47","244003","0.0-9.0-0.15","5ee3c01c7247c006e9a3f4fd","64d3ef96556dbe1f0e02b5aa","64db813196ed0059498bcdd9","","null","","","","","","","","","","","","","null","","","fallScene","","","","","","","","","","","","false","62.002657000000326","500","510.8711431702997","369.03","8","16","","",""
"","","","","","html-keyboard-response","48","247286","0.0-9.0-1.15","5ee3c01c7247c006e9a3f4fd","64d3ef96556dbe1f0e02b5aa","64db813196ed0059498bcdd9","","","","","","","","","","","","","","","","","","","","","","","","475.99","264.999999999613","3282.899999976158","","","","","","","","","","","","",""
"","","","","","html-keyboard-response","48","247286","0.0-9.0-1.15","5ee3c01c7247c006e9a3f4fd","64d3ef96556dbe1f0e02b5aa","64db813196ed0059498bcdd9","","","","","","","","","","","","","","","","","","reconstruct","","","","","","475.99","264.999999999613","3282.899999976158","","","","","","","","","","16","6","625","350"
"","","","","","html-keyboard-response","49","250290","0.0-9.0-0.16","5ee3c01c7247c006e9a3f4fd","64d3ef96556dbe1f0e02b5aa","64db813196ed0059498bcdd9","","null","","","","","","","","","","","","","null","","","fallScene","","","","","","","","","","","","false","62.0021079999991","322.3","308.07114317029976","253.89","2","17","","",""
"","","","","","html-keyboard-response","50","255430","0.0-9.0-1.16","5ee3c01c7247c006e9a3f4fd","64d3ef96556dbe1f0e02b5aa","64db813196ed0059498bcdd9","","","","","","","","","","","","","","","","","","","","","","","","269.9999999901977","277.99","5139.099999964237","","","","","","","","","","","","",""
"","","","","","html-keyboard-response","50","255430","0.0-9.0-1.16","5ee3c01c7247c006e9a3f4fd","64d3ef96556dbe1f0e02b5aa","64db813196ed0059498bcdd9","","","","","","","","","","","","","","","","","","reconstruct","","","","","","269.9999999901977","277.99","5139.099999964237","","","","","","","","","","17","6","625","350"
"","","","","","html-keyboard-response","51","258437","0.0-9.0-0.17","5ee3c01c7247c006e9a3f4fd","64d3ef96556dbe1f0e02b5aa","64db813196ed0059498bcdd9","","null","","","","","","","","","","","","","null","","","fallScene","","","","","","","","","","","","false","60.00426000000153","604.4000000000001","667.6211431702998","201.78","9","18","","",""
"","","","","","html-keyboard-response","52","262534","0.0-9.0-1.17","5ee3c01c7247c006e9a3f4fd","64d3ef96556dbe1f0e02b5aa","64db813196ed0059498bcdd9","","","","","","","","","","","","","","","","","","","","","","","","688.9900000667733","322.00003654396914","4096.5","","","","","","","","","","","","",""
"","","","","","html-keyboard-response","52","262534","0.0-9.0-1.17","5ee3c01c7247c006e9a3f4fd","64d3ef96556dbe1f0e02b5aa","64db813196ed0059498bcdd9","","","","","","","","","","","","","","","","","","reconstruct","","","","","","688.9900000667733","322.00003654396914","4096.5","","","","","","","","","","18","3","500","250"
"","","","","","html-button-response","53","383646","0.0-10.0","5ee3c01c7247c006e9a3f4fd","64d3ef96556dbe1f0e02b5aa","64db813196ed0059498bcdd9","","121111","","","","","","","","","","","","","0","","","","<p><span style = ""font-size:40px;"">BREAK</span></p><p>You are doing great! Click 'Next' when you are ready for the next set.</p>","","","","","","","","","","","","","","","","","","","",""
"","","","","","html-keyboard-response","54","386654","0.0-11.0-0.0","5ee3c01c7247c006e9a3f4fd","64d3ef96556dbe1f0e02b5aa","64db813196ed0059498bcdd9","","null","","","","","","","","","","","","","null","","","fallScene","","","","","","","","","","","","true","62.014673999999445","500","510.8711431702997","369.03","8","19","","",""
"","","","","","html-keyboard-response","55","389582","0.0-11.0-1.0","5ee3c01c7247c006e9a3f4fd","64d3ef96556dbe1f0e02b5aa","64db813196ed0059498bcdd9","","","","","","","","","","","","","","","","","","","","","","","","492.0070542964775","259.0070877994616","2927.099999964237","","","","","","","","","","","","",""
"","","","","","html-keyboard-response","55","389582","0.0-11.0-1.0","5ee3c01c7247c006e9a3f4fd","64d3ef96556dbe1f0e02b5aa","64db813196ed0059498bcdd9","","","","","","","","","","","","","","","","","","reconstruct","","","","","","492.0070542964775","259.0070877994616","2927.099999964237","","","","","","","","","","19","5","625","250"
"","","","","","html-keyboard-response","56","392588","0.0-11.0-0.1","5ee3c01c7247c006e9a3f4fd","64d3ef96556dbe1f0e02b5aa","64db813196ed0059498bcdd9","","null","","","","","","","","","","","","","null","","","fallScene","","","","","","","","","","","","true","60.003599999999864","322.3","296.07114317029976","371.46","3","20","","",""
"","","","","","html-keyboard-response","57","395630","0.0-11.0-1.1","5ee3c01c7247c006e9a3f4fd","64d3ef96556dbe1f0e02b5aa","64db813196ed0059498bcdd9","","","","","","","","","","","","","","","","","","","","","","","","694.9900042016524","252.00028985409043","3041.5","","","","","","","","","","","","",""
"","","","","","html-keyboard-response","57","395630","0.0-11.0-1.1","5ee3c01c7247c006e9a3f4fd","64d3ef96556dbe1f0e02b5aa","64db813196ed0059498bcdd9","","","","","","","","","","","","","","","","","","reconstruct","","","","","","694.9900042016524","252.00028985409043","3041.5","","","","","","","","","","20","4","500","350"
"","","","","","html-keyboard-response","58","398638","0.0-11.0-0.2","5ee3c01c7247c006e9a3f4fd","64d3ef96556dbe1f0e02b5aa","64db813196ed0059498bcdd9","","null","","","","","","","","","","","","","null","","","fallScene","","","","","","","","","","","","true","62.01479599999991","322.3","379.3711431702997","245.25","1","21","","",""
"","","","","","html-keyboard-response","59","401598","0.0-11.0-1.2","5ee3c01c7247c006e9a3f4fd","64d3ef96556dbe1f0e02b5aa","64db813196ed0059498bcdd9","","","","","","","","","","","","","","","","","","","","","","","","665.9945632250375","218.99160705784558","2959","","","","","","","","","","","","",""
"","","","","","html-keyboard-response","59","401598","0.0-11.0-1.2","5ee3c01c7247c006e9a3f4fd","64d3ef96556dbe1f0e02b5aa","64db813196ed0059498bcdd9","","","","","","","","","","","","","","","","","","reconstruct","","","","","","665.9945632250375","218.99160705784558","2959","","","","","","","","","","21","6","625","350"
"","","","","","html-keyboard-response","60","404604","0.0-11.0-0.3","5ee3c01c7247c006e9a3f4fd","64d3ef96556dbe1f0e02b5aa","64db813196ed0059498bcdd9","","null","","","","","","","","","","","","","null","","","fallScene","","","","","","","","","","","","false","62.0151010000002","604.4000000000001","596.8711431702998","394.5","10","22","","",""
"","","","","","html-keyboard-response","61","407021","0.0-11.0-1.3","5ee3c01c7247c006e9a3f4fd","64d3ef96556dbe1f0e02b5aa","64db813196ed0059498bcdd9","","","","","","","","","","","","","","","","","","","","","","","","567.0097484835356","246.99777130783747","2417.5","","","","","","","","","","","","",""
"","","","","","html-keyboard-response","61","407021","0.0-11.0-1.3","5ee3c01c7247c006e9a3f4fd","64d3ef96556dbe1f0e02b5aa","64db813196ed0059498bcdd9","","","","","","","","","","","","","","","","","","reconstruct","","","","","","567.0097484835356","246.99777130783747","2417.5","","","","","","","","","","22","5","625","250"
"","","","","","html-keyboard-response","62","410036","0.0-11.0-0.4","5ee3c01c7247c006e9a3f4fd","64d3ef96556dbe1f0e02b5aa","64db813196ed0059498bcdd9","","null","","","","","","","","","","","","","null","","","fallScene","","","","","","","","","","","","true","62.017297000001534","500","553.4711431702997","282.51","7","23","","",""
"","","","","","html-keyboard-response","63","420309","0.0-11.0-1.4","5ee3c01c7247c006e9a3f4fd","64d3ef96556dbe1f0e02b5aa","64db813196ed0059498bcdd9","","","","","","","","","","","","","","","","","","","","","","","","497.00000098993553","314.009999999951","10272.300000011921","","","","","","","","","","","","",""
"","","","","","html-keyboard-response","63","420309","0.0-11.0-1.4","5ee3c01c7247c006e9a3f4fd","64d3ef96556dbe1f0e02b5aa","64db813196ed0059498bcdd9","","","","","","","","","","","","","","","","","","reconstruct","","","","","","497.00000098993553","314.009999999951","10272.300000011921","","","","","","","","","","23","3","500","250"
"","","","","","html-keyboard-response","64","423320","0.0-11.0-0.5","5ee3c01c7247c006e9a3f4fd","64d3ef96556dbe1f0e02b5aa","64db813196ed0059498bcdd9","","null","","","","","","","","","","","","","null","","","fallScene","","","","","","","","","","","","true","60.0010800000024","500","453.67114317029973","210.33","5","24","","",""
"","","","","","html-keyboard-response","65","425269","0.0-11.0-1.5","5ee3c01c7247c006e9a3f4fd","64d3ef96556dbe1f0e02b5aa","64db813196ed0059498bcdd9","","","","","","","","","","","","","","","","","","","","","","","","464.00596014815653","256.99197026563627","1949","","","","","","","","","","","","",""
"","","","","","html-keyboard-response","65","425269","0.0-11.0-1.5","5ee3c01c7247c006e9a3f4fd","64d3ef96556dbe1f0e02b5aa","64db813196ed0059498bcdd9","","","","","","","","","","","","","","","","","","reconstruct","","","","","","464.00596014815653","256.99197026563627","1949","","","","","","","","","","24","1","375","250"
"","","","","","html-keyboard-response","66","428271","0.0-11.0-0.6","5ee3c01c7247c006e9a3f4fd","64d3ef96556dbe1f0e02b5aa","64db813196ed0059498bcdd9","","null","","","","","","","","","","","","","null","","","fallScene","","","","","","","","","","","","false","62.01565000000143","604.4000000000001","575.4211431702997","266.76","12","25","","",""
"","","","","","html-keyboard-response","67","431045","0.0-11.0-1.6","5ee3c01c7247c006e9a3f4fd","64d3ef96556dbe1f0e02b5aa","64db813196ed0059498bcdd9","","","","","","","","","","","","","","","","","","","","","","","","598.0000000106963","265.01","2773.5","","","","","","","","","","","","",""
"","","","","","html-keyboard-response","67","431045","0.0-11.0-1.6","5ee3c01c7247c006e9a3f4fd","64d3ef96556dbe1f0e02b5aa","64db813196ed0059498bcdd9","","","","","","","","","","","","","","","","","","reconstruct","","","","","","598.0000000106963","265.01","2773.5","","","","","","","","","","25","4","500","350"
"","","","","","html-keyboard-response","68","434055","0.0-11.0-0.7","5ee3c01c7247c006e9a3f4fd","64d3ef96556dbe1f0e02b5aa","64db813196ed0059498bcdd9","","null","","","","","","","","","","","","","null","","","fallScene","","","","","","","","","","","","true","62.01540600000048","604.4000000000001","596.8711431702998","394.5","10","26","","",""
"","","","","","html-keyboard-response","69","436469","0.0-11.0-1.7","5ee3c01c7247c006e9a3f4fd","64d3ef96556dbe1f0e02b5aa","64db813196ed0059498bcdd9","","","","","","","","","","","","","","","","","","","","","","","","360.99999999770483","256.99","2414","","","","","","","","","","","","",""
"","","","","","html-keyboard-response","69","436469","0.0-11.0-1.7","5ee3c01c7247c006e9a3f4fd","64d3ef96556dbe1f0e02b5aa","64db813196ed0059498bcdd9","","","","","","","","","","","","","","","","","","reconstruct","","","","","","360.99999999770483","256.99","2414","","","","","","","","","","26","1","375","250"
"","","","","","html-keyboard-response","70","439471","0.0-11.0-0.8","5ee3c01c7247c006e9a3f4fd","64d3ef96556dbe1f0e02b5aa","64db813196ed0059498bcdd9","","null","","","","","","","","","","","","","null","","","fallScene","","","","","","","","","","","","true","60.001079999998915","604.4000000000001","596.8711431702998","394.5","10","27","","",""
"","","","","","html-keyboard-response","71","442101","0.0-11.0-1.8","5ee3c01c7247c006e9a3f4fd","64d3ef96556dbe1f0e02b5aa","64db813196ed0059498bcdd9","","","","","","","","","","","","","","","","","","","","","","","","412.00999736046094","220.00022974728205","2629.300000011921","","","","","","","","","","","","",""
"","","","","","html-keyboard-response","71","442101","0.0-11.0-1.8","5ee3c01c7247c006e9a3f4fd","64d3ef96556dbe1f0e02b5aa","64db813196ed0059498bcdd9","","","","","","","","","","","","","","","","","","reconstruct","","","","","","412.00999736046094","220.00022974728205","2629.300000011921","","","","","","","","","","27","4","500","350"
"","","","","","html-keyboard-response","72","445104","0.0-11.0-0.9","5ee3c01c7247c006e9a3f4fd","64d3ef96556dbe1f0e02b5aa","64db813196ed0059498bcdd9","","null","","","","","","","","","","","","","null","","","fallScene","","","","","","","","","","","","false","60","322.3","356.42114317029973","357.87","4","28","","",""
"","","","","","html-keyboard-response","73","447893","0.0-11.0-1.9","5ee3c01c7247c006e9a3f4fd","64d3ef96556dbe1f0e02b5aa","64db813196ed0059498bcdd9","","","","","","","","","","","","","","","","","","","","","","","","290.01","194","2788.399999976158","","","","","","","","","","","","",""
"","","","","","html-keyboard-response","73","447893","0.0-11.0-1.9","5ee3c01c7247c006e9a3f4fd","64d3ef96556dbe1f0e02b5aa","64db813196ed0059498bcdd9","","","","","","","","","","","","","","","","","","reconstruct","","","","","","290.01","194","2788.399999976158","","","","","","","","","","28","6","625","350"
"","","","","","html-keyboard-response","74","450903","0.0-11.0-0.10","5ee3c01c7247c006e9a3f4fd","64d3ef96556dbe1f0e02b5aa","64db813196ed0059498bcdd9","","null","","","","","","","","","","","","","null","","","fallScene","","","","","","","","","","","","false","60.001139999998266","322.3","308.07114317029976","253.89","2","29","","",""
"","","","","","html-keyboard-response","75","453741","0.0-11.0-1.10","5ee3c01c7247c006e9a3f4fd","64d3ef96556dbe1f0e02b5aa","64db813196ed0059498bcdd9","","","","","","","","","","","","","","","","","","","","","","","","327.0000533729982","219.00999985756513","2837.400000035763","","","","","","","","","","","","",""
"","","","","","html-keyboard-response","75","453741","0.0-11.0-1.10","5ee3c01c7247c006e9a3f4fd","64d3ef96556dbe1f0e02b5aa","64db813196ed0059498bcdd9","","","","","","","","","","","","","","","","","","reconstruct","","","","","","327.0000533729982","219.00999985756513","2837.400000035763","","","","","","","","","","29","3","500","250"
"","","","","","html-keyboard-response","76","456753","0.0-11.0-0.11","5ee3c01c7247c006e9a3f4fd","64d3ef96556dbe1f0e02b5aa","64db813196ed0059498bcdd9","","null","","","","","","","","","","","","","null","","","fallScene","","","","","","","","","","","","true","60.001019999999556","604.4000000000001","575.4211431702997","266.76","12","30","","",""
"","","","","","html-keyboard-response","77","459293","0.0-11.0-1.11","5ee3c01c7247c006e9a3f4fd","64d3ef96556dbe1f0e02b5aa","64db813196ed0059498bcdd9","","","","","","","","","","","","","","","","","","","","","","","","362.0000307741171","251.99000004735242","2539.599999964237","","","","","","","","","","","","",""
"","","","","","html-keyboard-response","77","459293","0.0-11.0-1.11","5ee3c01c7247c006e9a3f4fd","64d3ef96556dbe1f0e02b5aa","64db813196ed0059498bcdd9","","","","","","","","","","","","","","","","","","reconstruct","","","","","","362.0000307741171","251.99000004735242","2539.599999964237","","","","","","","","","","30","2","375","350"
"","","","","","html-keyboard-response","78","462304","0.0-11.0-0.12","5ee3c01c7247c006e9a3f4fd","64d3ef96556dbe1f0e02b5aa","64db813196ed0059498bcdd9","","null","","","","","","","","","","","","","null","","","fallScene","","","","","","","","","","","","true","62.01638199999712","604.4000000000001","667.6211431702998","201.78","9","31","","",""
"","","","","","html-keyboard-response","79","466373","0.0-11.0-1.12","5ee3c01c7247c006e9a3f4fd","64d3ef96556dbe1f0e02b5aa","64db813196ed0059498bcdd9","","","","","","","","","","","","","","","","","","","","","","","","362.0073064124191","281.9931723841963","4068.399999976158","","","","","","","","","","","","",""
"","","","","","html-keyboard-response","79","466373","0.0-11.0-1.12","5ee3c01c7247c006e9a3f4fd","64d3ef96556dbe1f0e02b5aa","64db813196ed0059498bcdd9","","","","","","","","","","","","","","","","","","reconstruct","","","","","","362.0073064124191","281.9931723841963","4068.399999976158","","","","","","","","","","31","1","375","250"
"","","","","","html-keyboard-response","80","469387","0.0-11.0-0.13","5ee3c01c7247c006e9a3f4fd","64d3ef96556dbe1f0e02b5aa","64db813196ed0059498bcdd9","","null","","","","","","","","","","","","","null","","","fallScene","","","","","","","","","","","","true","62.016687000000964","500","453.67114317029973","210.33","5","32","","",""
"","","","","","html-keyboard-response","81","503285","0.0-11.0-1.13","5ee3c01c7247c006e9a3f4fd","64d3ef96556dbe1f0e02b5aa","64db813196ed0059498bcdd9","","","","","","","","","","","","","","","","","","","","","","","","546.9907385529393","240.9962283162457","33898.19999998808","","","","","","","","","","","","",""
"","","","","","html-keyboard-response","81","503285","0.0-11.0-1.13","5ee3c01c7247c006e9a3f4fd","64d3ef96556dbe1f0e02b5aa","64db813196ed0059498bcdd9","","","","","","","","","","","","","","","","","","reconstruct","","","","","","546.9907385529393","240.9962283162457","33898.19999998808","","","","","","","","","","32","2","375","350"
"","","","","","html-keyboard-response","82","506288","0.0-11.0-0.14","5ee3c01c7247c006e9a3f4fd","64d3ef96556dbe1f0e02b5aa","64db813196ed0059498bcdd9","","null","","","","","","","","","","","","","null","","","fallScene","","","","","","","","","","","","false","60.000839999997986","604.4000000000001","575.4211431702997","266.76","12","33","","",""
"","","","","","html-keyboard-response","83","508973","0.0-11.0-1.14","5ee3c01c7247c006e9a3f4fd","64d3ef96556dbe1f0e02b5aa","64db813196ed0059498bcdd9","","","","","","","","","","","","","","","","","","","","","","","","582.9900000061307","209.00001107314284","2684.699999988079","","","","","","","","","","","","",""
"","","","","","html-keyboard-response","83","508973","0.0-11.0-1.14","5ee3c01c7247c006e9a3f4fd","64d3ef96556dbe1f0e02b5aa","64db813196ed0059498bcdd9","","","","","","","","","","","","","","","","","","reconstruct","","","","","","582.9900000061307","209.00001107314284","2684.699999988079","","","","","","","","","","33","5","625","250"
"","","","","","html-keyboard-response","84","511982","0.0-11.0-0.15","5ee3c01c7247c006e9a3f4fd","64d3ef96556dbe1f0e02b5aa","64db813196ed0059498bcdd9","","null","","","","","","","","","","","","","null","","","fallScene","","","","","","","","","","","","true","62.0131489999998","604.4000000000001","667.6211431702998","201.78","9","34","","",""
"","","","","","html-keyboard-response","85","515254","0.0-11.0-1.15","5ee3c01c7247c006e9a3f4fd","64d3ef96556dbe1f0e02b5aa","64db813196ed0059498bcdd9","","","","","","","","","","","","","","","","","","","","","","","","332.00860563087735","311.9949065613577","3270.900000035763","","","","","","","","","","","","",""
"","","","","","html-keyboard-response","85","515254","0.0-11.0-1.15","5ee3c01c7247c006e9a3f4fd","64d3ef96556dbe1f0e02b5aa","64db813196ed0059498bcdd9","","","","","","","","","","","","","","","","","","reconstruct","","","","","","332.00860563087735","311.9949065613577","3270.900000035763","","","","","","","","","","34","5","625","250"
"","","","","","html-keyboard-response","86","518270","0.0-11.0-0.16","5ee3c01c7247c006e9a3f4fd","64d3ef96556dbe1f0e02b5aa","64db813196ed0059498bcdd9","","null","","","","","","","","","","","","","null","","","fallScene","","","","","","","","","","","","true","60.00431999999914","604.4000000000001","575.4211431702997","266.76","12","35","","",""
"","","","","","html-keyboard-response","87","520701","0.0-11.0-1.16","5ee3c01c7247c006e9a3f4fd","64d3ef96556dbe1f0e02b5aa","64db813196ed0059498bcdd9","","","","","","","","","","","","","","","","","","","","","","","","360.00263406349734","305.00964684971854","2430.7999999523163","","","","","","","","","","","","",""
"","","","","","html-keyboard-response","87","520701","0.0-11.0-1.16","5ee3c01c7247c006e9a3f4fd","64d3ef96556dbe1f0e02b5aa","64db813196ed0059498bcdd9","","","","","","","","","","","","","","","","","","reconstruct","","","","","","360.00263406349734","305.00964684971854","2430.7999999523163","","","","","","","","","","35","3","500","250"
"","","","","","html-keyboard-response","88","523705","0.0-11.0-0.17","5ee3c01c7247c006e9a3f4fd","64d3ef96556dbe1f0e02b5aa","64db813196ed0059498bcdd9","","null","","","","","","","","","","","","","null","","","fallScene","","","","","","","","","","","","false","62.01485700000282","500","553.4711431702997","282.51","7","36","","",""
"","","","","","html-keyboard-response","89","526309","0.0-11.0-1.17","5ee3c01c7247c006e9a3f4fd","64d3ef96556dbe1f0e02b5aa","64db813196ed0059498bcdd9","","","","","","","","","","","","","","","","","","","","","","","","502.00767028552895","275.00641612966706","2603.800000011921","","","","","","","","","","","","",""
"","","","","","html-keyboard-response","89","526309","0.0-11.0-1.17","5ee3c01c7247c006e9a3f4fd","64d3ef96556dbe1f0e02b5aa","64db813196ed0059498bcdd9","","","","","","","","","","","","","","","","","","reconstruct","","","","","","502.00767028552895","275.00641612966706","2603.800000011921","","","","","","","","","","36","4","500","350"
"","","","","","html-button-response","90","527870","0.0-12.0","5ee3c01c7247c006e9a3f4fd","64d3ef96556dbe1f0e02b5aa","64db813196ed0059498bcdd9","","1559","","","","","","","","","","","","","0","","","","<p><span style = ""font-size:40px;"">BREAK</span></p><p>You are halfway done! Click 'Next' when you are ready for the next set.</p>","","","","","","","","","","","","","","","","","","","",""
"","","","","","html-keyboard-response","91","530872","0.0-13.0-0.0","5ee3c01c7247c006e9a3f4fd","64d3ef96556dbe1f0e02b5aa","64db813196ed0059498bcdd9","","null","","","","","","","","","","","","","null","","","fallScene","","","","","","","","","","","","false","60.001019999999556","604.4000000000001","575.4211431702997","266.76","12","37","","",""
"","","","","","html-keyboard-response","92","533594","0.0-13.0-1.0","5ee3c01c7247c006e9a3f4fd","64d3ef96556dbe1f0e02b5aa","64db813196ed0059498bcdd9","","","","","","","","","","","","","","","","","","","","","","","","613.9900004997081","262.00009996955936","2721.300000011921","","","","","","","","","","","","",""
"","","","","","html-keyboard-response","92","533594","0.0-13.0-1.0","5ee3c01c7247c006e9a3f4fd","64d3ef96556dbe1f0e02b5aa","64db813196ed0059498bcdd9","","","","","","","","","","","","","","","","","","reconstruct","","","","","","613.9900004997081","262.00009996955936","2721.300000011921","","","","","","","","","","37","6","625","350"
"","","","","","html-keyboard-response","93","536603","0.0-13.0-0.1","5ee3c01c7247c006e9a3f4fd","64d3ef96556dbe1f0e02b5aa","64db813196ed0059498bcdd9","","null","","","","","","","","","","","","","null","","","fallScene","","","","","","","","","","","","true","60.00222000000067","322.3","296.07114317029976","371.46","3","38","","",""
"","","","","","html-keyboard-response","94","539222","0.0-13.0-1.1","5ee3c01c7247c006e9a3f4fd","64d3ef96556dbe1f0e02b5aa","64db813196ed0059498bcdd9","","","","","","","","","","","","","","","","","","","","","","","","687.0070356241001","252.99289366525403","2617.7999999523163","","","","","","","","","","","","",""
"","","","","","html-keyboard-response","94","539222","0.0-13.0-1.1","5ee3c01c7247c006e9a3f4fd","64d3ef96556dbe1f0e02b5aa","64db813196ed0059498bcdd9","","","","","","","","","","","","","","","","","","reconstruct","","","","","","687.0070356241001","252.99289366525403","2617.7999999523163","","","","","","","","","","38","1","375","250"
"","","","","","html-keyboard-response","95","542228","0.0-13.0-0.2","5ee3c01c7247c006e9a3f4fd","64d3ef96556dbe1f0e02b5aa","64db813196ed0059498bcdd9","","null","","","","","","","","","","","","","null","","","fallScene","","","","","","","","","","","","true","62.01662600000517","604.4000000000001","650.0211431702996","404.58000000000004","11","39","","",""
"","","","","","html-keyboard-response","96","544213","0.0-13.0-1.2","5ee3c01c7247c006e9a3f4fd","64d3ef96556dbe1f0e02b5aa","64db813196ed0059498bcdd9","","","","","","","","","","","","","","","","","","","","","","","","320.0000979493842","331.0099995202844","1984.699999988079","","","","","","","","","","","","",""
"","","","","","html-keyboard-response","96","544213","0.0-13.0-1.2","5ee3c01c7247c006e9a3f4fd","64d3ef96556dbe1f0e02b5aa","64db813196ed0059498bcdd9","","","","","","","","","","","","","","","","","","reconstruct","","","","","","320.0000979493842","331.0099995202844","1984.699999988079","","","","","","","","","","39","5","625","250"
"","","","","","html-keyboard-response","97","547219","0.0-13.0-0.3","5ee3c01c7247c006e9a3f4fd","64d3ef96556dbe1f0e02b5aa","64db813196ed0059498bcdd9","","null","","","","","","","","","","","","","null","","","fallScene","","","","","","","","","","","","false","60.00180000000168","500","453.67114317029973","210.33","5","40","","",""
"","","","","","html-keyboard-response","98","549525","0.0-13.0-1.3","5ee3c01c7247c006e9a3f4fd","64d3ef96556dbe1f0e02b5aa","64db813196ed0059498bcdd9","","","","","","","","","","","","","","","","","","","","","","","","558.0092114423146","330.99610778591483","2305.199999988079","","","","","","","","","","","","",""
"","","","","","html-keyboard-response","98","549525","0.0-13.0-1.3","5ee3c01c7247c006e9a3f4fd","64d3ef96556dbe1f0e02b5aa","64db813196ed0059498bcdd9","","","","","","","","","","","","","","","","","","reconstruct","","","","","","558.0092114423146","330.99610778591483","2305.199999988079","","","","","","","","","","40","3","500","250"
"","","","","","html-keyboard-response","99","552537","0.0-13.0-0.4","5ee3c01c7247c006e9a3f4fd","64d3ef96556dbe1f0e02b5aa","64db813196ed0059498bcdd9","","null","","","","","","","","","","","","","null","","","fallScene","","","","","","","","","","","","true","62.013087999993346","322.3","356.42114317029973","357.87","4","41","","",""
"","","","","","html-keyboard-response","100","554813","0.0-13.0-1.4","5ee3c01c7247c006e9a3f4fd","64d3ef96556dbe1f0e02b5aa","64db813196ed0059498bcdd9","","","","","","","","","","","","","","","","","","","","","","","","644.0021969207783","253.99024430734934","2276.100000023842","","","","","","","","","","","","",""
"","","","","","html-keyboard-response","100","554813","0.0-13.0-1.4","5ee3c01c7247c006e9a3f4fd","64d3ef96556dbe1f0e02b5aa","64db813196ed0059498bcdd9","","","","","","","","","","","","","","","","","","reconstruct","","","","","","644.0021969207783","253.99024430734934","2276.100000023842","","","","","","","","","","41","4","500","350"
"","","","","","html-keyboard-response","101","557819","0.0-13.0-0.5","5ee3c01c7247c006e9a3f4fd","64d3ef96556dbe1f0e02b5aa","64db813196ed0059498bcdd9","","null","","","","","","","","","","","","","null","","","fallScene","","","","","","","","","","","","false","60.00090000000083","604.4000000000001","596.8711431702998","394.5","10","42","","",""
"","","","","","html-keyboard-response","102","560677","0.0-13.0-1.5","5ee3c01c7247c006e9a3f4fd","64d3ef96556dbe1f0e02b5aa","64db813196ed0059498bcdd9","","","","","","","","","","","","","","","","","","","","","","","","645.9998813895314","355.0099992965531","2857.899999976158","","","","","","","","","","","","",""
"","","","","","html-keyboard-response","102","560677","0.0-13.0-1.5","5ee3c01c7247c006e9a3f4fd","64d3ef96556dbe1f0e02b5aa","64db813196ed0059498bcdd9","","","","","","","","","","","","","","","","","","reconstruct","","","","","","645.9998813895314","355.0099992965531","2857.899999976158","","","","","","","","","","42","2","375","350"
"","","","","","html-keyboard-response","103","563685","0.0-13.0-0.6","5ee3c01c7247c006e9a3f4fd","64d3ef96556dbe1f0e02b5aa","64db813196ed0059498bcdd9","","null","","","","","","","","","","","","","null","","","fallScene","","","","","","","","","","","","true","62.016442999996485","322.3","308.07114317029976","253.89","2","43","","",""
"","","","","","html-keyboard-response","104","566039","0.0-13.0-1.6","5ee3c01c7247c006e9a3f4fd","64d3ef96556dbe1f0e02b5aa","64db813196ed0059498bcdd9","","","","","","","","","","","","","","","","","","","","","","","","645.9928938406987","262.99296419869637","2353","","","","","","","","","","","","",""
"","","","","","html-keyboard-response","104","566039","0.0-13.0-1.6","5ee3c01c7247c006e9a3f4fd","64d3ef96556dbe1f0e02b5aa","64db813196ed0059498bcdd9","","","","","","","","","","","","","","","","","","reconstruct","","","","","","645.9928938406987","262.99296419869637","2353","","","","","","","","","","43","5","625","250"
"","","","","","html-keyboard-response","105","569052","0.0-13.0-0.7","5ee3c01c7247c006e9a3f4fd","64d3ef96556dbe1f0e02b5aa","64db813196ed0059498bcdd9","","null","","","","","","","","","","","","","null","","","fallScene","","","","","","","","","","","","true","62.0122949999983","500","479.92114317029973","330.87","6","44","","",""
"","","","","","html-keyboard-response","106","572053","0.0-13.0-1.7","5ee3c01c7247c006e9a3f4fd","64d3ef96556dbe1f0e02b5aa","64db813196ed0059498bcdd9","","","","","","","","","","","","","","","","","","","","","","","","502.99","258.999999999914","3000.199999988079","","","","","","","","","","","","",""
"","","","","","html-keyboard-response","106","572053","0.0-13.0-1.7","5ee3c01c7247c006e9a3f4fd","64d3ef96556dbe1f0e02b5aa","64db813196ed0059498bcdd9","","","","","","","","","","","","","","","","","","reconstruct","","","","","","502.99","258.999999999914","3000.199999988079","","","","","","","","","","44","4","500","350"
"","","","","","html-keyboard-response","107","575055","0.0-13.0-0.8","5ee3c01c7247c006e9a3f4fd","64d3ef96556dbe1f0e02b5aa","64db813196ed0059498bcdd9","","null","","","","","","","","","","","","","null","","","fallScene","","","","","","","","","","","","false","62.015406000004035","500","453.67114317029973","210.33","5","45","","",""
"","","","","","html-keyboard-response","108","577117","0.0-13.0-1.8","5ee3c01c7247c006e9a3f4fd","64d3ef96556dbe1f0e02b5aa","64db813196ed0059498bcdd9","","","","","","","","","","","","","","","","","","","","","","","","510.00999996593276","250.00002610254992","2061.5","","","","","","","","","","","","",""
"","","","","","html-keyboard-response","108","577117","0.0-13.0-1.8","5ee3c01c7247c006e9a3f4fd","64d3ef96556dbe1f0e02b5aa","64db813196ed0059498bcdd9","","","","","","","","","","","","","","","","","","reconstruct","","","","","","510.00999996593276","250.00002610254992","2061.5","","","","","","","","","","45","4","500","350"
"","","","","","html-keyboard-response","109","580120","0.0-13.0-0.9","5ee3c01c7247c006e9a3f4fd","64d3ef96556dbe1f0e02b5aa","64db813196ed0059498bcdd9","","null","","","","","","","","","","","","","null","","","fallScene","","","","","","","","","","","","false","62.01760200000182","322.3","296.07114317029976","371.46","3","46","","",""
"","","","","","html-keyboard-response","110","583053","0.0-13.0-1.9","5ee3c01c7247c006e9a3f4fd","64d3ef96556dbe1f0e02b5aa","64db813196ed0059498bcdd9","","","","","","","","","","","","","","","","","","","","","","","","297.9955458402019","326.00895323743083","2932.300000011921","","","","","","","","","","","","",""
"","","","","","html-keyboard-response","110","583053","0.0-13.0-1.9","5ee3c01c7247c006e9a3f4fd","64d3ef96556dbe1f0e02b5aa","64db813196ed0059498bcdd9","","","","","","","","","","","","","","","","","","reconstruct","","","","","","297.9955458402019","326.00895323743083","2932.300000011921","","","","","","","","","","46","5","625","250"
"","","","","","html-keyboard-response","111","586069","0.0-13.0-0.10","5ee3c01c7247c006e9a3f4fd","64d3ef96556dbe1f0e02b5aa","64db813196ed0059498bcdd9","","null","","","","","","","","","","","","","null","","","fallScene","","","","","","","","","","","","false","60.003359999998935","604.4000000000001","667.6211431702998","201.78","9","47","","",""
"","","","","","html-keyboard-response","112","588797","0.0-13.0-1.10","5ee3c01c7247c006e9a3f4fd","64d3ef96556dbe1f0e02b5aa","64db813196ed0059498bcdd9","","","","","","","","","","","","","","","","","","","","","","","","652.000099994978","272.00999950003774","2728.099999964237","","","","","","","","","","","","",""
"","","","","","html-keyboard-response","112","588797","0.0-13.0-1.10","5ee3c01c7247c006e9a3f4fd","64d3ef96556dbe1f0e02b5aa","64db813196ed0059498bcdd9","","","","","","","","","","","","","","","","","","reconstruct","","","","","","652.000099994978","272.00999950003774","2728.099999964237","","","","","","","","","","47","4","500","350"
"","","","","","html-keyboard-response","113","591802","0.0-13.0-0.11","5ee3c01c7247c006e9a3f4fd","64d3ef96556dbe1f0e02b5aa","64db813196ed0059498bcdd9","","null","","","","","","","","","","","","","null","","","fallScene","","","","","","","","","","","","false","62.01247799999989","500","553.4711431702997","282.51","7","48","","",""
"","","","","","html-keyboard-response","114","594445","0.0-13.0-1.11","5ee3c01c7247c006e9a3f4fd","64d3ef96556dbe1f0e02b5aa","64db813196ed0059498bcdd9","","","","","","","","","","","","","","","","","","","","","","","","534.9900135149967","279.9994802719188","2641.800000011921","","","","","","","","","","","","",""
"","","","","","html-keyboard-response","114","594445","0.0-13.0-1.11","5ee3c01c7247c006e9a3f4fd","64d3ef96556dbe1f0e02b5aa","64db813196ed0059498bcdd9","","","","","","","","","","","","","","","","","","reconstruct","","","","","","534.9900135149967","279.9994802719188","2641.800000011921","","","","","","","","","","48","2","375","350"
"","","","","","html-keyboard-response","115","597452","0.0-13.0-0.12","5ee3c01c7247c006e9a3f4fd","64d3ef96556dbe1f0e02b5aa","64db813196ed0059498bcdd9","","null","","","","","","","","","","","","","null","","","fallScene","","","","","","","","","","","","false","60.00023999999743","322.3","296.07114317029976","371.46","3","49","","",""
"","","","","","html-keyboard-response","116","601949","0.0-13.0-1.12","5ee3c01c7247c006e9a3f4fd","64d3ef96556dbe1f0e02b5aa","64db813196ed0059498bcdd9","","","","","","","","","","","","","","","","","","","","","","","","301.0011764434257","272.98006311453287","4496.300000011921","","","","","","","","","","","","",""
"","","","","","html-keyboard-response","116","601949","0.0-13.0-1.12","5ee3c01c7247c006e9a3f4fd","64d3ef96556dbe1f0e02b5aa","64db813196ed0059498bcdd9","","","","","","","","","","","","","","","","","","reconstruct","","","","","","301.0011764434257","272.98006311453287","4496.300000011921","","","","","","","","","","49","2","375","350"
"","","","","","html-keyboard-response","117","604952","0.0-13.0-0.13","5ee3c01c7247c006e9a3f4fd","64d3ef96556dbe1f0e02b5aa","64db813196ed0059498bcdd9","","null","","","","","","","","","","","","","null","","","fallScene","","","","","","","","","","","","false","62.009549999995734","322.3","356.42114317029973","357.87","4","50","","",""
"","","","","","html-keyboard-response","118","607781","0.0-13.0-1.13","5ee3c01c7247c006e9a3f4fd","64d3ef96556dbe1f0e02b5aa","64db813196ed0059498bcdd9","","","","","","","","","","","","","","","","","","","","","","","","310.990000497629","309.99990023862097","2828.600000023842","","","","","","","","","","","","",""
"","","","","","html-keyboard-response","118","607781","0.0-13.0-1.13","5ee3c01c7247c006e9a3f4fd","64d3ef96556dbe1f0e02b5aa","64db813196ed0059498bcdd9","","","","","","","","","","","","","","","","","","reconstruct","","","","","","310.990000497629","309.99990023862097","2828.600000023842","","","","","","","","","","50","5","625","250"
"","","","","","html-keyboard-response","119","610785","0.0-13.0-0.14","5ee3c01c7247c006e9a3f4fd","64d3ef96556dbe1f0e02b5aa","64db813196ed0059498bcdd9","","null","","","","","","","","","","","","","null","","","fallScene","","","","","","","","","","","","true","62.011501999996135","322.3","296.07114317029976","371.46","3","51","","",""
"","","","","","html-keyboard-response","120","613589","0.0-13.0-1.14","5ee3c01c7247c006e9a3f4fd","64d3ef96556dbe1f0e02b5aa","64db813196ed0059498bcdd9","","","","","","","","","","","","","","","","","","","","","","","","682.992964555483","295.9928934874623","2802.800000011921","","","","","","","","","","","","",""
"","","","","","html-keyboard-response","120","613589","0.0-13.0-1.14","5ee3c01c7247c006e9a3f4fd","64d3ef96556dbe1f0e02b5aa","64db813196ed0059498bcdd9","","","","","","","","","","","","","","","","","","reconstruct","","","","","","682.992964555483","295.9928934874623","2802.800000011921","","","","","","","","","","51","6","625","350"
"","","","","","html-keyboard-response","121","616602","0.0-13.0-0.15","5ee3c01c7247c006e9a3f4fd","64d3ef96556dbe1f0e02b5aa","64db813196ed0059498bcdd9","","null","","","","","","","","","","","","","null","","","fallScene","","","","","","","","","","","","false","62.0177850000034","604.4000000000001","667.6211431702998","201.78","9","52","","",""
"","","","","","html-keyboard-response","122","618998","0.0-13.0-1.15","5ee3c01c7247c006e9a3f4fd","64d3ef96556dbe1f0e02b5aa","64db813196ed0059498bcdd9","","","","","","","","","","","","","","","","","","","","","","","","634.0099999999929","302.0000003761724","2394.5","","","","","","","","","","","","",""
"","","","","","html-keyboard-response","122","618998","0.0-13.0-1.15","5ee3c01c7247c006e9a3f4fd","64d3ef96556dbe1f0e02b5aa","64db813196ed0059498bcdd9","","","","","","","","","","","","","","","","","","reconstruct","","","","","","634.0099999999929","302.0000003761724","2394.5","","","","","","","","","","52","6","625","350"
"","","","","","html-keyboard-response","123","622002","0.0-13.0-0.16","5ee3c01c7247c006e9a3f4fd","64d3ef96556dbe1f0e02b5aa","64db813196ed0059498bcdd9","","null","","","","","","","","","","","","","null","","","fallScene","","","","","","","","","","","","true","62.016016000004605","500","510.8711431702997","369.03","8","53","","",""
"","","","","","html-keyboard-response","124","626389","0.0-13.0-1.16","5ee3c01c7247c006e9a3f4fd","64d3ef96556dbe1f0e02b5aa","64db813196ed0059498bcdd9","","","","","","","","","","","","","","","","","","","","","","","","421.00572373603956","245.00201245674742","4385.900000035763","","","","","","","","","","","","",""
"","","","","","html-keyboard-response","124","626389","0.0-13.0-1.16","5ee3c01c7247c006e9a3f4fd","64d3ef96556dbe1f0e02b5aa","64db813196ed0059498bcdd9","","","","","","","","","","","","","","","","","","reconstruct","","","","","","421.00572373603956","245.00201245674742","4385.900000035763","","","","","","","","","","53","4","500","350"
"","","","","","html-keyboard-response","125","629402","0.0-13.0-0.17","5ee3c01c7247c006e9a3f4fd","64d3ef96556dbe1f0e02b5aa","64db813196ed0059498bcdd9","","null","","","","","","","","","","","","","null","","","fallScene","","","","","","","","","","","","false","62.018029000000794","604.4000000000001","650.0211431702996","404.58000000000004","11","54","","",""
"","","","","","html-keyboard-response","126","631814","0.0-13.0-1.17","5ee3c01c7247c006e9a3f4fd","64d3ef96556dbe1f0e02b5aa","64db813196ed0059498bcdd9","","","","","","","","","","","","","","","","","","","","","","","","661.9999192829504","322.0099996742326","2411.300000011921","","","","","","","","","","","","",""
"","","","","","html-keyboard-response","126","631814","0.0-13.0-1.17","5ee3c01c7247c006e9a3f4fd","64d3ef96556dbe1f0e02b5aa","64db813196ed0059498bcdd9","","","","","","","","","","","","","","","","","","reconstruct","","","","","","661.9999192829504","322.0099996742326","2411.300000011921","","","","","","","","","","54","3","500","250"
"","","","","","html-button-response","127","642927","0.0-14.0","5ee3c01c7247c006e9a3f4fd","64d3ef96556dbe1f0e02b5aa","64db813196ed0059498bcdd9","","11110","","","","","","","","","","","","","0","","","","<p><span style = ""font-size:40px;"">BREAK</span></p><p>You are almost done! Click 'Next' when you are ready for the next set.</p>","","","","","","","","","","","","","","","","","","","",""
"","","","","","html-keyboard-response","128","645933","0.0-15.0-0.0","5ee3c01c7247c006e9a3f4fd","64d3ef96556dbe1f0e02b5aa","64db813196ed0059498bcdd9","","null","","","","","","","","","","","","","null","","","fallScene","","","","","","","","","","","","false","60.00216000000481","322.3","308.07114317029976","253.89","2","55","","",""
"","","","","","html-keyboard-response","129","649213","0.0-15.0-1.0","5ee3c01c7247c006e9a3f4fd","64d3ef96556dbe1f0e02b5aa","64db813196ed0059498bcdd9","","","","","","","","","","","","","","","","","","","","","","","","287.0000000000107","304.01","3279.699999988079","","","","","","","","","","","","",""
"","","","","","html-keyboard-response","129","649213","0.0-15.0-1.0","5ee3c01c7247c006e9a3f4fd","64d3ef96556dbe1f0e02b5aa","64db813196ed0059498bcdd9","","","","","","","","","","","","","","","","","","reconstruct","","","","","","287.0000000000107","304.01","3279.699999988079","","","","","","","","","","55","1","375","250"
"","","","","","html-keyboard-response","130","652220","0.0-15.0-0.1","5ee3c01c7247c006e9a3f4fd","64d3ef96556dbe1f0e02b5aa","64db813196ed0059498bcdd9","","null","","","","","","","","","","","","","null","","","fallScene","","","","","","","","","","","","true","62.01772400000051","322.3","356.42114317029973","357.87","4","56","","",""
"","","","","","html-keyboard-response","131","654989","0.0-15.0-1.1","5ee3c01c7247c006e9a3f4fd","64d3ef96556dbe1f0e02b5aa","64db813196ed0059498bcdd9","","","","","","","","","","","","","","","","","","","","","","","","681.9929289547734","320.0070710903971","2768.100000023842","","","","","","","","","","","","",""
"","","","","","html-keyboard-response","131","654989","0.0-15.0-1.1","5ee3c01c7247c006e9a3f4fd","64d3ef96556dbe1f0e02b5aa","64db813196ed0059498bcdd9","","","","","","","","","","","","","","","","","","reconstruct","","","","","","681.9929289547734","320.0070710903971","2768.100000023842","","","","","","","","","","56","3","500","250"
"","","","","","html-keyboard-response","132","657997","0.0-15.0-0.2","5ee3c01c7247c006e9a3f4fd","64d3ef96556dbe1f0e02b5aa","64db813196ed0059498bcdd9","","null","","","","","","","","","","","","","null","","","fallScene","","","","","","","","","","","","true","62.005951000002334","500","510.8711431702997","369.03","8","57","","",""
"","","","","","html-keyboard-response","133","661085","0.0-15.0-1.2","5ee3c01c7247c006e9a3f4fd","64d3ef96556dbe1f0e02b5aa","64db813196ed0059498bcdd9","","","","","","","","","","","","","","","","","","","","","","","","452.99316495471754","232.00729946271906","3087.399999976158","","","","","","","","","","","","",""
"","","","","","html-keyboard-response","133","661085","0.0-15.0-1.2","5ee3c01c7247c006e9a3f4fd","64d3ef96556dbe1f0e02b5aa","64db813196ed0059498bcdd9","","","","","","","","","","","","","","","","","","reconstruct","","","","","","452.99316495471754","232.00729946271906","3087.399999976158","","","","","","","","","","57","2","375","350"
"","","","","","html-keyboard-response","134","664087","0.0-15.0-0.3","5ee3c01c7247c006e9a3f4fd","64d3ef96556dbe1f0e02b5aa","64db813196ed0059498bcdd9","","null","","","","","","","","","","","","","null","","","fallScene","","","","","","","","","","","","true","62.019676000000906","604.4000000000001","596.8711431702998","394.5","10","58","","",""
"","","","","","html-keyboard-response","135","666557","0.0-15.0-1.3","5ee3c01c7247c006e9a3f4fd","64d3ef96556dbe1f0e02b5aa","64db813196ed0059498bcdd9","","","","","","","","","","","","","","","","","","","","","","","","399.0092008218608","241.99608274623162","2469.600000023842","","","","","","","","","","","","",""
"","","","","","html-keyboard-response","135","666557","0.0-15.0-1.3","5ee3c01c7247c006e9a3f4fd","64d3ef96556dbe1f0e02b5aa","64db813196ed0059498bcdd9","","","","","","","","","","","","","","","","","","reconstruct","","","","","","399.0092008218608","241.99608274623162","2469.600000023842","","","","","","","","","","58","6","625","350"
"","","","","","html-keyboard-response","136","669570","0.0-15.0-0.4","5ee3c01c7247c006e9a3f4fd","64d3ef96556dbe1f0e02b5aa","64db813196ed0059498bcdd9","","null","","","","","","","","","","","","","null","","","fallScene","","","","","","","","","","","","true","62.011806999996416","604.4000000000001","650.0211431702996","404.58000000000004","11","59","","",""
"","","","","","html-keyboard-response","137","671501","0.0-15.0-1.4","5ee3c01c7247c006e9a3f4fd","64d3ef96556dbe1f0e02b5aa","64db813196ed0059498bcdd9","","","","","","","","","","","","","","","","","","","","","","","","349.99960371689775","296.0099921449","1930","","","","","","","","","","","","",""
"","","","","","html-keyboard-response","137","671501","0.0-15.0-1.4","5ee3c01c7247c006e9a3f4fd","64d3ef96556dbe1f0e02b5aa","64db813196ed0059498bcdd9","","","","","","","","","","","","","","","","","","reconstruct","","","","","","349.99960371689775","296.0099921449","1930","","","","","","","","","","59","6","625","350"
"","","","","","html-keyboard-response","138","674503","0.0-15.0-0.5","5ee3c01c7247c006e9a3f4fd","64d3ef96556dbe1f0e02b5aa","64db813196ed0059498bcdd9","","null","","","","","","","","","","","","","null","","","fallScene","","","","","","","","","","","","false","62.01089200000267","500","510.8711431702997","369.03","8","60","","",""
"","","","","","html-keyboard-response","139","677454","0.0-15.0-1.5","5ee3c01c7247c006e9a3f4fd","64d3ef96556dbe1f0e02b5aa","64db813196ed0059498bcdd9","","","","","","","","","","","","","","","","","","","","","","","","532.9999016313091","274.9900004838317","2949.599999964237","","","","","","","","","","","","",""
"","","","","","html-keyboard-response","139","677454","0.0-15.0-1.5","5ee3c01c7247c006e9a3f4fd","64d3ef96556dbe1f0e02b5aa","64db813196ed0059498bcdd9","","","","","","","","","","","","","","","","","","reconstruct","","","","","","532.9999016313091","274.9900004838317","2949.599999964237","","","","","","","","","","60","3","500","250"
"","","","","","html-keyboard-response","140","680462","0.0-15.0-0.6","5ee3c01c7247c006e9a3f4fd","64d3ef96556dbe1f0e02b5aa","64db813196ed0059498bcdd9","","null","","","","","","","","","","","","","null","","","fallScene","","","","","","","","","","","","false","60.00023999999743","322.3","379.3711431702997","245.25","1","61","","",""
"","","","","","html-keyboard-response","141","685133","0.0-15.0-1.6","5ee3c01c7247c006e9a3f4fd","64d3ef96556dbe1f0e02b5aa","64db813196ed0059498bcdd9","","","","","","","","","","","","","","","","","","","","","","","","317.99694244524966","230.99280363105882","4671","","","","","","","","","","","","",""
"","","","","","html-keyboard-response","141","685133","0.0-15.0-1.6","5ee3c01c7247c006e9a3f4fd","64d3ef96556dbe1f0e02b5aa","64db813196ed0059498bcdd9","","","","","","","","","","","","","","","","","","reconstruct","","","","","","317.99694244524966","230.99280363105882","4671","","","","","","","","","","61","4","500","350"
"","","","","","html-keyboard-response","142","688136","0.0-15.0-0.7","5ee3c01c7247c006e9a3f4fd","64d3ef96556dbe1f0e02b5aa","64db813196ed0059498bcdd9","","null","","","","","","","","","","","","","null","","","fallScene","","","","","","","","","","","","true","62.021871999998694","500","479.92114317029973","330.87","6","62","","",""
"","","","","","html-keyboard-response","143","690223","0.0-15.0-1.7","5ee3c01c7247c006e9a3f4fd","64d3ef96556dbe1f0e02b5aa","64db813196ed0059498bcdd9","","","","","","","","","","","","","","","","","","","","","","","","545.0030754671533","261.99048467016917","2085.900000035763","","","","","","","","","","","","",""
"","","","","","html-keyboard-response","143","690223","0.0-15.0-1.7","5ee3c01c7247c006e9a3f4fd","64d3ef96556dbe1f0e02b5aa","64db813196ed0059498bcdd9","","","","","","","","","","","","","","","","","","reconstruct","","","","","","545.0030754671533","261.99048467016917","2085.900000035763","","","","","","","","","","62","3","500","250"
"","","","","","html-keyboard-response","144","693237","0.0-15.0-0.8","5ee3c01c7247c006e9a3f4fd","64d3ef96556dbe1f0e02b5aa","64db813196ed0059498bcdd9","","null","","","","","","","","","","","","","null","","","fallScene","","","","","","","","","","","","false","62.01119700000296","322.3","356.42114317029973","357.87","4","63","","",""
"","","","","","html-keyboard-response","145","695501","0.0-15.0-1.8","5ee3c01c7247c006e9a3f4fd","64d3ef96556dbe1f0e02b5aa","64db813196ed0059498bcdd9","","","","","","","","","","","","","","","","","","","","","","","","333.00000000189647","237.99","2263.699999988079","","","","","","","","","","","","",""
"","","","","","html-keyboard-response","145","695501","0.0-15.0-1.8","5ee3c01c7247c006e9a3f4fd","64d3ef96556dbe1f0e02b5aa","64db813196ed0059498bcdd9","","","","","","","","","","","","","","","","","","reconstruct","","","","","","333.00000000189647","237.99","2263.699999988079","","","","","","","","","","63","2","375","350"
"","","","","","html-keyboard-response","146","698506","0.0-15.0-0.9","5ee3c01c7247c006e9a3f4fd","64d3ef96556dbe1f0e02b5aa","64db813196ed0059498bcdd9","","null","","","","","","","","","","","","","null","","","fallScene","","","","","","","","","","","","true","62.011136000000064","322.3","379.3711431702997","245.25","1","64","","",""
"","","","","","html-keyboard-response","147","701517","0.0-15.0-1.9","5ee3c01c7247c006e9a3f4fd","64d3ef96556dbe1f0e02b5aa","64db813196ed0059498bcdd9","","","","","","","","","","","","","","","","","","","","","","","","651.9900329912609","262.99918837398036","3011.100000023842","","","","","","","","","","","","",""
"","","","","","html-keyboard-response","147","701517","0.0-15.0-1.9","5ee3c01c7247c006e9a3f4fd","64d3ef96556dbe1f0e02b5aa","64db813196ed0059498bcdd9","","","","","","","","","","","","","","","","","","reconstruct","","","","","","651.9900329912609","262.99918837398036","3011.100000023842","","","","","","","","","","64","1","375","250"
"","","","","","html-keyboard-response","148","704523","0.0-15.0-0.10","5ee3c01c7247c006e9a3f4fd","64d3ef96556dbe1f0e02b5aa","64db813196ed0059498bcdd9","","null","","","","","","","","","","","","","null","","","fallScene","","","","","","","","","","","","false","62.01693099999835","604.4000000000001","650.0211431702996","404.58000000000004","11","65","","",""
"","","","","","html-keyboard-response","149","706693","0.0-15.0-1.10","5ee3c01c7247c006e9a3f4fd","64d3ef96556dbe1f0e02b5aa","64db813196ed0059498bcdd9","","","","","","","","","","","","","","","","","","","","","","","","673.9937451617149","282.00780237130795","2169.900000035763","","","","","","","","","","","","",""
"","","","","","html-keyboard-response","149","706693","0.0-15.0-1.10","5ee3c01c7247c006e9a3f4fd","64d3ef96556dbe1f0e02b5aa","64db813196ed0059498bcdd9","","","","","","","","","","","","","","","","","","reconstruct","","","","","","673.9937451617149","282.00780237130795","2169.900000035763","","","","","","","","","","65","1","375","250"
"","","","","","html-keyboard-response","150","709690","0.0-15.0-0.11","5ee3c01c7247c006e9a3f4fd","64d3ef96556dbe1f0e02b5aa","64db813196ed0059498bcdd9","","null","","","","","","","","","","","","","null","","","fallScene","","","","","","","","","","","","false","62.01821200000238","500","453.67114317029973","210.33","5","66","","",""
"","","","","","html-keyboard-response","151","712714","0.0-15.0-1.11","5ee3c01c7247c006e9a3f4fd","64d3ef96556dbe1f0e02b5aa","64db813196ed0059498bcdd9","","","","","","","","","","","","","","","","","","","","","","","","522.9925742185499","294.9933024056666","3024.300000011921","","","","","","","","","","","","",""
"","","","","","html-keyboard-response","151","712714","0.0-15.0-1.11","5ee3c01c7247c006e9a3f4fd","64d3ef96556dbe1f0e02b5aa","64db813196ed0059498bcdd9","","","","","","","","","","","","","","","","","","reconstruct","","","","","","522.9925742185499","294.9933024056666","3024.300000011921","","","","","","","","","","66","6","625","350"
"","","","","","html-keyboard-response","152","715727","0.0-15.0-0.12","5ee3c01c7247c006e9a3f4fd","64d3ef96556dbe1f0e02b5aa","64db813196ed0059498bcdd9","","null","","","","","","","","","","","","","null","","","fallScene","","","","","","","","","","","","false","62.015711000004316","604.4000000000001","596.8711431702998","394.5","10","67","","",""
"","","","","","html-keyboard-response","153","717926","0.0-15.0-1.12","5ee3c01c7247c006e9a3f4fd","64d3ef96556dbe1f0e02b5aa","64db813196ed0059498bcdd9","","","","","","","","","","","","","","","","","","","","","","","","622.0001081798645","272.0099994148387","2199","","","","","","","","","","","","",""
"","","","","","html-keyboard-response","153","717926","0.0-15.0-1.12","5ee3c01c7247c006e9a3f4fd","64d3ef96556dbe1f0e02b5aa","64db813196ed0059498bcdd9","","","","","","","","","","","","","","","","","","reconstruct","","","","","","622.0001081798645","272.0099994148387","2199","","","","","","","","","","67","3","500","250"
"","","","","","html-keyboard-response","154","720932","0.0-15.0-0.13","5ee3c01c7247c006e9a3f4fd","64d3ef96556dbe1f0e02b5aa","64db813196ed0059498bcdd9","","null","","","","","","","","","","","","","null","","","fallScene","","","","","","","","","","","","false","60.000959999996695","604.4000000000001","650.0211431702996","404.58000000000004","11","68","","",""
"","","","","","html-keyboard-response","155","723632","0.0-15.0-1.13","5ee3c01c7247c006e9a3f4fd","64d3ef96556dbe1f0e02b5aa","64db813196ed0059498bcdd9","","","","","","","","","","","","","","","","","","","","","","","","675.9999108701238","307.00999960278534","2699.699999988079","","","","","","","","","","","","",""
"","","","","","html-keyboard-response","155","723632","0.0-15.0-1.13","5ee3c01c7247c006e9a3f4fd","64d3ef96556dbe1f0e02b5aa","64db813196ed0059498bcdd9","","","","","","","","","","","","","","","","","","reconstruct","","","","","","675.9999108701238","307.00999960278534","2699.699999988079","","","","","","","","","","68","4","500","350"
"","","","","","html-keyboard-response","156","726634","0.0-15.0-0.14","5ee3c01c7247c006e9a3f4fd","64d3ef96556dbe1f0e02b5aa","64db813196ed0059498bcdd9","","null","","","","","","","","","","","","","null","","","fallScene","","","","","","","","","","","","false","59.000767000002085","500","553.4711431702997","282.51","7","69","","",""
"","","","","","html-keyboard-response","157","729718","0.0-15.0-1.14","5ee3c01c7247c006e9a3f4fd","64d3ef96556dbe1f0e02b5aa","64db813196ed0059498bcdd9","","","","","","","","","","","","","","","","","","","","","","","","537.9900004998466","281.99990001658665","3082.900000035763","","","","","","","","","","","","",""
"","","","","","html-keyboard-response","157","729718","0.0-15.0-1.14","5ee3c01c7247c006e9a3f4fd","64d3ef96556dbe1f0e02b5aa","64db813196ed0059498bcdd9","","","","","","","","","","","","","","","","","","reconstruct","","","","","","537.9900004998466","281.99990001658665","3082.900000035763","","","","","","","","","","69","6","625","350"
"","","","","","html-keyboard-response","158","732728","0.0-15.0-0.15","5ee3c01c7247c006e9a3f4fd","64d3ef96556dbe1f0e02b5aa","64db813196ed0059498bcdd9","","null","","","","","","","","","","","","","null","","","fallScene","","","","","","","","","","","","false","58.00365400000475","322.3","356.42114317029973","357.87","4","70","","",""
"","","","","","html-keyboard-response","159","741110","0.0-15.0-1.15","5ee3c01c7247c006e9a3f4fd","64d3ef96556dbe1f0e02b5aa","64db813196ed0059498bcdd9","","","","","","","","","","","","","","","","","","","","","","","","348.00869275134164","289.9950567142393","8381.800000011921","","","","","","","","","","","","",""
"","","","","","html-keyboard-response","159","741110","0.0-15.0-1.15","5ee3c01c7247c006e9a3f4fd","64d3ef96556dbe1f0e02b5aa","64db813196ed0059498bcdd9","","","","","","","","","","","","","","","","","","reconstruct","","","","","","348.00869275134164","289.9950567142393","8381.800000011921","","","","","","","","","","70","1","375","250"
"","","","","","html-keyboard-response","160","744113","0.0-15.0-0.16","5ee3c01c7247c006e9a3f4fd","64d3ef96556dbe1f0e02b5aa","64db813196ed0059498bcdd9","","null","","","","","","","","","","","","","null","","","fallScene","","","","","","","","","","","","false","60.99899999999441","322.3","379.3711431702997","245.25","1","71","","",""
"","","","","","html-keyboard-response","161","747350","0.0-15.0-1.16","5ee3c01c7247c006e9a3f4fd","64d3ef96556dbe1f0e02b5aa","64db813196ed0059498bcdd9","","","","","","","","","","","","","","","","","","","","","","","","318.99","272","3236.599999964237","","","","","","","","","","","","",""
"","","","","","html-keyboard-response","161","747350","0.0-15.0-1.16","5ee3c01c7247c006e9a3f4fd","64d3ef96556dbe1f0e02b5aa","64db813196ed0059498bcdd9","","","","","","","","","","","","","","","","","","reconstruct","","","","","","318.99","272","3236.599999964237","","","","","","","","","","71","5","625","250"
"","","","","","html-keyboard-response","162","750356","0.0-15.0-0.17","5ee3c01c7247c006e9a3f4fd","64d3ef96556dbe1f0e02b5aa","64db813196ed0059498bcdd9","","null","","","","","","","","","","","","","null","","","fallScene","","","","","","","","","","","","false","59.98069799999846","500","479.92114317029973","330.87","6","72","","",""
"","","","","","html-keyboard-response","163","753543","0.0-15.0-1.17","5ee3c01c7247c006e9a3f4fd","64d3ef96556dbe1f0e02b5aa","64db813196ed0059498bcdd9","","","","","","","","","","","","","","","","","","","","","","","","554.9900000149089","284.0000172677995","3186.400000035763","","","","","","","","","","","","",""
"","","","","","html-keyboard-response","163","753543","0.0-15.0-1.17","5ee3c01c7247c006e9a3f4fd","64d3ef96556dbe1f0e02b5aa","64db813196ed0059498bcdd9","","","","","","","","","","","","","","","","","","reconstruct","","","","","","554.9900000149089","284.0000172677995","3186.400000035763","","","","","","","","","","72","6","625","350"
"","","","","","survey-text","164","793958","0.0-16.0","5ee3c01c7247c006e9a3f4fd","64d3ef96556dbe1f0e02b5aa","64db813196ed0059498bcdd9","","40405","","","","","","","","","","","","","{""Summary"":""I saw a ball drop behind a grey screen where there was a triangle.  Based on the angle the ball fell, I moved a triangle to where I think it was positioned behind the screen.""}","","","","","","","","","","","","","","","","","","","","","","","",""
"","","","","","survey-text","165","795333","0.0-17.0","5ee3c01c7247c006e9a3f4fd","64d3ef96556dbe1f0e02b5aa","64db813196ed0059498bcdd9","","1373","","","","","","","","","","","","","{""Comments"":""""}","","","","","","","","","","","","","","","","","","","","","","","",""
