"success","timeout","failed_images","failed_audio","failed_video","trial_type","trial_index","time_elapsed","internal_node_id","subject_id","study_id","session_id","view_history","rt","width","height","webaudio","browser","browser_version","mobile","os","fullscreen","vsync_rate","webcam","microphone","url","response","triangle_prac_final_x","triangle_prac_final_y","trial_name","stimulus","ball_X_prac_occ","ball_Y_prac_occ","obstacle_X_prac_occ","obstacle_Y_prac_occ","triangle_final_x","triangle_final_y","response_time","obstacle_X_prac_occ_init","obstacle_Y_prac_occ_init","question_order","flipped","runnerFPS","ball_X","obstacle_groundTruth_x","obstacle_groundTruth_y","stimulus_idx","currentTrial","obstacle_idx","obstacle_initial_x","obstacle_initial_y"
"true","false","[]","[]","[]","preload","0","25","0.0-0.0","5f29aed2c46fc6118f5980c3","64d3ef96556dbe1f0e02b5aa","64db856a31660480e1ac2256","","","","","","","","","","","","","","","","","","","","","","","","","","","","","","","","","","","","","","",""
"","","","","","instructions","1","19141","0.0-1.0","5f29aed2c46fc6118f5980c3","64d3ef96556dbe1f0e02b5aa","64db856a31660480e1ac2256","[{""page_index"":0,""viewing_time"":19116}]","19116","","","","","","","","","","","","","","","","","","","","","","","","","","","","","","","","","","","","",""
"","","","","","browser-check","2","20143","0.0-2.0","5f29aed2c46fc6118f5980c3","64d3ef96556dbe1f0e02b5aa","64db856a31660480e1ac2256","","","1440","783","true","chrome","115.0.0","false","Mac OS","true","60.46","true","true","","","","","","","","","","","","","","","","","","","","","","","","","",""
"","","","","","external-html","3","22271","0.0-3.0","5f29aed2c46fc6118f5980c3","64d3ef96556dbe1f0e02b5aa","64db856a31660480e1ac2256","","2054","","","","","","","","","","","","consent.html","","","","","","","","","","","","","","","","","","","","","","","","",""
"true","","","","","fullscreen","4","24780","0.0-4.0","5f29aed2c46fc6118f5980c3","64d3ef96556dbe1f0e02b5aa","64db856a31660480e1ac2256","","1999","","","","","","","","","","","","","","","","","","","","","","","","","","","","","","","","","","","","",""
"","","","","","survey-text","5","29123","0.0-5.0","5f29aed2c46fc6118f5980c3","64d3ef96556dbe1f0e02b5aa","64db856a31660480e1ac2256","","4338","","","","","","","","","","","","","{""prolificID"":""5f29aed2c46fc6118f5980c3""}","","","","","","","","","","","","","","","","","","","","","","","",""
"","","","","","browser-check","6","30122","0.0-6.0","5f29aed2c46fc6118f5980c3","64d3ef96556dbe1f0e02b5aa","64db856a31660480e1ac2256","","","1440","900","true","chrome","115.0.0","false","Mac OS","true","60.21","true","true","","","","","","","","","","","","","","","","","","","","","","","","","",""
"","","","","","instructions","7","65684","0.0-7.0-0.0-0.0","5f29aed2c46fc6118f5980c3","64d3ef96556dbe1f0e02b5aa","64db856a31660480e1ac2256","[{""page_index"":0,""viewing_time"":17870},{""page_index"":1,""viewing_time"":3346},{""page_index"":2,""viewing_time"":7058},{""page_index"":3,""viewing_time"":7287}]","35562","","","","","","","","","","","","","","","","","","","","","","","","","","","","","","","","","","","","",""
"","","","","","html-keyboard-response","8","74511","0.0-7.0-0.0-1.0","5f29aed2c46fc6118f5980c3","64d3ef96556dbe1f0e02b5aa","64db856a31660480e1ac2256","","","","","","","","","","","","","","","","214.00821054695078","326.0057084953157","","","","","","","","","","","","","","","","","","","","","",""
"","","","","","html-keyboard-response","8","74512","0.0-7.0-0.0-1.0","5f29aed2c46fc6118f5980c3","64d3ef96556dbe1f0e02b5aa","64db856a31660480e1ac2256","","","","","","","","","","","","","","","","","","practiceTrial_move","","","","","","","","","","","","","","","","","","","","",""
"","","","","","html-button-response","9","77071","0.0-7.0-0.0-2.0","5f29aed2c46fc6118f5980c3","64d3ef96556dbe1f0e02b5aa","64db856a31660480e1ac2256","","2558","","","","","","","","","","","","","0","","","","<p>To help you get more comfortable with the task, let's begin with a practice trial first!</p><p>As described previously, you will first see a video of a ball falling, some of it behind a gray screen.</p><p>After the video, you will drag a triangle to the spot you think the ball hit the triangle behind the screen.</p><p>Click 'Next' to start your practice trial.</p>","","","","","","","","","","","","","","","","","","","",""
"","","","","","html-keyboard-response","10","80080","0.0-7.0-0.0-3.0","5f29aed2c46fc6118f5980c3","64d3ef96556dbe1f0e02b5aa","64db856a31660480e1ac2256","","null","","","","","","","","","","","","","null","","","fallScene_practiceTrial_withOccluder","","400","50","420","415","","","","","","","","","","","","","","","",""
"","","","","","html-keyboard-response","11","83546","0.0-7.0-0.0-4.0","5f29aed2c46fc6118f5980c3","64d3ef96556dbe1f0e02b5aa","64db856a31660480e1ac2256","","","","","","","","","","","","","","","","","","","","","","","","386.9900004999625","335.00009999500185","3464.6999999955297","","","","","","","","","","","","",""
"","","","","","html-keyboard-response","11","83547","0.0-7.0-0.0-4.0","5f29aed2c46fc6118f5980c3","64d3ef96556dbe1f0e02b5aa","64db856a31660480e1ac2256","","","","","","","","","","","","","","","","","","reconstruct_practiceTrial_withOccluder","","","","","","386.9900004999625","335.00009999500185","3464.6999999955297","500","300","","","","","","","","","","",""
"","","","","","html-button-response","12","85348","0.0-7.0-0.0-5.0","5f29aed2c46fc6118f5980c3","64d3ef96556dbe1f0e02b5aa","64db856a31660480e1ac2256","","1799","","","","","","","","","","","","","1","","","","<p>Ok! We're almost ready to get started.</p><p>We just have a <b>brief quiz</b>, to make sure you understood the task.</p><p>If you need to review the instructions, click 'Previous'.</p><p>It's important to understand the task to do the study, so you have to pass the quiz to move to the study.</p>","","","","","","","","","","","","","","","","","","","",""
"","","","","","survey-multi-choice","13","93647","0.0-7.0-1.0-0.0","5f29aed2c46fc6118f5980c3","64d3ef96556dbe1f0e02b5aa","64db856a31660480e1ac2256","","8297","","","","","","","","","","","","","{""generalProcedure"":""Watch a video of a ball falling, some of it behind a gray screen. After each video, drag a triangle to where I think the ball hit the triangle behind the screen.""}","","","","","","","","","","","","","","[0]","","","","","","","","","",""
"","","","","","survey-multi-choice","14","96857","0.0-7.0-1.0-1.0","5f29aed2c46fc6118f5980c3","64d3ef96556dbe1f0e02b5aa","64db856a31660480e1ac2256","","3205","","","","","","","","","","","","","{""checkBallHitObstacle"":""Yes.""}","","","","","","","","","","","","","","[0]","","","","","","","","","",""
"","","","","","survey-multi-choice","15","99934","0.0-7.0-1.0-2.0","5f29aed2c46fc6118f5980c3","64d3ef96556dbe1f0e02b5aa","64db856a31660480e1ac2256","","3071","","","","","","","","","","","","","{""checkTriangleVisibility"":""No, the triangle is hidden behind the gray screen.""}","","","","","","","","","","","","","","[0]","","","","","","","","","",""
"","","","","","instructions","16","104380","0.0-8.0","5f29aed2c46fc6118f5980c3","64d3ef96556dbe1f0e02b5aa","64db856a31660480e1ac2256","[{""page_index"":0,""viewing_time"":4439}]","4439","","","","","","","","","","","","","","","","","","","","","","","","","","","","","","","","","","","","",""
"","","","","","html-keyboard-response","17","107404","0.0-9.0-0.0","5f29aed2c46fc6118f5980c3","64d3ef96556dbe1f0e02b5aa","64db856a31660480e1ac2256","","null","","","","","","","","","","","","","null","","","fallScene","","","","","","","","","","","","true","62.01418600000023","604.4000000000001","596.8711431702998","394.5","10","1","","",""
"","","","","","html-keyboard-response","18","110559","0.0-9.0-1.0","5f29aed2c46fc6118f5980c3","64d3ef96556dbe1f0e02b5aa","64db856a31660480e1ac2256","","","","","","","","","","","","","","","","","","","","","","","","377.009999058186","276.9998627579034","3154.2999999970198","","","","","","","","","","","","",""
"","","","","","html-keyboard-response","18","110559","0.0-9.0-1.0","5f29aed2c46fc6118f5980c3","64d3ef96556dbe1f0e02b5aa","64db856a31660480e1ac2256","","","","","","","","","","","","","","","","","","reconstruct","","","","","","377.009999058186","276.9998627579034","3154.2999999970198","","","","","","","","","","1","4","500","350"
"","","","","","html-keyboard-response","19","113570","0.0-9.0-0.1","5f29aed2c46fc6118f5980c3","64d3ef96556dbe1f0e02b5aa","64db856a31660480e1ac2256","","null","","","","","","","","","","","","","null","","","fallScene","","","","","","","","","","","","true","62.01418600000023","322.3","308.07114317029976","253.89","2","2","","",""
"","","","","","html-keyboard-response","20","117266","0.0-9.0-1.1","5f29aed2c46fc6118f5980c3","64d3ef96556dbe1f0e02b5aa","64db856a31660480e1ac2256","","","","","","","","","","","","","","","","","","","","","","","","674.9900000002502","259.999997763086","3695.10000000149","","","","","","","","","","","","",""
"","","","","","html-keyboard-response","20","117266","0.0-9.0-1.1","5f29aed2c46fc6118f5980c3","64d3ef96556dbe1f0e02b5aa","64db856a31660480e1ac2256","","","","","","","","","","","","","","","","","","reconstruct","","","","","","674.9900000002502","259.999997763086","3695.10000000149","","","","","","","","","","2","6","625","350"
"","","","","","html-keyboard-response","21","120276","0.0-9.0-0.2","5f29aed2c46fc6118f5980c3","64d3ef96556dbe1f0e02b5aa","64db856a31660480e1ac2256","","null","","","","","","","","","","","","","null","","","fallScene","","","","","","","","","","","","false","60.30563999999983","322.3","296.07114317029976","371.46","3","3","","",""
"","","","","","html-keyboard-response","22","123692","0.0-9.0-1.2","5f29aed2c46fc6118f5980c3","64d3ef96556dbe1f0e02b5aa","64db856a31660480e1ac2256","","","","","","","","","","","","","","","","","","","","","","","","360.9999999753291","313.99","3415.5","","","","","","","","","","","","",""
"","","","","","html-keyboard-response","22","123692","0.0-9.0-1.2","5f29aed2c46fc6118f5980c3","64d3ef96556dbe1f0e02b5aa","64db856a31660480e1ac2256","","","","","","","","","","","","","","","","","","reconstruct","","","","","","360.9999999753291","313.99","3415.5","","","","","","","","","","3","1","375","250"
"","","","","","html-keyboard-response","23","126710","0.0-9.0-0.3","5f29aed2c46fc6118f5980c3","64d3ef96556dbe1f0e02b5aa","64db856a31660480e1ac2256","","null","","","","","","","","","","","","","null","","","fallScene","","","","","","","","","","","","true","62.01418600000023","322.3","356.42114317029973","357.87","4","4","","",""
"","","","","","html-keyboard-response","24","129462","0.0-9.0-1.3","5f29aed2c46fc6118f5980c3","64d3ef96556dbe1f0e02b5aa","64db856a31660480e1ac2256","","","","","","","","","","","","","","","","","","","","","","","","652.9999936743397","264.0099999979993","2751.7000000029802","","","","","","","","","","","","",""
"","","","","","html-keyboard-response","24","129462","0.0-9.0-1.3","5f29aed2c46fc6118f5980c3","64d3ef96556dbe1f0e02b5aa","64db856a31660480e1ac2256","","","","","","","","","","","","","","","","","","reconstruct","","","","","","652.9999936743397","264.0099999979993","2751.7000000029802","","","","","","","","","","4","4","500","350"
"","","","","","html-keyboard-response","25","132478","0.0-9.0-0.4","5f29aed2c46fc6118f5980c3","64d3ef96556dbe1f0e02b5aa","64db856a31660480e1ac2256","","null","","","","","","","","","","","","","null","","","fallScene","","","","","","","","","","","","false","62.01418600000023","500","453.67114317029973","210.33","5","5","","",""
"","","","","","html-keyboard-response","26","135878","0.0-9.0-1.4","5f29aed2c46fc6118f5980c3","64d3ef96556dbe1f0e02b5aa","64db856a31660480e1ac2256","","","","","","","","","","","","","","","","","","","","","","","","458.000014370515","267.0099999896744","3399.89999999851","","","","","","","","","","","","",""
"","","","","","html-keyboard-response","26","135878","0.0-9.0-1.4","5f29aed2c46fc6118f5980c3","64d3ef96556dbe1f0e02b5aa","64db856a31660480e1ac2256","","","","","","","","","","","","","","","","","","reconstruct","","","","","","458.000014370515","267.0099999896744","3399.89999999851","","","","","","","","","","5","2","375","350"
"","","","","","html-keyboard-response","27","138895","0.0-9.0-0.5","5f29aed2c46fc6118f5980c3","64d3ef96556dbe1f0e02b5aa","64db856a31660480e1ac2256","","null","","","","","","","","","","","","","null","","","fallScene","","","","","","","","","","","","false","62.014186000001125","604.4000000000001","650.0211431702996","404.58000000000004","11","6","","",""
"","","","","","html-keyboard-response","28","141466","0.0-9.0-1.5","5f29aed2c46fc6118f5980c3","64d3ef96556dbe1f0e02b5aa","64db856a31660480e1ac2256","","","","","","","","","","","","","","","","","","","","","","","","638.9999999998131","279.01","2570.60000000149","","","","","","","","","","","","",""
"","","","","","html-keyboard-response","28","141466","0.0-9.0-1.5","5f29aed2c46fc6118f5980c3","64d3ef96556dbe1f0e02b5aa","64db856a31660480e1ac2256","","","","","","","","","","","","","","","","","","reconstruct","","","","","","638.9999999998131","279.01","2570.60000000149","","","","","","","","","","6","6","625","350"
"","","","","","html-keyboard-response","29","144486","0.0-9.0-0.6","5f29aed2c46fc6118f5980c3","64d3ef96556dbe1f0e02b5aa","64db856a31660480e1ac2256","","null","","","","","","","","","","","","","null","","","fallScene","","","","","","","","","","","","true","62.01418599999935","604.4000000000001","575.4211431702997","266.76","12","7","","",""
"","","","","","html-keyboard-response","30","147795","0.0-9.0-1.6","5f29aed2c46fc6118f5980c3","64d3ef96556dbe1f0e02b5aa","64db856a31660480e1ac2256","","","","","","","","","","","","","","","","","","","","","","","","420.99106472629705","248.99550991271207","3308.7000000029802","","","","","","","","","","","","",""
"","","","","","html-keyboard-response","30","147796","0.0-9.0-1.6","5f29aed2c46fc6118f5980c3","64d3ef96556dbe1f0e02b5aa","64db856a31660480e1ac2256","","","","","","","","","","","","","","","","","","reconstruct","","","","","","420.99106472629705","248.99550991271207","3308.7000000029802","","","","","","","","","","7","5","625","250"
"","","","","","html-keyboard-response","31","150834","0.0-9.0-0.7","5f29aed2c46fc6118f5980c3","64d3ef96556dbe1f0e02b5aa","64db856a31660480e1ac2256","","null","","","","","","","","","","","","","null","","","fallScene","","","","","","","","","","","","false","56.00929599999986","500","553.4711431702997","282.51","7","8","","",""
"","","","","","html-keyboard-response","32","153861","0.0-9.0-1.7","5f29aed2c46fc6118f5980c3","64d3ef96556dbe1f0e02b5aa","64db856a31660480e1ac2256","","","","","","","","","","","","","","","","","","","","","","","","512.0099995523624","299.9999053820724","3027.10000000149","","","","","","","","","","","","",""
"","","","","","html-keyboard-response","32","153862","0.0-9.0-1.7","5f29aed2c46fc6118f5980c3","64d3ef96556dbe1f0e02b5aa","64db856a31660480e1ac2256","","","","","","","","","","","","","","","","","","reconstruct","","","","","","512.0099995523624","299.9999053820724","3027.10000000149","","","","","","","","","","8","4","500","350"
"","","","","","html-keyboard-response","33","156895","0.0-9.0-0.8","5f29aed2c46fc6118f5980c3","64d3ef96556dbe1f0e02b5aa","64db856a31660480e1ac2256","","null","","","","","","","","","","","","","null","","","fallScene","","","","","","","","","","","","true","52.69789199999933","322.3","379.3711431702997","245.25","1","9","","",""
"","","","","","html-keyboard-response","34","159823","0.0-9.0-1.8","5f29aed2c46fc6118f5980c3","64d3ef96556dbe1f0e02b5aa","64db856a31660480e1ac2256","","","","","","","","","","","","","","","","","","","","","","","","671.9900039090788","225.00027958235975","2927.6999999955297","","","","","","","","","","","","",""
"","","","","","html-keyboard-response","34","159823","0.0-9.0-1.8","5f29aed2c46fc6118f5980c3","64d3ef96556dbe1f0e02b5aa","64db856a31660480e1ac2256","","","","","","","","","","","","","","","","","","reconstruct","","","","","","671.9900039090788","225.00027958235975","2927.6999999955297","","","","","","","","","","9","3","500","250"
"","","","","","html-keyboard-response","35","162859","0.0-9.0-0.9","5f29aed2c46fc6118f5980c3","64d3ef96556dbe1f0e02b5aa","64db856a31660480e1ac2256","","null","","","","","","","","","","","","","null","","","fallScene","","","","","","","","","","","","false","49.59801600000076","500","553.4711431702997","282.51","7","10","","",""
"","","","","","html-keyboard-response","36","166024","0.0-9.0-1.9","5f29aed2c46fc6118f5980c3","64d3ef96556dbe1f0e02b5aa","64db856a31660480e1ac2256","","","","","","","","","","","","","","","","","","","","","","","","515.0070717272621","250.00707040830017","3164.89999999851","","","","","","","","","","","","",""
"","","","","","html-keyboard-response","36","166024","0.0-9.0-1.9","5f29aed2c46fc6118f5980c3","64d3ef96556dbe1f0e02b5aa","64db856a31660480e1ac2256","","","","","","","","","","","","","","","","","","reconstruct","","","","","","515.0070717272621","250.00707040830017","3164.89999999851","","","","","","","","","","10","6","625","350"
"","","","","","html-keyboard-response","37","169066","0.0-9.0-0.10","5f29aed2c46fc6118f5980c3","64d3ef96556dbe1f0e02b5aa","64db856a31660480e1ac2256","","null","","","","","","","","","","","","","null","","","fallScene","","","","","","","","","","","","true","45.46484799999942","500","453.67114317029973","210.33","5","11","","",""
"","","","","","html-keyboard-response","38","171640","0.0-9.0-1.10","5f29aed2c46fc6118f5980c3","64d3ef96556dbe1f0e02b5aa","64db856a31660480e1ac2256","","","","","","","","","","","","","","","","","","","","","","","","518.0099999999989","225.99999985063974","2574","","","","","","","","","","","","",""
"","","","","","html-keyboard-response","38","171640","0.0-9.0-1.10","5f29aed2c46fc6118f5980c3","64d3ef96556dbe1f0e02b5aa","64db856a31660480e1ac2256","","","","","","","","","","","","","","","","","","reconstruct","","","","","","518.0099999999989","225.99999985063974","2574","","","","","","","","","","11","4","500","350"
"","","","","","html-keyboard-response","39","174670","0.0-9.0-0.11","5f29aed2c46fc6118f5980c3","64d3ef96556dbe1f0e02b5aa","64db856a31660480e1ac2256","","null","","","","","","","","","","","","","null","","","fallScene","","","","","","","","","","","","false","41.68166599999957","322.3","356.42114317029973","357.87","4","12","","",""
"","","","","","html-keyboard-response","40","177568","0.0-9.0-1.11","5f29aed2c46fc6118f5980c3","64d3ef96556dbe1f0e02b5aa","64db856a31660480e1ac2256","","","","","","","","","","","","","","","","","","","","","","","","353.9999989193111","277.9900000000584","2897.2999999970198","","","","","","","","","","","","",""
"","","","","","html-keyboard-response","40","177568","0.0-9.0-1.11","5f29aed2c46fc6118f5980c3","64d3ef96556dbe1f0e02b5aa","64db856a31660480e1ac2256","","","","","","","","","","","","","","","","","","reconstruct","","","","","","353.9999989193111","277.9900000000584","2897.2999999970198","","","","","","","","","","12","1","375","250"
"","","","","","html-keyboard-response","41","180610","0.0-9.0-0.12","5f29aed2c46fc6118f5980c3","64d3ef96556dbe1f0e02b5aa","64db856a31660480e1ac2256","","null","","","","","","","","","","","","","null","","","fallScene","","","","","","","","","","","","false","37.62500399999973","500","553.4711431702997","282.51","7","13","","",""
"","","","","","html-keyboard-response","42","183209","0.0-9.0-1.12","5f29aed2c46fc6118f5980c3","64d3ef96556dbe1f0e02b5aa","64db856a31660480e1ac2256","","","","","","","","","","","","","","","","","","","","","","","","544.0099995193359","265.99990195383725","2598.7000000029802","","","","","","","","","","","","",""
"","","","","","html-keyboard-response","42","183209","0.0-9.0-1.12","5f29aed2c46fc6118f5980c3","64d3ef96556dbe1f0e02b5aa","64db856a31660480e1ac2256","","","","","","","","","","","","","","","","","","reconstruct","","","","","","544.0099995193359","265.99990195383725","2598.7000000029802","","","","","","","","","","13","2","375","350"
"","","","","","html-keyboard-response","43","186265","0.0-9.0-0.13","5f29aed2c46fc6118f5980c3","64d3ef96556dbe1f0e02b5aa","64db856a31660480e1ac2256","","null","","","","","","","","","","","","","null","","","fallScene","","","","","","","","","","","","true","37.198511999999525","500","479.92114317029973","330.87","6","14","","",""
"","","","","","html-keyboard-response","44","189373","0.0-9.0-1.13","5f29aed2c46fc6118f5980c3","64d3ef96556dbe1f0e02b5aa","64db856a31660480e1ac2256","","","","","","","","","","","","","","","","","","","","","","","","524.0069631154804","268.0071773966594","3107.5999999940395","","","","","","","","","","","","",""
"","","","","","html-keyboard-response","44","189373","0.0-9.0-1.13","5f29aed2c46fc6118f5980c3","64d3ef96556dbe1f0e02b5aa","64db856a31660480e1ac2256","","","","","","","","","","","","","","","","","","reconstruct","","","","","","524.0069631154804","268.0071773966594","3107.5999999940395","","","","","","","","","","14","5","625","250"
"","","","","","html-keyboard-response","45","192417","0.0-9.0-0.14","5f29aed2c46fc6118f5980c3","64d3ef96556dbe1f0e02b5aa","64db856a31660480e1ac2256","","null","","","","","","","","","","","","","null","","","fallScene","","","","","","","","","","","","false","33.54865799999965","604.4000000000001","596.8711431702998","394.5","10","15","","",""
"","","","","","html-keyboard-response","46","194969","0.0-9.0-1.14","5f29aed2c46fc6118f5980c3","64d3ef96556dbe1f0e02b5aa","64db856a31660480e1ac2256","","","","","","","","","","","","","","","","","","","","","","","","591.0098773808908","260.00156120041595","2551.60000000149","","","","","","","","","","","","",""
"","","","","","html-keyboard-response","46","194969","0.0-9.0-1.14","5f29aed2c46fc6118f5980c3","64d3ef96556dbe1f0e02b5aa","64db856a31660480e1ac2256","","","","","","","","","","","","","","","","","","reconstruct","","","","","","591.0098773808908","260.00156120041595","2551.60000000149","","","","","","","","","","15","5","625","250"
"","","","","","html-keyboard-response","47","198019","0.0-9.0-0.15","5f29aed2c46fc6118f5980c3","64d3ef96556dbe1f0e02b5aa","64db856a31660480e1ac2256","","null","","","","","","","","","","","","","null","","","fallScene","","","","","","","","","","","","false","32.03205199999959","322.3","296.07114317029976","371.46","3","16","","",""
"","","","","","html-keyboard-response","48","200733","0.0-9.0-1.15","5f29aed2c46fc6118f5980c3","64d3ef96556dbe1f0e02b5aa","64db856a31660480e1ac2256","","","","","","","","","","","","","","","","","","","","","","","","310.9999018947838","257.00999951875673","2713.60000000149","","","","","","","","","","","","",""
"","","","","","html-keyboard-response","48","200733","0.0-9.0-1.15","5f29aed2c46fc6118f5980c3","64d3ef96556dbe1f0e02b5aa","64db856a31660480e1ac2256","","","","","","","","","","","","","","","","","","reconstruct","","","","","","310.9999018947838","257.00999951875673","2713.60000000149","","","","","","","","","","16","2","375","350"
"","","","","","html-keyboard-response","49","203804","0.0-9.0-0.16","5f29aed2c46fc6118f5980c3","64d3ef96556dbe1f0e02b5aa","64db856a31660480e1ac2256","","null","","","","","","","","","","","","","null","","","fallScene","","","","","","","","","","","","false","30.998759999999603","604.4000000000001","596.8711431702998","394.5","10","17","","",""
"","","","","","html-keyboard-response","50","206821","0.0-9.0-1.16","5f29aed2c46fc6118f5980c3","64d3ef96556dbe1f0e02b5aa","64db856a31660480e1ac2256","","","","","","","","","","","","","","","","","","","","","","","","608.0014492916996","259.0098944203251","3016.3000000044703","","","","","","","","","","","","",""
"","","","","","html-keyboard-response","50","206821","0.0-9.0-1.16","5f29aed2c46fc6118f5980c3","64d3ef96556dbe1f0e02b5aa","64db856a31660480e1ac2256","","","","","","","","","","","","","","","","","","reconstruct","","","","","","608.0014492916996","259.0098944203251","3016.3000000044703","","","","","","","","","","17","2","375","350"
"","","","","","html-keyboard-response","51","209862","0.0-9.0-0.17","5f29aed2c46fc6118f5980c3","64d3ef96556dbe1f0e02b5aa","64db856a31660480e1ac2256","","null","","","","","","","","","","","","","null","","","fallScene","","","","","","","","","","","","true","28.465528000000518","322.3","356.42114317029973","357.87","4","18","","",""
"","","","","","html-keyboard-response","52","212522","0.0-9.0-1.17","5f29aed2c46fc6118f5980c3","64d3ef96556dbe1f0e02b5aa","64db856a31660480e1ac2256","","","","","","","","","","","","","","","","","","","","","","","","678.9998993049455","236.00999949301246","2659.89999999851","","","","","","","","","","","","",""
"","","","","","html-keyboard-response","52","212522","0.0-9.0-1.17","5f29aed2c46fc6118f5980c3","64d3ef96556dbe1f0e02b5aa","64db856a31660480e1ac2256","","","","","","","","","","","","","","","","","","reconstruct","","","","","","678.9998993049455","236.00999949301246","2659.89999999851","","","","","","","","","","18","3","500","250"
"","","","","","html-button-response","53","215295","0.0-10.0","5f29aed2c46fc6118f5980c3","64d3ef96556dbe1f0e02b5aa","64db856a31660480e1ac2256","","2772","","","","","","","","","","","","","0","","","","<p><span style = ""font-size:40px;"">BREAK</span></p><p>You are doing great! Click 'Next' when you are ready for the next set.</p>","","","","","","","","","","","","","","","","","","","",""
"","","","","","html-keyboard-response","54","218347","0.0-11.0-0.0","5f29aed2c46fc6118f5980c3","64d3ef96556dbe1f0e02b5aa","64db856a31660480e1ac2256","","null","","","","","","","","","","","","","null","","","fallScene","","","","","","","","","","","","false","25.415649999999733","500","479.92114317029973","330.87","6","19","","",""
"","","","","","html-keyboard-response","55","220775","0.0-11.0-1.0","5f29aed2c46fc6118f5980c3","64d3ef96556dbe1f0e02b5aa","64db856a31660480e1ac2256","","","","","","","","","","","","","","","","","","","","","","","","469.0000237672706","228.0099999717558","2427.7999999970198","","","","","","","","","","","","",""
"","","","","","html-keyboard-response","55","220775","0.0-11.0-1.0","5f29aed2c46fc6118f5980c3","64d3ef96556dbe1f0e02b5aa","64db856a31660480e1ac2256","","","","","","","","","","","","","","","","","","reconstruct","","","","","","469.0000237672706","228.0099999717558","2427.7999999970198","","","","","","","","","","19","4","500","350"
"","","","","","html-keyboard-response","56","223847","0.0-11.0-0.1","5f29aed2c46fc6118f5980c3","64d3ef96556dbe1f0e02b5aa","64db856a31660480e1ac2256","","null","","","","","","","","","","","","","null","","","fallScene","","","","","","","","","","","","false","25.415649999999733","604.4000000000001","575.4211431702997","266.76","12","20","","",""
"","","","","","html-keyboard-response","57","226654","0.0-11.0-1.1","5f29aed2c46fc6118f5980c3","64d3ef96556dbe1f0e02b5aa","64db856a31660480e1ac2256","","","","","","","","","","","","","","","","","","","","","","","","620.9928243162627","243.00696488068118","2806.7000000029802","","","","","","","","","","","","",""
"","","","","","html-keyboard-response","57","226654","0.0-11.0-1.1","5f29aed2c46fc6118f5980c3","64d3ef96556dbe1f0e02b5aa","64db856a31660480e1ac2256","","","","","","","","","","","","","","","","","","reconstruct","","","","","","620.9928243162627","243.00696488068118","2806.7000000029802","","","","","","","","","","20","2","375","350"
"","","","","","html-keyboard-response","58","229702","0.0-11.0-0.2","5f29aed2c46fc6118f5980c3","64d3ef96556dbe1f0e02b5aa","64db856a31660480e1ac2256","","null","","","","","","","","","","","","","null","","","fallScene","","","","","","","","","","","","true","24.79900800000038","500","453.67114317029973","210.33","5","21","","",""
"","","","","","html-keyboard-response","59","232554","0.0-11.0-1.2","5f29aed2c46fc6118f5980c3","64d3ef96556dbe1f0e02b5aa","64db856a31660480e1ac2256","","","","","","","","","","","","","","","","","","","","","","","","530.9954827717702","244.0089215833303","2851.89999999851","","","","","","","","","","","","",""
"","","","","","html-keyboard-response","59","232554","0.0-11.0-1.2","5f29aed2c46fc6118f5980c3","64d3ef96556dbe1f0e02b5aa","64db856a31660480e1ac2256","","","","","","","","","","","","","","","","","","reconstruct","","","","","","530.9954827717702","244.0089215833303","2851.89999999851","","","","","","","","","","21","6","625","350"
"","","","","","html-keyboard-response","60","235624","0.0-11.0-0.3","5f29aed2c46fc6118f5980c3","64d3ef96556dbe1f0e02b5aa","64db856a31660480e1ac2256","","null","","","","","","","","","","","","","null","","","fallScene","","","","","","","","","","","","false","24.79900800000038","322.3","308.07114317029976","253.89","2","22","","",""
"","","","","","html-keyboard-response","61","238591","0.0-11.0-1.3","5f29aed2c46fc6118f5980c3","64d3ef96556dbe1f0e02b5aa","64db856a31660480e1ac2256","","","","","","","","","","","","","","","","","","","","","","","","339.00948998134857","258.99684718316354","2966.5","","","","","","","","","","","","",""
"","","","","","html-keyboard-response","61","238591","0.0-11.0-1.3","5f29aed2c46fc6118f5980c3","64d3ef96556dbe1f0e02b5aa","64db856a31660480e1ac2256","","","","","","","","","","","","","","","","","","reconstruct","","","","","","339.00948998134857","258.99684718316354","2966.5","","","","","","","","","","22","5","625","250"
"","","","","","html-keyboard-response","62","241642","0.0-11.0-0.4","5f29aed2c46fc6118f5980c3","64d3ef96556dbe1f0e02b5aa","64db856a31660480e1ac2256","","null","","","","","","","","","","","","","null","","","fallScene","","","","","","","","","","","","false","23.765715999999696","604.4000000000001","650.0211431702996","404.58000000000004","11","23","","",""
"","","","","","html-keyboard-response","63","244205","0.0-11.0-1.4","5f29aed2c46fc6118f5980c3","64d3ef96556dbe1f0e02b5aa","64db856a31660480e1ac2256","","","","","","","","","","","","","","","","","","","","","","","","646.992977387502","240.00711919333236","2563.10000000149","","","","","","","","","","","","",""
"","","","","","html-keyboard-response","63","244205","0.0-11.0-1.4","5f29aed2c46fc6118f5980c3","64d3ef96556dbe1f0e02b5aa","64db856a31660480e1ac2256","","","","","","","","","","","","","","","","","","reconstruct","","","","","","646.992977387502","240.00711919333236","2563.10000000149","","","","","","","","","","23","4","500","350"
"","","","","","html-keyboard-response","64","247263","0.0-11.0-0.5","5f29aed2c46fc6118f5980c3","64d3ef96556dbe1f0e02b5aa","64db856a31660480e1ac2256","","null","","","","","","","","","","","","","null","","","fallScene","","","","","","","","","","","","false","22.049118000000277","604.4000000000001","650.0211431702996","404.58000000000004","11","24","","",""
"","","","","","html-keyboard-response","65","249905","0.0-11.0-1.5","5f29aed2c46fc6118f5980c3","64d3ef96556dbe1f0e02b5aa","64db856a31660480e1ac2256","","","","","","","","","","","","","","","","","","","","","","","","659.999930847335","262.9900002391074","2642.3000000044703","","","","","","","","","","","","",""
"","","","","","html-keyboard-response","65","249905","0.0-11.0-1.5","5f29aed2c46fc6118f5980c3","64d3ef96556dbe1f0e02b5aa","64db856a31660480e1ac2256","","","","","","","","","","","","","","","","","","reconstruct","","","","","","659.999930847335","262.9900002391074","2642.3000000044703","","","","","","","","","","24","1","375","250"
"","","","","","html-keyboard-response","66","253000","0.0-11.0-0.6","5f29aed2c46fc6118f5980c3","64d3ef96556dbe1f0e02b5aa","64db856a31660480e1ac2256","","null","","","","","","","","","","","","","null","","","fallScene","","","","","","","","","","","","false","20.999160000000266","604.4000000000001","596.8711431702998","394.5","10","25","","",""
"","","","","","html-keyboard-response","67","255604","0.0-11.0-1.6","5f29aed2c46fc6118f5980c3","64d3ef96556dbe1f0e02b5aa","64db856a31660480e1ac2256","","","","","","","","","","","","","","","","","","","","","","","","603.0069393680694","339.99279964092585","2604.5","","","","","","","","","","","","",""
"","","","","","html-keyboard-response","67","255604","0.0-11.0-1.6","5f29aed2c46fc6118f5980c3","64d3ef96556dbe1f0e02b5aa","64db856a31660480e1ac2256","","","","","","","","","","","","","","","","","","reconstruct","","","","","","603.0069393680694","339.99279964092585","2604.5","","","","","","","","","","25","6","625","350"
"","","","","","html-keyboard-response","68","258705","0.0-11.0-0.7","5f29aed2c46fc6118f5980c3","64d3ef96556dbe1f0e02b5aa","64db856a31660480e1ac2256","","null","","","","","","","","","","","","","null","","","fallScene","","","","","","","","","","","","true","19.949202000000252","604.4000000000001","575.4211431702997","266.76","12","26","","",""
"","","","","","html-keyboard-response","69","261486","0.0-11.0-1.7","5f29aed2c46fc6118f5980c3","64d3ef96556dbe1f0e02b5aa","64db856a31660480e1ac2256","","","","","","","","","","","","","","","","","","","","","","","","414.99000047125406","304.9999029182864","2780.6999999955297","","","","","","","","","","","","",""
"","","","","","html-keyboard-response","69","261486","0.0-11.0-1.7","5f29aed2c46fc6118f5980c3","64d3ef96556dbe1f0e02b5aa","64db856a31660480e1ac2256","","","","","","","","","","","","","","","","","","reconstruct","","","","","","414.99000047125406","304.9999029182864","2780.6999999955297","","","","","","","","","","26","6","625","350"
"","","","","","html-keyboard-response","70","264568","0.0-11.0-0.8","5f29aed2c46fc6118f5980c3","64d3ef96556dbe1f0e02b5aa","64db856a31660480e1ac2256","","null","","","","","","","","","","","","","null","","","fallScene","","","","","","","","","","","","true","18.29926799999981","500","453.67114317029973","210.33","5","27","","",""
"","","","","","html-keyboard-response","71","268097","0.0-11.0-1.8","5f29aed2c46fc6118f5980c3","64d3ef96556dbe1f0e02b5aa","64db856a31660480e1ac2256","","","","","","","","","","","","","","","","","","","","","","","","539.9905161707369","252.9968287254126","3528.10000000149","","","","","","","","","","","","",""
"","","","","","html-keyboard-response","71","268097","0.0-11.0-1.8","5f29aed2c46fc6118f5980c3","64d3ef96556dbe1f0e02b5aa","64db856a31660480e1ac2256","","","","","","","","","","","","","","","","","","reconstruct","","","","","","539.9905161707369","252.9968287254126","3528.10000000149","","","","","","","","","","27","5","625","250"
"","","","","","html-keyboard-response","72","271166","0.0-11.0-0.9","5f29aed2c46fc6118f5980c3","64d3ef96556dbe1f0e02b5aa","64db856a31660480e1ac2256","","null","","","","","","","","","","","","","null","","","fallScene","","","","","","","","","","","","false","19.632547999999197","322.3","308.07114317029976","253.89","2","28","","",""
"","","","","","html-keyboard-response","73","273952","0.0-11.0-1.9","5f29aed2c46fc6118f5980c3","64d3ef96556dbe1f0e02b5aa","64db856a31660480e1ac2256","","","","","","","","","","","","","","","","","","","","","","","","315.9900000087782","231.99998674991605","2786","","","","","","","","","","","","",""
"","","","","","html-keyboard-response","73","273952","0.0-11.0-1.9","5f29aed2c46fc6118f5980c3","64d3ef96556dbe1f0e02b5aa","64db856a31660480e1ac2256","","","","","","","","","","","","","","","","","","reconstruct","","","","","","315.9900000087782","231.99998674991605","2786","","","","","","","","","","28","1","375","250"
"","","","","","html-keyboard-response","74","277045","0.0-11.0-0.10","5f29aed2c46fc6118f5980c3","64d3ef96556dbe1f0e02b5aa","64db856a31660480e1ac2256","","null","","","","","","","","","","","","","null","","","fallScene","","","","","","","","","","","","false","18.29926799999981","604.4000000000001","575.4211431702997","266.76","12","29","","",""
"","","","","","html-keyboard-response","75","279594","0.0-11.0-1.10","5f29aed2c46fc6118f5980c3","64d3ef96556dbe1f0e02b5aa","64db856a31660480e1ac2256","","","","","","","","","","","","","","","","","","","","","","","","650.0089508295209","269.99554100337656","2548.89999999851","","","","","","","","","","","","",""
"","","","","","html-keyboard-response","75","279594","0.0-11.0-1.10","5f29aed2c46fc6118f5980c3","64d3ef96556dbe1f0e02b5aa","64db856a31660480e1ac2256","","","","","","","","","","","","","","","","","","reconstruct","","","","","","650.0089508295209","269.99554100337656","2548.89999999851","","","","","","","","","","29","4","500","350"
"","","","","","html-keyboard-response","76","282660","0.0-11.0-0.11","5f29aed2c46fc6118f5980c3","64d3ef96556dbe1f0e02b5aa","64db856a31660480e1ac2256","","null","","","","","","","","","","","","","null","","","fallScene","","","","","","","","","","","","true","18.599256000000285","604.4000000000001","667.6211431702998","201.78","9","30","","",""
"","","","","","html-keyboard-response","77","287179","0.0-11.0-1.11","5f29aed2c46fc6118f5980c3","64d3ef96556dbe1f0e02b5aa","64db856a31660480e1ac2256","","","","","","","","","","","","","","","","","","","","","","","","400.99000008360434","341.9999591089308","4518.69999999553","","","","","","","","","","","","",""
"","","","","","html-keyboard-response","77","287179","0.0-11.0-1.11","5f29aed2c46fc6118f5980c3","64d3ef96556dbe1f0e02b5aa","64db856a31660480e1ac2256","","","","","","","","","","","","","","","","","","reconstruct","","","","","","400.99000008360434","341.9999591089308","4518.69999999553","","","","","","","","","","30","2","375","350"
"","","","","","html-keyboard-response","78","290291","0.0-11.0-0.12","5f29aed2c46fc6118f5980c3","64d3ef96556dbe1f0e02b5aa","64db856a31660480e1ac2256","","null","","","","","","","","","","","","","null","","","fallScene","","","","","","","","","","","","false","17.282641999999818","500","553.4711431702997","282.51","7","31","","",""
"","","","","","html-keyboard-response","79","293069","0.0-11.0-1.12","5f29aed2c46fc6118f5980c3","64d3ef96556dbe1f0e02b5aa","64db856a31660480e1ac2256","","","","","","","","","","","","","","","","","","","","","","","","534.0099999999992","265.9999998774141","2778.5","","","","","","","","","","","","",""
"","","","","","html-keyboard-response","79","293069","0.0-11.0-1.12","5f29aed2c46fc6118f5980c3","64d3ef96556dbe1f0e02b5aa","64db856a31660480e1ac2256","","","","","","","","","","","","","","","","","","reconstruct","","","","","","534.0099999999992","265.9999998774141","2778.5","","","","","","","","","","31","5","625","250"
"","","","","","html-keyboard-response","80","296166","0.0-11.0-0.13","5f29aed2c46fc6118f5980c3","64d3ef96556dbe1f0e02b5aa","64db856a31660480e1ac2256","","null","","","","","","","","","","","","","null","","","fallScene","","","","","","","","","","","","false","17.84928599999973","322.3","296.07114317029976","371.46","3","32","","",""
"","","","","","html-keyboard-response","81","298874","0.0-11.0-1.13","5f29aed2c46fc6118f5980c3","64d3ef96556dbe1f0e02b5aa","64db856a31660480e1ac2256","","","","","","","","","","","","","","","","","","","","","","","","319.99163884379624","254.00548553251164","2708.60000000149","","","","","","","","","","","","",""
"","","","","","html-keyboard-response","81","298874","0.0-11.0-1.13","5f29aed2c46fc6118f5980c3","64d3ef96556dbe1f0e02b5aa","64db856a31660480e1ac2256","","","","","","","","","","","","","","","","","","reconstruct","","","","","","319.99163884379624","254.00548553251164","2708.60000000149","","","","","","","","","","32","4","500","350"
"","","","","","html-keyboard-response","82","302005","0.0-11.0-0.14","5f29aed2c46fc6118f5980c3","64d3ef96556dbe1f0e02b5aa","64db856a31660480e1ac2256","","null","","","","","","","","","","","","","null","","","fallScene","","","","","","","","","","","","false","16.003088000000453","322.3","356.42114317029973","357.87","4","33","","",""
"","","","","","html-keyboard-response","83","304542","0.0-11.0-1.14","5f29aed2c46fc6118f5980c3","64d3ef96556dbe1f0e02b5aa","64db856a31660480e1ac2256","","","","","","","","","","","","","","","","","","","","","","","","348.9900002878788","248.99992412185745","2536.60000000149","","","","","","","","","","","","",""
"","","","","","html-keyboard-response","83","304542","0.0-11.0-1.14","5f29aed2c46fc6118f5980c3","64d3ef96556dbe1f0e02b5aa","64db856a31660480e1ac2256","","","","","","","","","","","","","","","","","","reconstruct","","","","","","348.9900002878788","248.99992412185745","2536.60000000149","","","","","","","","","","33","2","375","350"
"","","","","","html-keyboard-response","84","307627","0.0-11.0-0.15","5f29aed2c46fc6118f5980c3","64d3ef96556dbe1f0e02b5aa","64db856a31660480e1ac2256","","null","","","","","","","","","","","","","null","","","fallScene","","","","","","","","","","","","true","16.532672000000254","322.3","296.07114317029976","371.46","3","34","","",""
"","","","","","html-keyboard-response","85","310647","0.0-11.0-1.15","5f29aed2c46fc6118f5980c3","64d3ef96556dbe1f0e02b5aa","64db856a31660480e1ac2256","","","","","","","","","","","","","","","","","","","","","","","","699.9928235121739","253.99303594784038","3019.6999999955297","","","","","","","","","","","","",""
"","","","","","html-keyboard-response","85","310647","0.0-11.0-1.15","5f29aed2c46fc6118f5980c3","64d3ef96556dbe1f0e02b5aa","64db856a31660480e1ac2256","","","","","","","","","","","","","","","","","","reconstruct","","","","","","699.9928235121739","253.99303594784038","3019.6999999955297","","","","","","","","","","34","6","625","350"
"","","","","","html-keyboard-response","86","313744","0.0-11.0-0.16","5f29aed2c46fc6118f5980c3","64d3ef96556dbe1f0e02b5aa","64db856a31660480e1ac2256","","null","","","","","","","","","","","","","null","","","fallScene","","","","","","","","","","","","true","17.06598400000017","604.4000000000001","667.6211431702998","201.78","9","35","","",""
"","","","","","html-keyboard-response","87","316844","0.0-11.0-1.16","5f29aed2c46fc6118f5980c3","64d3ef96556dbe1f0e02b5aa","64db856a31660480e1ac2256","","","","","","","","","","","","","","","","","","","","","","","","379.0001991694423","303.00999801637994","3100.4000000059605","","","","","","","","","","","","",""
"","","","","","html-keyboard-response","87","316844","0.0-11.0-1.16","5f29aed2c46fc6118f5980c3","64d3ef96556dbe1f0e02b5aa","64db856a31660480e1ac2256","","","","","","","","","","","","","","","","","","reconstruct","","","","","","379.0001991694423","303.00999801637994","3100.4000000059605","","","","","","","","","","35","1","375","250"
"","","","","","html-keyboard-response","88","319985","0.0-11.0-0.17","5f29aed2c46fc6118f5980c3","64d3ef96556dbe1f0e02b5aa","64db856a31660480e1ac2256","","null","","","","","","","","","","","","","null","","","fallScene","","","","","","","","","","","","false","15.999359999999287","500","479.92114317029973","330.87","6","36","","",""
"","","","","","html-keyboard-response","89","323014","0.0-11.0-1.17","5f29aed2c46fc6118f5980c3","64d3ef96556dbe1f0e02b5aa","64db856a31660480e1ac2256","","","","","","","","","","","","","","","","","","","","","","","","519.9900000637207","314.9999643011129","3028.60000000149","","","","","","","","","","","","",""
"","","","","","html-keyboard-response","89","323014","0.0-11.0-1.17","5f29aed2c46fc6118f5980c3","64d3ef96556dbe1f0e02b5aa","64db856a31660480e1ac2256","","","","","","","","","","","","","","","","","","reconstruct","","","","","","519.9900000637207","314.9999643011129","3028.60000000149","","","","","","","","","","36","1","375","250"
"","","","","","html-button-response","90","329272","0.0-12.0","5f29aed2c46fc6118f5980c3","64d3ef96556dbe1f0e02b5aa","64db856a31660480e1ac2256","","6257","","","","","","","","","","","","","0","","","","<p><span style = ""font-size:40px;"">BREAK</span></p><p>You are halfway done! Click 'Next' when you are ready for the next set.</p>","","","","","","","","","","","","","","","","","","","",""
"","","","","","html-keyboard-response","91","332402","0.0-13.0-0.0","5f29aed2c46fc6118f5980c3","64d3ef96556dbe1f0e02b5aa","64db856a31660480e1ac2256","","null","","","","","","","","","","","","","null","","","fallScene","","","","","","","","","","","","false","14.23276399999985","500","479.92114317029973","330.87","6","37","","",""
"","","","","","html-keyboard-response","92","334940","0.0-13.0-1.0","5f29aed2c46fc6118f5980c3","64d3ef96556dbe1f0e02b5aa","64db856a31660480e1ac2256","","","","","","","","","","","","","","","","","","","","","","","","498.9910735148644","291.9954924659597","2537.6999999955297","","","","","","","","","","","","",""
"","","","","","html-keyboard-response","92","334940","0.0-13.0-1.0","5f29aed2c46fc6118f5980c3","64d3ef96556dbe1f0e02b5aa","64db856a31660480e1ac2256","","","","","","","","","","","","","","","","","","reconstruct","","","","","","498.9910735148644","291.9954924659597","2537.6999999955297","","","","","","","","","","37","6","625","350"
"","","","","","html-keyboard-response","93","338065","0.0-13.0-0.1","5f29aed2c46fc6118f5980c3","64d3ef96556dbe1f0e02b5aa","64db856a31660480e1ac2256","","null","","","","","","","","","","","","","null","","","fallScene","","","","","","","","","","","","true","14.23276399999985","500","510.8711431702997","369.03","8","38","","",""
"","","","","","html-keyboard-response","94","341350","0.0-13.0-1.1","5f29aed2c46fc6118f5980c3","64d3ef96556dbe1f0e02b5aa","64db856a31660480e1ac2256","","","","","","","","","","","","","","","","","","","","","","","","569.992916951793","366.99294093291604","3284.60000000149","","","","","","","","","","","","",""
"","","","","","html-keyboard-response","94","341350","0.0-13.0-1.1","5f29aed2c46fc6118f5980c3","64d3ef96556dbe1f0e02b5aa","64db856a31660480e1ac2256","","","","","","","","","","","","","","","","","","reconstruct","","","","","","569.992916951793","366.99294093291604","3284.60000000149","","","","","","","","","","38","5","625","250"
"","","","","","html-keyboard-response","95","344486","0.0-13.0-0.2","5f29aed2c46fc6118f5980c3","64d3ef96556dbe1f0e02b5aa","64db856a31660480e1ac2256","","null","","","","","","","","","","","","","null","","","fallScene","","","","","","","","","","","","false","14.932735999999334","500","510.8711431702997","369.03","8","39","","",""
"","","","","","html-keyboard-response","96","348175","0.0-13.0-1.2","5f29aed2c46fc6118f5980c3","64d3ef96556dbe1f0e02b5aa","64db856a31660480e1ac2256","","","","","","","","","","","","","","","","","","","","","","","","560.9929779431136","239.00711974136357","3688.1999999955297","","","","","","","","","","","","",""
"","","","","","html-keyboard-response","96","348175","0.0-13.0-1.2","5f29aed2c46fc6118f5980c3","64d3ef96556dbe1f0e02b5aa","64db856a31660480e1ac2256","","","","","","","","","","","","","","","","","","reconstruct","","","","","","560.9929779431136","239.00711974136357","3688.1999999955297","","","","","","","","","","39","2","375","350"
"","","","","","html-keyboard-response","97","351324","0.0-13.0-0.3","5f29aed2c46fc6118f5980c3","64d3ef96556dbe1f0e02b5aa","64db856a31660480e1ac2256","","null","","","","","","","","","","","","","null","","","fallScene","","","","","","","","","","","","true","15.16606000000052","500","510.8711431702997","369.03","8","40","","",""
"","","","","","html-keyboard-response","98","354391","0.0-13.0-1.3","5f29aed2c46fc6118f5980c3","64d3ef96556dbe1f0e02b5aa","64db856a31660480e1ac2256","","","","","","","","","","","","","","","","","","","","","","","","523.000068367835","265.99000023371076","3067.10000000149","","","","","","","","","","","","",""
"","","","","","html-keyboard-response","98","354391","0.0-13.0-1.3","5f29aed2c46fc6118f5980c3","64d3ef96556dbe1f0e02b5aa","64db856a31660480e1ac2256","","","","","","","","","","","","","","","","","","reconstruct","","","","","","523.000068367835","265.99000023371076","3067.10000000149","","","","","","","","","","40","6","625","350"
"","","","","","html-keyboard-response","99","357534","0.0-13.0-0.4","5f29aed2c46fc6118f5980c3","64d3ef96556dbe1f0e02b5aa","64db856a31660480e1ac2256","","null","","","","","","","","","","","","","null","","","fallScene","","","","","","","","","","","","true","13.216137999999862","500","510.8711431702997","369.03","8","41","","",""
"","","","","","html-keyboard-response","100","360588","0.0-13.0-1.4","5f29aed2c46fc6118f5980c3","64d3ef96556dbe1f0e02b5aa","64db856a31660480e1ac2256","","","","","","","","","","","","","","","","","","","","","","","","458.00999799581297","249.9997998007885","3054.2999999970198","","","","","","","","","","","","",""
"","","","","","html-keyboard-response","100","360588","0.0-13.0-1.4","5f29aed2c46fc6118f5980c3","64d3ef96556dbe1f0e02b5aa","64db856a31660480e1ac2256","","","","","","","","","","","","","","","","","","reconstruct","","","","","","458.00999799581297","249.9997998007885","3054.2999999970198","","","","","","","","","","41","4","500","350"
"","","","","","html-keyboard-response","101","363680","0.0-13.0-0.5","5f29aed2c46fc6118f5980c3","64d3ef96556dbe1f0e02b5aa","64db856a31660480e1ac2256","","null","","","","","","","","","","","","","null","","","fallScene","","","","","","","","","","","","true","13.432796000000206","322.3","308.07114317029976","253.89","2","42","","",""
"","","","","","html-keyboard-response","102","366714","0.0-13.0-1.5","5f29aed2c46fc6118f5980c3","64d3ef96556dbe1f0e02b5aa","64db856a31660480e1ac2256","","","","","","","","","","","","","","","","","","","","","","","","677.9955608538373","277.00896069089674","3033.7999999970198","","","","","","","","","","","","",""
"","","","","","html-keyboard-response","102","366714","0.0-13.0-1.5","5f29aed2c46fc6118f5980c3","64d3ef96556dbe1f0e02b5aa","64db856a31660480e1ac2256","","","","","","","","","","","","","","","","","","reconstruct","","","","","","677.9955608538373","277.00896069089674","3033.7999999970198","","","","","","","","","","42","4","500","350"
"","","","","","html-keyboard-response","103","369848","0.0-13.0-0.6","5f29aed2c46fc6118f5980c3","64d3ef96556dbe1f0e02b5aa","64db856a31660480e1ac2256","","null","","","","","","","","","","","","","null","","","fallScene","","","","","","","","","","","","true","13.86611200000014","322.3","308.07114317029976","253.89","2","43","","",""
"","","","","","html-keyboard-response","104","373005","0.0-13.0-1.6","5f29aed2c46fc6118f5980c3","64d3ef96556dbe1f0e02b5aa","64db856a31660480e1ac2256","","","","","","","","","","","","","","","","","","","","","","","","695.9930223996195","260.9928366842224","3156.5999999940395","","","","","","","","","","","","",""
"","","","","","html-keyboard-response","104","373005","0.0-13.0-1.6","5f29aed2c46fc6118f5980c3","64d3ef96556dbe1f0e02b5aa","64db856a31660480e1ac2256","","","","","","","","","","","","","","","","","","reconstruct","","","","","","695.9930223996195","260.9928366842224","3156.5999999940395","","","","","","","","","","43","2","375","350"
"","","","","","html-keyboard-response","105","376130","0.0-13.0-0.7","5f29aed2c46fc6118f5980c3","64d3ef96556dbe1f0e02b5aa","64db856a31660480e1ac2256","","null","","","","","","","","","","","","","null","","","fallScene","","","","","","","","","","","","false","14.082769999999726","500","479.92114317029973","330.87","6","44","","",""
"","","","","","html-keyboard-response","106","380045","0.0-13.0-1.7","5f29aed2c46fc6118f5980c3","64d3ef96556dbe1f0e02b5aa","64db856a31660480e1ac2256","","","","","","","","","","","","","","","","","","","","","","","","519.9910646856295","285.99550999364146","3914.39999999851","","","","","","","","","","","","",""
"","","","","","html-keyboard-response","106","380045","0.0-13.0-1.7","5f29aed2c46fc6118f5980c3","64d3ef96556dbe1f0e02b5aa","64db856a31660480e1ac2256","","","","","","","","","","","","","","","","","","reconstruct","","","","","","519.9910646856295","285.99550999364146","3914.39999999851","","","","","","","","","","44","2","375","350"
"","","","","","html-keyboard-response","107","383177","0.0-13.0-0.8","5f29aed2c46fc6118f5980c3","64d3ef96556dbe1f0e02b5aa","64db856a31660480e1ac2256","","null","","","","","","","","","","","","","null","","","fallScene","","","","","","","","","","","","false","12.199511999999872","604.4000000000001","650.0211431702996","404.58000000000004","11","45","","",""
"","","","","","html-keyboard-response","108","385780","0.0-13.0-1.8","5f29aed2c46fc6118f5980c3","64d3ef96556dbe1f0e02b5aa","64db856a31660480e1ac2256","","","","","","","","","","","","","","","","","","","","","","","","670.9955357969088","300.99105176605354","2602.5","","","","","","","","","","","","",""
"","","","","","html-keyboard-response","108","385780","0.0-13.0-1.8","5f29aed2c46fc6118f5980c3","64d3ef96556dbe1f0e02b5aa","64db856a31660480e1ac2256","","","","","","","","","","","","","","","","","","reconstruct","","","","","","670.9955357969088","300.99105176605354","2602.5","","","","","","","","","","45","3","500","250"
"","","","","","html-keyboard-response","109","388888","0.0-13.0-0.9","5f29aed2c46fc6118f5980c3","64d3ef96556dbe1f0e02b5aa","64db856a31660480e1ac2256","","null","","","","","","","","","","","","","null","","","fallScene","","","","","","","","","","","","false","12.39950400000019","604.4000000000001","650.0211431702996","404.58000000000004","11","46","","",""
"","","","","","html-keyboard-response","110","391352","0.0-13.0-1.9","5f29aed2c46fc6118f5980c3","64d3ef96556dbe1f0e02b5aa","64db856a31660480e1ac2256","","","","","","","","","","","","","","","","","","","","","","","","651.9902941428346","236.00240755824106","2463","","","","","","","","","","","","",""
"","","","","","html-keyboard-response","110","391352","0.0-13.0-1.9","5f29aed2c46fc6118f5980c3","64d3ef96556dbe1f0e02b5aa","64db856a31660480e1ac2256","","","","","","","","","","","","","","","","","","reconstruct","","","","","","651.9902941428346","236.00240755824106","2463","","","","","","","","","","46","5","625","250"
"","","","","","html-keyboard-response","111","394462","0.0-13.0-0.10","5f29aed2c46fc6118f5980c3","64d3ef96556dbe1f0e02b5aa","64db856a31660480e1ac2256","","null","","","","","","","","","","","","","null","","","fallScene","","","","","","","","","","","","false","11.366212000000175","604.4000000000001","575.4211431702997","266.76","12","47","","",""
"","","","","","html-keyboard-response","112","397530","0.0-13.0-1.10","5f29aed2c46fc6118f5980c3","64d3ef96556dbe1f0e02b5aa","64db856a31660480e1ac2256","","","","","","","","","","","","","","","","","","","","","","","","627.9910646103016","248.99551014355043","3067.7999999970198","","","","","","","","","","","","",""
"","","","","","html-keyboard-response","112","397530","0.0-13.0-1.10","5f29aed2c46fc6118f5980c3","64d3ef96556dbe1f0e02b5aa","64db856a31660480e1ac2256","","","","","","","","","","","","","","","","","","reconstruct","","","","","","627.9910646103016","248.99551014355043","3067.7999999970198","","","","","","","","","","47","1","375","250"
"","","","","","html-keyboard-response","113","400718","0.0-13.0-0.11","5f29aed2c46fc6118f5980c3","64d3ef96556dbe1f0e02b5aa","64db856a31660480e1ac2256","","null","","","","","","","","","","","","","null","","","fallScene","","","","","","","","","","","","true","11.916190000000409","500","510.8711431702997","369.03","8","48","","",""
"","","","","","html-keyboard-response","114","405259","0.0-13.0-1.11","5f29aed2c46fc6118f5980c3","64d3ef96556dbe1f0e02b5aa","64db856a31660480e1ac2256","","","","","","","","","","","","","","","","","","","","","","","","465.0070536869927","231.00708840601325","4540.79999999702","","","","","","","","","","","","",""
"","","","","","html-keyboard-response","114","405259","0.0-13.0-1.11","5f29aed2c46fc6118f5980c3","64d3ef96556dbe1f0e02b5aa","64db856a31660480e1ac2256","","","","","","","","","","","","","","","","","","reconstruct","","","","","","465.0070536869927","231.00708840601325","4540.79999999702","","","","","","","","","","48","3","500","250"
"","","","","","html-keyboard-response","115","408419","0.0-13.0-0.12","5f29aed2c46fc6118f5980c3","64d3ef96556dbe1f0e02b5aa","64db856a31660480e1ac2256","","null","","","","","","","","","","","","","null","","","fallScene","","","","","","","","","","","","true","11.916190000000409","604.4000000000001","667.6211431702998","201.78","9","49","","",""
"","","","","","html-keyboard-response","116","411458","0.0-13.0-1.12","5f29aed2c46fc6118f5980c3","64d3ef96556dbe1f0e02b5aa","64db856a31660480e1ac2256","","","","","","","","","","","","","","","","","","","","","","","","399.99106414319823","234.00448892673347","3038.60000000149","","","","","","","","","","","","",""
"","","","","","html-keyboard-response","116","411458","0.0-13.0-1.12","5f29aed2c46fc6118f5980c3","64d3ef96556dbe1f0e02b5aa","64db856a31660480e1ac2256","","","","","","","","","","","","","","","","","","reconstruct","","","","","","399.99106414319823","234.00448892673347","3038.60000000149","","","","","","","","","","49","6","625","350"
"","","","","","html-keyboard-response","117","414605","0.0-13.0-0.13","5f29aed2c46fc6118f5980c3","64d3ef96556dbe1f0e02b5aa","64db856a31660480e1ac2256","","null","","","","","","","","","","","","","null","","","fallScene","","","","","","","","","","","","false","11.549537999999826","604.4000000000001","596.8711431702998","394.5","10","50","","",""
"","","","","","html-keyboard-response","118","418766","0.0-13.0-1.13","5f29aed2c46fc6118f5980c3","64d3ef96556dbe1f0e02b5aa","64db856a31660480e1ac2256","","","","","","","","","","","","","","","","","","","","","","","","670.9905038401906","228.9968658416002","4161.10000000149","","","","","","","","","","","","",""
"","","","","","html-keyboard-response","118","418766","0.0-13.0-1.13","5f29aed2c46fc6118f5980c3","64d3ef96556dbe1f0e02b5aa","64db856a31660480e1ac2256","","","","","","","","","","","","","","","","","","reconstruct","","","","","","670.9905038401906","228.9968658416002","4161.10000000149","","","","","","","","","","50","3","500","250"
"","","","","","html-keyboard-response","119","421909","0.0-13.0-0.14","5f29aed2c46fc6118f5980c3","64d3ef96556dbe1f0e02b5aa","64db856a31660480e1ac2256","","null","","","","","","","","","","","","","null","","","fallScene","","","","","","","","","","","","true","11.643752999999853","604.4000000000001","667.6211431702998","201.78","9","51","","",""
"","","","","","html-keyboard-response","120","426945","0.0-13.0-1.14","5f29aed2c46fc6118f5980c3","64d3ef96556dbe1f0e02b5aa","64db856a31660480e1ac2256","","","","","","","","","","","","","","","","","","","","","","","","351.0000000063331","218.01","5036.5","","","","","","","","","","","","",""
"","","","","","html-keyboard-response","120","426945","0.0-13.0-1.14","5f29aed2c46fc6118f5980c3","64d3ef96556dbe1f0e02b5aa","64db856a31660480e1ac2256","","","","","","","","","","","","","","","","","","reconstruct","","","","","","351.0000000063331","218.01","5036.5","","","","","","","","","","51","5","625","250"
"","","","","","html-keyboard-response","121","430239","0.0-13.0-0.15","5f29aed2c46fc6118f5980c3","64d3ef96556dbe1f0e02b5aa","64db856a31660480e1ac2256","","null","","","","","","","","","","","","","null","","","fallScene","","","","","","","","","","","","false","11.732864000000117","322.3","356.42114317029973","357.87","4","52","","",""
"","","","","","html-keyboard-response","122","433432","0.0-13.0-1.15","5f29aed2c46fc6118f5980c3","64d3ef96556dbe1f0e02b5aa","64db856a31660480e1ac2256","","","","","","","","","","","","","","","","","","","","","","","","392.00001499462036","192.00999998875807","3193.7000000029802","","","","","","","","","","","","",""
"","","","","","html-keyboard-response","122","433433","0.0-13.0-1.15","5f29aed2c46fc6118f5980c3","64d3ef96556dbe1f0e02b5aa","64db856a31660480e1ac2256","","","","","","","","","","","","","","","","","","reconstruct","","","","","","392.00001499462036","192.00999998875807","3193.7000000029802","","","","","","","","","","52","6","625","350"
"","","","","","html-keyboard-response","123","436612","0.0-13.0-0.16","5f29aed2c46fc6118f5980c3","64d3ef96556dbe1f0e02b5aa","64db856a31660480e1ac2256","","null","","","","","","","","","","","","","null","","","fallScene","","","","","","","","","","","","true","12.09951600000006","500","510.8711431702997","369.03","8","53","","",""
"","","","","","html-keyboard-response","124","440219","0.0-13.0-1.16","5f29aed2c46fc6118f5980c3","64d3ef96556dbe1f0e02b5aa","64db856a31660480e1ac2256","","","","","","","","","","","","","","","","","","","","","","","","442.9928835627807","237.99297459458083","3607.2000000029802","","","","","","","","","","","","",""
"","","","","","html-keyboard-response","124","440219","0.0-13.0-1.16","5f29aed2c46fc6118f5980c3","64d3ef96556dbe1f0e02b5aa","64db856a31660480e1ac2256","","","","","","","","","","","","","","","","","","reconstruct","","","","","","442.9928835627807","237.99297459458083","3607.2000000029802","","","","","","","","","","53","1","375","250"
"","","","","","html-keyboard-response","125","443502","0.0-13.0-0.17","5f29aed2c46fc6118f5980c3","64d3ef96556dbe1f0e02b5aa","64db856a31660480e1ac2256","","null","","","","","","","","","","","","","null","","","fallScene","","","","","","","","","","","","false","10.166260000000475","322.3","379.3711431702997","245.25","1","54","","",""
"","","","","","html-keyboard-response","126","446408","0.0-13.0-1.17","5f29aed2c46fc6118f5980c3","64d3ef96556dbe1f0e02b5aa","64db856a31660480e1ac2256","","","","","","","","","","","","","","","","","","","","","","","","347.00616083973733","204.00787680479198","2906.10000000149","","","","","","","","","","","","",""
"","","","","","html-keyboard-response","126","446408","0.0-13.0-1.17","5f29aed2c46fc6118f5980c3","64d3ef96556dbe1f0e02b5aa","64db856a31660480e1ac2256","","","","","","","","","","","","","","","","","","reconstruct","","","","","","347.00616083973733","204.00787680479198","2906.10000000149","","","","","","","","","","54","6","625","350"
"","","","","","html-button-response","127","448692","0.0-14.0","5f29aed2c46fc6118f5980c3","64d3ef96556dbe1f0e02b5aa","64db856a31660480e1ac2256","","2283","","","","","","","","","","","","","0","","","","<p><span style = ""font-size:40px;"">BREAK</span></p><p>You are almost done! Click 'Next' when you are ready for the next set.</p>","","","","","","","","","","","","","","","","","","","",""
"","","","","","html-keyboard-response","128","452025","0.0-15.0-0.0","5f29aed2c46fc6118f5980c3","64d3ef96556dbe1f0e02b5aa","64db856a31660480e1ac2256","","null","","","","","","","","","","","","","null","","","fallScene","","","","","","","","","","","","true","10.499579999999842","604.4000000000001","667.6211431702998","201.78","9","55","","",""
"","","","","","html-keyboard-response","129","458216","0.0-15.0-1.0","5f29aed2c46fc6118f5980c3","64d3ef96556dbe1f0e02b5aa","64db856a31660480e1ac2256","","","","","","","","","","","","","","","","","","","","","","","","389.99049350511234","402.01310389332315","6191","","","","","","","","","","","","",""
"","","","","","html-keyboard-response","129","458216","0.0-15.0-1.0","5f29aed2c46fc6118f5980c3","64d3ef96556dbe1f0e02b5aa","64db856a31660480e1ac2256","","","","","","","","","","","","","","","","","","reconstruct","","","","","","389.99049350511234","402.01310389332315","6191","","","","","","","","","","55","3","500","250"
"","","","","","html-keyboard-response","130","461685","0.0-15.0-0.1","5f29aed2c46fc6118f5980c3","64d3ef96556dbe1f0e02b5aa","64db856a31660480e1ac2256","","null","","","","","","","","","","","","","null","","","fallScene","","","","","","","","","","","","true","9.148904999999852","500","553.4711431702997","282.51","7","56","","",""
"","","","","","html-keyboard-response","131","465764","0.0-15.0-1.1","5f29aed2c46fc6118f5980c3","64d3ef96556dbe1f0e02b5aa","64db856a31660480e1ac2256","","","","","","","","","","","","","","","","","","","","","","","","484.0099993410093","233.0001148014794","4078.7999999970198","","","","","","","","","","","","",""
"","","","","","html-keyboard-response","131","465764","0.0-15.0-1.1","5f29aed2c46fc6118f5980c3","64d3ef96556dbe1f0e02b5aa","64db856a31660480e1ac2256","","","","","","","","","","","","","","","","","","reconstruct","","","","","","484.0099993410093","233.0001148014794","4078.7999999970198","","","","","","","","","","56","3","500","250"
"","","","","","html-keyboard-response","132","469235","0.0-15.0-0.2","5f29aed2c46fc6118f5980c3","64d3ef96556dbe1f0e02b5aa","64db856a31660480e1ac2256","","null","","","","","","","","","","","","","null","","","fallScene","","","","","","","","","","","","false","9.149633999999905","500","453.67114317029973","210.33","5","57","","",""
"","","","","","html-keyboard-response","133","472562","0.0-15.0-1.2","5f29aed2c46fc6118f5980c3","64d3ef96556dbe1f0e02b5aa","64db856a31660480e1ac2256","","","","","","","","","","","","","","","","","","","","","","","","561.0002655371565","401.99000352612074","3326.7999999970198","","","","","","","","","","","","",""
"","","","","","html-keyboard-response","133","472562","0.0-15.0-1.2","5f29aed2c46fc6118f5980c3","64d3ef96556dbe1f0e02b5aa","64db856a31660480e1ac2256","","","","","","","","","","","","","","","","","","reconstruct","","","","","","561.0002655371565","401.99000352612074","3326.7999999970198","","","","","","","","","","57","3","500","250"
"","","","","","html-keyboard-response","134","477775","0.0-15.0-0.3","5f29aed2c46fc6118f5980c3","64d3ef96556dbe1f0e02b5aa","64db856a31660480e1ac2256","","null","","","","","","","","","","","","","null","","","fallScene","","","","","","","","","","","","false","9.299628000000142","322.3","379.3711431702997","245.25","1","58","","",""
"","","","","","html-keyboard-response","135","480712","0.0-15.0-1.3","5f29aed2c46fc6118f5980c3","64d3ef96556dbe1f0e02b5aa","64db856a31660480e1ac2256","","","","","","","","","","","","","","","","","","","","","","","","375.998447351587","233.0098787288102","2937.2000000029802","","","","","","","","","","","","",""
"","","","","","html-keyboard-response","135","480712","0.0-15.0-1.3","5f29aed2c46fc6118f5980c3","64d3ef96556dbe1f0e02b5aa","64db856a31660480e1ac2256","","","","","","","","","","","","","","","","","","reconstruct","","","","","","375.998447351587","233.0098787288102","2937.2000000029802","","","","","","","","","","58","5","625","250"
"","","","","","html-keyboard-response","136","484287","0.0-15.0-0.4","5f29aed2c46fc6118f5980c3","64d3ef96556dbe1f0e02b5aa","64db856a31660480e1ac2256","","null","","","","","","","","","","","","","null","","","fallScene","","","","","","","","","","","","true","11.166220000000322","604.4000000000001","650.0211431702996","404.58000000000004","11","59","","",""
"","","","","","html-keyboard-response","137","487417","0.0-15.0-1.4","5f29aed2c46fc6118f5980c3","64d3ef96556dbe1f0e02b5aa","64db856a31660480e1ac2256","","","","","","","","","","","","","","","","","","","","","","","","360.0099999909406","234.99998653940278","3129.3000000044703","","","","","","","","","","","","",""
"","","","","","html-keyboard-response","137","487417","0.0-15.0-1.4","5f29aed2c46fc6118f5980c3","64d3ef96556dbe1f0e02b5aa","64db856a31660480e1ac2256","","","","","","","","","","","","","","","","","","reconstruct","","","","","","360.0099999909406","234.99998653940278","3129.3000000044703","","","","","","","","","","59","2","375","350"
"","","","","","html-keyboard-response","138","490738","0.0-15.0-0.5","5f29aed2c46fc6118f5980c3","64d3ef96556dbe1f0e02b5aa","64db856a31660480e1ac2256","","null","","","","","","","","","","","","","null","","","fallScene","","","","","","","","","","","","true","9.449621999999858","322.3","308.07114317029976","253.89","2","60","","",""
"","","","","","html-keyboard-response","139","493966","0.0-15.0-1.5","5f29aed2c46fc6118f5980c3","64d3ef96556dbe1f0e02b5aa","64db856a31660480e1ac2256","","","","","","","","","","","","","","","","","","","","","","","","728.0079697554439","226.00604011574094","3228","","","","","","","","","","","","",""
"","","","","","html-keyboard-response","139","493966","0.0-15.0-1.5","5f29aed2c46fc6118f5980c3","64d3ef96556dbe1f0e02b5aa","64db856a31660480e1ac2256","","","","","","","","","","","","","","","","","","reconstruct","","","","","","728.0079697554439","226.00604011574094","3228","","","","","","","","","","60","3","500","250"
"","","","","","html-keyboard-response","140","497568","0.0-15.0-0.6","5f29aed2c46fc6118f5980c3","64d3ef96556dbe1f0e02b5aa","64db856a31660480e1ac2256","","null","","","","","","","","","","","","","null","","","fallScene","","","","","","","","","","","","true","9.299628000000142","322.3","296.07114317029976","371.46","3","61","","",""
"","","","","","html-keyboard-response","141","500389","0.0-15.0-1.6","5f29aed2c46fc6118f5980c3","64d3ef96556dbe1f0e02b5aa","64db856a31660480e1ac2256","","","","","","","","","","","","","","","","","","","","","","","","710.0045080109488","318.991073755701","2821.2999999970198","","","","","","","","","","","","",""
"","","","","","html-keyboard-response","141","500389","0.0-15.0-1.6","5f29aed2c46fc6118f5980c3","64d3ef96556dbe1f0e02b5aa","64db856a31660480e1ac2256","","","","","","","","","","","","","","","","","","reconstruct","","","","","","710.0045080109488","318.991073755701","2821.2999999970198","","","","","","","","","","61","3","500","250"
"","","","","","html-keyboard-response","142","508045","0.0-15.0-0.7","5f29aed2c46fc6118f5980c3","64d3ef96556dbe1f0e02b5aa","64db856a31660480e1ac2256","","null","","","","","","","","","","","","","null","","","fallScene","","","","","","","","","","","","true","9.599615999999573","322.3","356.42114317029973","357.87","4","62","","",""
"","","","","","html-keyboard-response","143","511007","0.0-15.0-1.7","5f29aed2c46fc6118f5980c3","64d3ef96556dbe1f0e02b5aa","64db856a31660480e1ac2256","","","","","","","","","","","","","","","","","","","","","","","","662.990000754618","245.99987715134756","2961.39999999851","","","","","","","","","","","","",""
"","","","","","html-keyboard-response","143","511007","0.0-15.0-1.7","5f29aed2c46fc6118f5980c3","64d3ef96556dbe1f0e02b5aa","64db856a31660480e1ac2256","","","","","","","","","","","","","","","","","","reconstruct","","","","","","662.990000754618","245.99987715134756","2961.39999999851","","","","","","","","","","62","5","625","250"
"","","","","","html-keyboard-response","144","514692","0.0-15.0-0.8","5f29aed2c46fc6118f5980c3","64d3ef96556dbe1f0e02b5aa","64db856a31660480e1ac2256","","null","","","","","","","","","","","","","null","","","fallScene","","","","","","","","","","","","false","8.266336000000127","500","553.4711431702997","282.51","7","63","","",""
"","","","","","html-keyboard-response","145","517682","0.0-15.0-1.8","5f29aed2c46fc6118f5980c3","64d3ef96556dbe1f0e02b5aa","64db856a31660480e1ac2256","","","","","","","","","","","","","","","","","","","","","","","","467.99105466833106","221.004470015809","2990.3000000044703","","","","","","","","","","","","",""
"","","","","","html-keyboard-response","145","517682","0.0-15.0-1.8","5f29aed2c46fc6118f5980c3","64d3ef96556dbe1f0e02b5aa","64db856a31660480e1ac2256","","","","","","","","","","","","","","","","","","reconstruct","","","","","","467.99105466833106","221.004470015809","2990.3000000044703","","","","","","","","","","63","1","375","250"
"","","","","","html-keyboard-response","146","521132","0.0-15.0-0.9","5f29aed2c46fc6118f5980c3","64d3ef96556dbe1f0e02b5aa","64db856a31660480e1ac2256","","null","","","","","","","","","","","","","null","","","fallScene","","","","","","","","","","","","false","8.266336000000127","604.4000000000001","575.4211431702997","266.76","12","64","","",""
"","","","","","html-keyboard-response","147","526548","0.0-15.0-1.9","5f29aed2c46fc6118f5980c3","64d3ef96556dbe1f0e02b5aa","64db856a31660480e1ac2256","","","","","","","","","","","","","","","","","","","","","","","","661.9999556921153","225.00999990184008","5416.4000000059605","","","","","","","","","","","","",""
"","","","","","html-keyboard-response","147","526548","0.0-15.0-1.9","5f29aed2c46fc6118f5980c3","64d3ef96556dbe1f0e02b5aa","64db856a31660480e1ac2256","","","","","","","","","","","","","","","","","","reconstruct","","","","","","661.9999556921153","225.00999990184008","5416.4000000059605","","","","","","","","","","64","3","500","250"
"","","","","","html-keyboard-response","148","529824","0.0-15.0-0.10","5f29aed2c46fc6118f5980c3","64d3ef96556dbe1f0e02b5aa","64db856a31660480e1ac2256","","null","","","","","","","","","","","","","null","","","fallScene","","","","","","","","","","","","true","8.13300800000038","322.3","379.3711431702997","245.25","1","65","","",""
"","","","","","html-keyboard-response","149","532578","0.0-15.0-1.10","5f29aed2c46fc6118f5980c3","64d3ef96556dbe1f0e02b5aa","64db856a31660480e1ac2256","","","","","","","","","","","","","","","","","","","","","","","","659.0016359691033","241.00986527268213","2754.10000000149","","","","","","","","","","","","",""
"","","","","","html-keyboard-response","149","532578","0.0-15.0-1.10","5f29aed2c46fc6118f5980c3","64d3ef96556dbe1f0e02b5aa","64db856a31660480e1ac2256","","","","","","","","","","","","","","","","","","reconstruct","","","","","","659.0016359691033","241.00986527268213","2754.10000000149","","","","","","","","","","65","2","375","350"
"","","","","","html-keyboard-response","150","539238","0.0-15.0-0.11","5f29aed2c46fc6118f5980c3","64d3ef96556dbe1f0e02b5aa","64db856a31660480e1ac2256","","null","","","","","","","","","","","","","null","","","fallScene","","","","","","","","","","","","false","8.53299199999962","322.3","379.3711431702997","245.25","1","66","","",""
"","","","","","html-keyboard-response","151","542364","0.0-15.0-1.11","5f29aed2c46fc6118f5980c3","64d3ef96556dbe1f0e02b5aa","64db856a31660480e1ac2256","","","","","","","","","","","","","","","","","","","","","","","","372.0099999229377","226.9999607413758","3125.7000000029802","","","","","","","","","","","","",""
"","","","","","html-keyboard-response","151","542364","0.0-15.0-1.11","5f29aed2c46fc6118f5980c3","64d3ef96556dbe1f0e02b5aa","64db856a31660480e1ac2256","","","","","","","","","","","","","","","","","","reconstruct","","","","","","372.0099999229377","226.9999607413758","3125.7000000029802","","","","","","","","","","66","4","500","350"
"","","","","","html-keyboard-response","152","545635","0.0-15.0-0.12","5f29aed2c46fc6118f5980c3","64d3ef96556dbe1f0e02b5aa","64db856a31660480e1ac2256","","null","","","","","","","","","","","","","null","","","fallScene","","","","","","","","","","","","false","8.133007999999448","500","479.92114317029973","330.87","6","67","","",""
"","","","","","html-keyboard-response","153","548524","0.0-15.0-1.12","5f29aed2c46fc6118f5980c3","64d3ef96556dbe1f0e02b5aa","64db856a31660480e1ac2256","","","","","","","","","","","","","","","","","","","","","","","","530.9916440928517","233.00549352489114","2888.6999999955297","","","","","","","","","","","","",""
"","","","","","html-keyboard-response","153","548524","0.0-15.0-1.12","5f29aed2c46fc6118f5980c3","64d3ef96556dbe1f0e02b5aa","64db856a31660480e1ac2256","","","","","","","","","","","","","","","","","","reconstruct","","","","","","530.9916440928517","233.00549352489114","2888.6999999955297","","","","","","","","","","67","3","500","250"
"","","","","","html-keyboard-response","154","551912","0.0-15.0-0.13","5f29aed2c46fc6118f5980c3","64d3ef96556dbe1f0e02b5aa","64db856a31660480e1ac2256","","null","","","","","","","","","","","","","null","","","fallScene","","","","","","","","","","","","true","8.13300800000038","500","453.67114317029973","210.33","5","68","","",""
"","","","","","html-keyboard-response","155","555099","0.0-15.0-1.13","5f29aed2c46fc6118f5980c3","64d3ef96556dbe1f0e02b5aa","64db856a31660480e1ac2256","","","","","","","","","","","","","","","","","","","","","","","","533.0097604996986","235.0021754644639","3186.39999999851","","","","","","","","","","","","",""
"","","","","","html-keyboard-response","155","555099","0.0-15.0-1.13","5f29aed2c46fc6118f5980c3","64d3ef96556dbe1f0e02b5aa","64db856a31660480e1ac2256","","","","","","","","","","","","","","","","","","reconstruct","","","","","","533.0097604996986","235.0021754644639","3186.39999999851","","","","","","","","","","68","1","375","250"
"","","","","","html-keyboard-response","156","558440","0.0-15.0-0.14","5f29aed2c46fc6118f5980c3","64d3ef96556dbe1f0e02b5aa","64db856a31660480e1ac2256","","null","","","","","","","","","","","","","null","","","fallScene","","","","","","","","","","","","true","8.266336000000127","604.4000000000001","596.8711431702998","394.5","10","69","","",""
"","","","","","html-keyboard-response","157","561569","0.0-15.0-1.14","5f29aed2c46fc6118f5980c3","64d3ef96556dbe1f0e02b5aa","64db856a31660480e1ac2256","","","","","","","","","","","","","","","","","","","","","","","","392.00999990293184","244.99995593920934","3129.60000000149","","","","","","","","","","","","",""
"","","","","","html-keyboard-response","157","561569","0.0-15.0-1.14","5f29aed2c46fc6118f5980c3","64d3ef96556dbe1f0e02b5aa","64db856a31660480e1ac2256","","","","","","","","","","","","","","","","","","reconstruct","","","","","","392.00999990293184","244.99995593920934","3129.60000000149","","","","","","","","","","69","1","375","250"
"","","","","","html-keyboard-response","158","572442","0.0-15.0-0.15","5f29aed2c46fc6118f5980c3","64d3ef96556dbe1f0e02b5aa","64db856a31660480e1ac2256","","null","","","","","","","","","","","","","null","","","fallScene","","","","","","","","","","","","false","8.399663999999873","322.3","379.3711431702997","245.25","1","70","","",""
"","","","","","html-keyboard-response","159","577528","0.0-15.0-1.15","5f29aed2c46fc6118f5980c3","64d3ef96556dbe1f0e02b5aa","64db856a31660480e1ac2256","","","","","","","","","","","","","","","","","","","","","","","","407.0012748267789","296.99726036564476","5085.29999999702","","","","","","","","","","","","",""
"","","","","","html-keyboard-response","159","577528","0.0-15.0-1.15","5f29aed2c46fc6118f5980c3","64d3ef96556dbe1f0e02b5aa","64db856a31660480e1ac2256","","","","","","","","","","","","","","","","","","reconstruct","","","","","","407.0012748267789","296.99726036564476","5085.29999999702","","","","","","","","","","70","1","375","250"
"","","","","","html-keyboard-response","160","581587","0.0-15.0-0.16","5f29aed2c46fc6118f5980c3","64d3ef96556dbe1f0e02b5aa","64db856a31660480e1ac2256","","null","","","","","","","","","","","","","null","","","fallScene","","","","","","","","","","","","false","8.799648000000044","322.3","296.07114317029976","371.46","3","71","","",""
"","","","","","html-keyboard-response","161","585408","0.0-15.0-1.16","5f29aed2c46fc6118f5980c3","64d3ef96556dbe1f0e02b5aa","64db856a31660480e1ac2256","","","","","","","","","","","","","","","","","","","","","","","","349.9900000754372","347.00003884247576","3820.89999999851","","","","","","","","","","","","",""
"","","","","","html-keyboard-response","161","585408","0.0-15.0-1.16","5f29aed2c46fc6118f5980c3","64d3ef96556dbe1f0e02b5aa","64db856a31660480e1ac2256","","","","","","","","","","","","","","","","","","reconstruct","","","","","","349.9900000754372","347.00003884247576","3820.89999999851","","","","","","","","","","71","5","625","250"
"","","","","","html-keyboard-response","162","588923","0.0-15.0-0.17","5f29aed2c46fc6118f5980c3","64d3ef96556dbe1f0e02b5aa","64db856a31660480e1ac2256","","null","","","","","","","","","","","","","null","","","fallScene","","","","","","","","","","","","true","8.932975999999792","604.4000000000001","667.6211431702998","201.78","9","72","","",""
"","","","","","html-keyboard-response","163","591965","0.0-15.0-1.17","5f29aed2c46fc6118f5980c3","64d3ef96556dbe1f0e02b5aa","64db856a31660480e1ac2256","","","","","","","","","","","","","","","","","","","","","","","","374.0099999877011","238.99998431632517","3041.6999999955297","","","","","","","","","","","","",""
"","","","","","html-keyboard-response","163","591965","0.0-15.0-1.17","5f29aed2c46fc6118f5980c3","64d3ef96556dbe1f0e02b5aa","64db856a31660480e1ac2256","","","","","","","","","","","","","","","","","","reconstruct","","","","","","374.0099999877011","238.99998431632517","3041.6999999955297","","","","","","","","","","72","4","500","350"
"","","","","","survey-text","164","606998","0.0-16.0","5f29aed2c46fc6118f5980c3","64d3ef96556dbe1f0e02b5aa","64db856a31660480e1ac2256","","15031","","","","","","","","","","","","","{""Summary"":""Determing where a ball hits a hidden triangle. ""}","","","","","","","","","","","","","","","","","","","","","","","",""
"","","","","","survey-text","165","622267","0.0-17.0","5f29aed2c46fc6118f5980c3","64d3ef96556dbe1f0e02b5aa","64db856a31660480e1ac2256","","15267","","","","","","","","","","","","","{""Comments"":""There were some times when the ball didn't exit the gray screen.""}","","","","","","","","","","","","","","","","","","","","","","","",""
