"success","timeout","failed_images","failed_audio","failed_video","trial_type","trial_index","time_elapsed","internal_node_id","subject_id","study_id","session_id","view_history","rt","width","height","webaudio","browser","browser_version","mobile","os","fullscreen","vsync_rate","webcam","microphone","url","response","triangle_prac_final_x","triangle_prac_final_y","trial_name","stimulus","ball_X_prac_occ","ball_Y_prac_occ","obstacle_X_prac_occ","obstacle_Y_prac_occ","triangle_final_x","triangle_final_y","response_time","obstacle_X_prac_occ_init","obstacle_Y_prac_occ_init","question_order","flipped","runnerFPS","ball_X","obstacle_groundTruth_x","obstacle_groundTruth_y","stimulus_idx","currentTrial","obstacle_idx","obstacle_initial_x","obstacle_initial_y"
"true","false","[]","[]","[]","preload","0","236","0.0-0.0","607ec28e6a0bde56a9d69ddc","64d3ef96556dbe1f0e02b5aa","64d68e434c9d4e5b1ba4ec5b","","","","","","","","","","","","","","","","","","","","","","","","","","","","","","","","","","","","","","",""
"","","","","","instructions","1","34902","0.0-1.0","607ec28e6a0bde56a9d69ddc","64d3ef96556dbe1f0e02b5aa","64d68e434c9d4e5b1ba4ec5b","[{""page_index"":0,""viewing_time"":34665}]","34665","","","","","","","","","","","","","","","","","","","","","","","","","","","","","","","","","","","","",""
"","","","","","browser-check","2","36854","0.0-2.0","607ec28e6a0bde56a9d69ddc","64d3ef96556dbe1f0e02b5aa","64d68e434c9d4e5b1ba4ec5b","","","1745","846","true","chrome","115.0.0","false","Windows 10","true","30.82","false","false","","","","","","","","","","","","","","","","","","","","","","","","","",""
"","","","","","external-html","3","70052","0.0-3.0","607ec28e6a0bde56a9d69ddc","64d3ef96556dbe1f0e02b5aa","64d68e434c9d4e5b1ba4ec5b","","33105","","","","","","","","","","","","consent.html","","","","","","","","","","","","","","","","","","","","","","","","",""
"true","","","","","fullscreen","4","86118","0.0-4.0","607ec28e6a0bde56a9d69ddc","64d3ef96556dbe1f0e02b5aa","64d68e434c9d4e5b1ba4ec5b","","15562","","","","","","","","","","","","","","","","","","","","","","","","","","","","","","","","","","","","",""
"","","","","","survey-text","5","91681","0.0-5.0","607ec28e6a0bde56a9d69ddc","64d3ef96556dbe1f0e02b5aa","64d68e434c9d4e5b1ba4ec5b","","5558","","","","","","","","","","","","","{""prolificID"":""607ec28e6a0bde56a9d69ddc""}","","","","","","","","","","","","","","","","","","","","","","","",""
"","","","","","browser-check","6","93645","0.0-6.0","607ec28e6a0bde56a9d69ddc","64d3ef96556dbe1f0e02b5aa","64d68e434c9d4e5b1ba4ec5b","","","1745","982","true","chrome","115.0.0","false","Windows 10","true","30.6","false","false","","","","","","","","","","","","","","","","","","","","","","","","","",""
"","","","","","instructions","7","207450","0.0-7.0-0.0-0.0","607ec28e6a0bde56a9d69ddc","64d3ef96556dbe1f0e02b5aa","64d68e434c9d4e5b1ba4ec5b","[{""page_index"":0,""viewing_time"":37058},{""page_index"":1,""viewing_time"":24889},{""page_index"":2,""viewing_time"":31397},{""page_index"":3,""viewing_time"":20461}]","113805","","","","","","","","","","","","","","","","","","","","","","","","","","","","","","","","","","","","",""
"","","","","","html-keyboard-response","8","250222","0.0-7.0-0.0-1.0","607ec28e6a0bde56a9d69ddc","64d3ef96556dbe1f0e02b5aa","64d68e434c9d4e5b1ba4ec5b","","","","","","","","","","","","","","","","608.9907889986398","517.9961067425025","","","","","","","","","","","","","","","","","","","","","",""
"","","","","","html-keyboard-response","8","250222","0.0-7.0-0.0-1.0","607ec28e6a0bde56a9d69ddc","64d3ef96556dbe1f0e02b5aa","64d68e434c9d4e5b1ba4ec5b","","","","","","","","","","","","","","","","","","practiceTrial_move","","","","","","","","","","","","","","","","","","","","",""
"","","","","","html-button-response","9","266718","0.0-7.0-0.0-2.0","607ec28e6a0bde56a9d69ddc","64d3ef96556dbe1f0e02b5aa","64d68e434c9d4e5b1ba4ec5b","","16494","","","","","","","","","","","","","0","","","","<p>To help you get more comfortable with the task, let's begin with a practice trial first!</p><p>As described previously, you will first see a video of a ball falling, some of it behind a gray screen.</p><p>After the video, you will drag a triangle to the spot you think the ball hit the triangle behind the screen.</p><p>Click 'Next' to start your practice trial.</p>","","","","","","","","","","","","","","","","","","","",""
"","","","","","html-keyboard-response","10","269730","0.0-7.0-0.0-3.0","607ec28e6a0bde56a9d69ddc","64d3ef96556dbe1f0e02b5aa","64d68e434c9d4e5b1ba4ec5b","","null","","","","","","","","","","","","","null","","","fallScene_practiceTrial_withOccluder","","400","50","420","415","","","","","","","","","","","","","","","",""
"","","","","","html-keyboard-response","11","275121","0.0-7.0-0.0-4.0","607ec28e6a0bde56a9d69ddc","64d3ef96556dbe1f0e02b5aa","64d68e434c9d4e5b1ba4ec5b","","","","","","","","","","","","","","","","","","","","","","","","413.00999975591037","411.00006986939945","5389.899999976158","","","","","","","","","","","","",""
"","","","","","html-keyboard-response","11","275121","0.0-7.0-0.0-4.0","607ec28e6a0bde56a9d69ddc","64d3ef96556dbe1f0e02b5aa","64d68e434c9d4e5b1ba4ec5b","","","","","","","","","","","","","","","","","","reconstruct_practiceTrial_withOccluder","","","","","","413.00999975591037","411.00006986939945","5389.899999976158","500","300","","","","","","","","","","",""
"","","","","","html-button-response","12","285946","0.0-7.0-0.0-5.0","607ec28e6a0bde56a9d69ddc","64d3ef96556dbe1f0e02b5aa","64d68e434c9d4e5b1ba4ec5b","","10822","","","","","","","","","","","","","1","","","","<p>Ok! We're almost ready to get started.</p><p>We just have a <b>brief quiz</b>, to make sure you understood the task.</p><p>If you need to review the instructions, click 'Previous'.</p><p>It's important to understand the task to do the study, so you have to pass the quiz to move to the study.</p>","","","","","","","","","","","","","","","","","","","",""
"","","","","","survey-multi-choice","13","305297","0.0-7.0-1.0-0.0","607ec28e6a0bde56a9d69ddc","64d3ef96556dbe1f0e02b5aa","64d68e434c9d4e5b1ba4ec5b","","19350","","","","","","","","","","","","","{""generalProcedure"":""Watch a video of a ball falling, some of it behind a gray screen. After each video, drag a triangle to where I think the ball hit the triangle behind the screen.""}","","","","","","","","","","","","","","[0]","","","","","","","","","",""
"","","","","","survey-multi-choice","14","313380","0.0-7.0-1.0-1.0","607ec28e6a0bde56a9d69ddc","64d3ef96556dbe1f0e02b5aa","64d68e434c9d4e5b1ba4ec5b","","8080","","","","","","","","","","","","","{""checkBallHitObstacle"":""Yes.""}","","","","","","","","","","","","","","[0]","","","","","","","","","",""
"","","","","","survey-multi-choice","15","320015","0.0-7.0-1.0-2.0","607ec28e6a0bde56a9d69ddc","64d3ef96556dbe1f0e02b5aa","64d68e434c9d4e5b1ba4ec5b","","6632","","","","","","","","","","","","","{""checkTriangleVisibility"":""No, the triangle is hidden behind the gray screen.""}","","","","","","","","","","","","","","[0]","","","","","","","","","",""
"","","","","","instructions","16","339998","0.0-8.0","607ec28e6a0bde56a9d69ddc","64d3ef96556dbe1f0e02b5aa","64d68e434c9d4e5b1ba4ec5b","[{""page_index"":0,""viewing_time"":19979}]","19979","","","","","","","","","","","","","","","","","","","","","","","","","","","","","","","","","","","","",""
"","","","","","html-keyboard-response","17","343006","0.0-9.0-0.0","607ec28e6a0bde56a9d69ddc","64d3ef96556dbe1f0e02b5aa","64d68e434c9d4e5b1ba4ec5b","","null","","","","","","","","","","","","","null","","","fallScene","","","","","","","","","","","","false","31.69536099999945","604.4000000000001","650.0211431702996","404.58000000000004","11","1","","",""
"","","","","","html-keyboard-response","18","347110","0.0-9.0-1.0","607ec28e6a0bde56a9d69ddc","64d3ef96556dbe1f0e02b5aa","64d68e434c9d4e5b1ba4ec5b","","","","","","","","","","","","","","","","","","","","","","","","652.0000999896104","420.0099995000914","4103.0999999940395","","","","","","","","","","","","",""
"","","","","","html-keyboard-response","18","347110","0.0-9.0-1.0","607ec28e6a0bde56a9d69ddc","64d3ef96556dbe1f0e02b5aa","64d68e434c9d4e5b1ba4ec5b","","","","","","","","","","","","","","","","","","reconstruct","","","","","","652.0000999896104","420.0099995000914","4103.0999999940395","","","","","","","","","","1","4","500","350"
"","","","","","html-keyboard-response","19","350116","0.0-9.0-0.1","607ec28e6a0bde56a9d69ddc","64d3ef96556dbe1f0e02b5aa","64d68e434c9d4e5b1ba4ec5b","","null","","","","","","","","","","","","","null","","","fallScene","","","","","","","","","","","","true","31.359537999999944","500","479.92114317029973","330.87","6","2","","",""
"","","","","","html-keyboard-response","20","354324","0.0-9.0-1.1","607ec28e6a0bde56a9d69ddc","64d3ef96556dbe1f0e02b5aa","64d68e434c9d4e5b1ba4ec5b","","","","","","","","","","","","","","","","","","","","","","","","388.0099874812351","399.0005002185312","4207.699999988079","","","","","","","","","","","","",""
"","","","","","html-keyboard-response","20","354324","0.0-9.0-1.1","607ec28e6a0bde56a9d69ddc","64d3ef96556dbe1f0e02b5aa","64d68e434c9d4e5b1ba4ec5b","","","","","","","","","","","","","","","","","","reconstruct","","","","","","388.0099874812351","399.0005002185312","4207.699999988079","","","","","","","","","","2","6","625","350"
"","","","","","html-keyboard-response","21","357337","0.0-9.0-0.2","607ec28e6a0bde56a9d69ddc","64d3ef96556dbe1f0e02b5aa","64d68e434c9d4e5b1ba4ec5b","","null","","","","","","","","","","","","","null","","","fallScene","","","","","","","","","","","","false","31.262570000000935","322.3","379.3711431702997","245.25","1","3","","",""
"","","","","","html-keyboard-response","22","362768","0.0-9.0-1.2","607ec28e6a0bde56a9d69ddc","64d3ef96556dbe1f0e02b5aa","64d68e434c9d4e5b1ba4ec5b","","","","","","","","","","","","","","","","","","","","","","","","351.01","327.99999999929986","5430.0999999940395","","","","","","","","","","","","",""
"","","","","","html-keyboard-response","22","362768","0.0-9.0-1.2","607ec28e6a0bde56a9d69ddc","64d3ef96556dbe1f0e02b5aa","64d68e434c9d4e5b1ba4ec5b","","","","","","","","","","","","","","","","","","reconstruct","","","","","","351.01","327.99999999929986","5430.0999999940395","","","","","","","","","","3","6","625","350"
"","","","","","html-keyboard-response","23","365771","0.0-9.0-0.3","607ec28e6a0bde56a9d69ddc","64d3ef96556dbe1f0e02b5aa","64d68e434c9d4e5b1ba4ec5b","","null","","","","","","","","","","","","","null","","","fallScene","","","","","","","","","","","","false","31.280363999999828","322.3","296.07114317029976","371.46","3","4","","",""
"","","","","","html-keyboard-response","24","370568","0.0-9.0-1.3","607ec28e6a0bde56a9d69ddc","64d3ef96556dbe1f0e02b5aa","64d68e434c9d4e5b1ba4ec5b","","","","","","","","","","","","","","","","","","","","","","","","305.99075311925776","411.0038072557753","4796.4000000059605","","","","","","","","","","","","",""
"","","","","","html-keyboard-response","24","370568","0.0-9.0-1.3","607ec28e6a0bde56a9d69ddc","64d3ef96556dbe1f0e02b5aa","64d68e434c9d4e5b1ba4ec5b","","","","","","","","","","","","","","","","","","reconstruct","","","","","","305.99075311925776","411.0038072557753","4796.4000000059605","","","","","","","","","","4","1","375","250"
"","","","","","html-keyboard-response","25","373573","0.0-9.0-0.4","607ec28e6a0bde56a9d69ddc","64d3ef96556dbe1f0e02b5aa","64d68e434c9d4e5b1ba4ec5b","","null","","","","","","","","","","","","","null","","","fallScene","","","","","","","","","","","","true","31.170779000000618","322.3","379.3711431702997","245.25","1","5","","",""
"","","","","","html-keyboard-response","26","379219","0.0-9.0-1.4","607ec28e6a0bde56a9d69ddc","64d3ef96556dbe1f0e02b5aa","64d68e434c9d4e5b1ba4ec5b","","","","","","","","","","","","","","","","","","","","","","","","648.0077179349086","320.0063587326369","5645.0999999940395","","","","","","","","","","","","",""
"","","","","","html-keyboard-response","26","379219","0.0-9.0-1.4","607ec28e6a0bde56a9d69ddc","64d3ef96556dbe1f0e02b5aa","64d68e434c9d4e5b1ba4ec5b","","","","","","","","","","","","","","","","","","reconstruct","","","","","","648.0077179349086","320.0063587326369","5645.0999999940395","","","","","","","","","","5","4","500","350"
"","","","","","html-keyboard-response","27","382225","0.0-9.0-0.5","607ec28e6a0bde56a9d69ddc","64d3ef96556dbe1f0e02b5aa","64d68e434c9d4e5b1ba4ec5b","","null","","","","","","","","","","","","","null","","","fallScene","","","","","","","","","","","","false","31.217124000000474","500","553.4711431702997","282.51","7","6","","",""
"","","","","","html-keyboard-response","28","387783","0.0-9.0-1.5","607ec28e6a0bde56a9d69ddc","64d3ef96556dbe1f0e02b5aa","64d68e434c9d4e5b1ba4ec5b","","","","","","","","","","","","","","","","","","","","","","","","440.0099998294765","364.0000583989771","5557.300000011921","","","","","","","","","","","","",""
"","","","","","html-keyboard-response","28","387784","0.0-9.0-1.5","607ec28e6a0bde56a9d69ddc","64d3ef96556dbe1f0e02b5aa","64d68e434c9d4e5b1ba4ec5b","","","","","","","","","","","","","","","","","","reconstruct","","","","","","440.0099998294765","364.0000583989771","5557.300000011921","","","","","","","","","","6","1","375","250"
"","","","","","html-keyboard-response","29","390788","0.0-9.0-0.6","607ec28e6a0bde56a9d69ddc","64d3ef96556dbe1f0e02b5aa","64d68e434c9d4e5b1ba4ec5b","","null","","","","","","","","","","","","","null","","","fallScene","","","","","","","","","","","","true","31.66470200000121","604.4000000000001","575.4211431702997","266.76","12","7","","",""
"","","","","","html-keyboard-response","30","396251","0.0-9.0-1.6","607ec28e6a0bde56a9d69ddc","64d3ef96556dbe1f0e02b5aa","64d68e434c9d4e5b1ba4ec5b","","","","","","","","","","","","","","","","","","","","","","","","390.9999000086069","381.99000049992645","5462","","","","","","","","","","","","",""
"","","","","","html-keyboard-response","30","396251","0.0-9.0-1.6","607ec28e6a0bde56a9d69ddc","64d3ef96556dbe1f0e02b5aa","64d68e434c9d4e5b1ba4ec5b","","","","","","","","","","","","","","","","","","reconstruct","","","","","","390.9999000086069","381.99000049992645","5462","","","","","","","","","","7","2","375","350"
"","","","","","html-keyboard-response","31","399258","0.0-9.0-0.7","607ec28e6a0bde56a9d69ddc","64d3ef96556dbe1f0e02b5aa","64d68e434c9d4e5b1ba4ec5b","","null","","","","","","","","","","","","","null","","","fallScene","","","","","","","","","","","","false","31.71228700000042","604.4000000000001","650.0211431702996","404.58000000000004","11","8","","",""
"","","","","","html-keyboard-response","32","404137","0.0-9.0-1.7","607ec28e6a0bde56a9d69ddc","64d3ef96556dbe1f0e02b5aa","64d68e434c9d4e5b1ba4ec5b","","","","","","","","","","","","","","","","","","","","","","","","637.990000142338","389.99994664515725","4878.700000017881","","","","","","","","","","","","",""
"","","","","","html-keyboard-response","32","404137","0.0-9.0-1.7","607ec28e6a0bde56a9d69ddc","64d3ef96556dbe1f0e02b5aa","64d68e434c9d4e5b1ba4ec5b","","","","","","","","","","","","","","","","","","reconstruct","","","","","","637.990000142338","389.99994664515725","4878.700000017881","","","","","","","","","","8","3","500","250"
"","","","","","html-keyboard-response","33","407147","0.0-9.0-0.8","607ec28e6a0bde56a9d69ddc","64d3ef96556dbe1f0e02b5aa","64d68e434c9d4e5b1ba4ec5b","","null","","","","","","","","","","","","","null","","","fallScene","","","","","","","","","","","","true","31.164920000000212","500","479.92114317029973","330.87","6","9","","",""
"","","","","","html-keyboard-response","34","411971","0.0-9.0-1.8","607ec28e6a0bde56a9d69ddc","64d3ef96556dbe1f0e02b5aa","64d68e434c9d4e5b1ba4ec5b","","","","","","","","","","","","","","","","","","","","","","","","422.99000000000996","366.99999955405826","4822.5999999940395","","","","","","","","","","","","",""
"","","","","","html-keyboard-response","34","411971","0.0-9.0-1.8","607ec28e6a0bde56a9d69ddc","64d3ef96556dbe1f0e02b5aa","64d68e434c9d4e5b1ba4ec5b","","","","","","","","","","","","","","","","","","reconstruct","","","","","","422.99000000000996","366.99999955405826","4822.5999999940395","","","","","","","","","","9","2","375","350"
"","","","","","html-keyboard-response","35","414989","0.0-9.0-0.9","607ec28e6a0bde56a9d69ddc","64d3ef96556dbe1f0e02b5aa","64d68e434c9d4e5b1ba4ec5b","","null","","","","","","","","","","","","","null","","","fallScene","","","","","","","","","","","","false","31.199299000000117","322.3","308.07114317029976","253.89","2","10","","",""
"","","","","","html-keyboard-response","36","421182","0.0-9.0-1.9","607ec28e6a0bde56a9d69ddc","64d3ef96556dbe1f0e02b5aa","64d68e434c9d4e5b1ba4ec5b","","","","","","","","","","","","","","","","","","","","","","","","404.0000000098025","342.01","6192","","","","","","","","","","","","",""
"","","","","","html-keyboard-response","36","421182","0.0-9.0-1.9","607ec28e6a0bde56a9d69ddc","64d3ef96556dbe1f0e02b5aa","64d68e434c9d4e5b1ba4ec5b","","","","","","","","","","","","","","","","","","reconstruct","","","","","","404.0000000098025","342.01","6192","","","","","","","","","","10","5","625","250"
"","","","","","html-keyboard-response","37","424197","0.0-9.0-0.10","607ec28e6a0bde56a9d69ddc","64d3ef96556dbe1f0e02b5aa","64d68e434c9d4e5b1ba4ec5b","","null","","","","","","","","","","","","","null","","","fallScene","","","","","","","","","","","","false","31.137609000000403","604.4000000000001","596.8711431702998","394.5","10","11","","",""
"","","","","","html-keyboard-response","38","428143","0.0-9.0-1.10","607ec28e6a0bde56a9d69ddc","64d3ef96556dbe1f0e02b5aa","64d68e434c9d4e5b1ba4ec5b","","","","","","","","","","","","","","","","","","","","","","","","636.0056000369124","344.0082849011207","3945.2999999821186","","","","","","","","","","","","",""
"","","","","","html-keyboard-response","38","428143","0.0-9.0-1.10","607ec28e6a0bde56a9d69ddc","64d3ef96556dbe1f0e02b5aa","64d68e434c9d4e5b1ba4ec5b","","","","","","","","","","","","","","","","","","reconstruct","","","","","","636.0056000369124","344.0082849011207","3945.2999999821186","","","","","","","","","","11","3","500","250"
"","","","","","html-keyboard-response","39","431148","0.0-9.0-0.11","607ec28e6a0bde56a9d69ddc","64d3ef96556dbe1f0e02b5aa","64d68e434c9d4e5b1ba4ec5b","","null","","","","","","","","","","","","","null","","","fallScene","","","","","","","","","","","","false","31.188448999999036","322.3","296.07114317029976","371.46","3","12","","",""
"","","","","","html-keyboard-response","40","435174","0.0-9.0-1.11","607ec28e6a0bde56a9d69ddc","64d3ef96556dbe1f0e02b5aa","64d68e434c9d4e5b1ba4ec5b","","","","","","","","","","","","","","","","","","","","","","","","301.9938964616136","415.0079212889838","4025.2000000178814","","","","","","","","","","","","",""
"","","","","","html-keyboard-response","40","435174","0.0-9.0-1.11","607ec28e6a0bde56a9d69ddc","64d3ef96556dbe1f0e02b5aa","64d68e434c9d4e5b1ba4ec5b","","","","","","","","","","","","","","","","","","reconstruct","","","","","","301.9938964616136","415.0079212889838","4025.2000000178814","","","","","","","","","","12","2","375","350"
"","","","","","html-keyboard-response","41","438180","0.0-9.0-0.12","607ec28e6a0bde56a9d69ddc","64d3ef96556dbe1f0e02b5aa","64d68e434c9d4e5b1ba4ec5b","","null","","","","","","","","","","","","","null","","","fallScene","","","","","","","","","","","","true","31.206335999998725","604.4000000000001","667.6211431702998","201.78","9","13","","",""
"","","","","","html-keyboard-response","42","442291","0.0-9.0-1.12","607ec28e6a0bde56a9d69ddc","64d3ef96556dbe1f0e02b5aa","64d68e434c9d4e5b1ba4ec5b","","","","","","","","","","","","","","","","","","","","","","","","442.99000096731993","389.0001390879678","4111.100000023842","","","","","","","","","","","","",""
"","","","","","html-keyboard-response","42","442291","0.0-9.0-1.12","607ec28e6a0bde56a9d69ddc","64d3ef96556dbe1f0e02b5aa","64d68e434c9d4e5b1ba4ec5b","","","","","","","","","","","","","","","","","","reconstruct","","","","","","442.99000096731993","389.0001390879678","4111.100000023842","","","","","","","","","","13","5","625","250"
"","","","","","html-keyboard-response","43","445295","0.0-9.0-0.13","607ec28e6a0bde56a9d69ddc","64d3ef96556dbe1f0e02b5aa","64d68e434c9d4e5b1ba4ec5b","","null","","","","","","","","","","","","","null","","","fallScene","","","","","","","","","","","","true","31.078522999999873","322.3","379.3711431702997","245.25","1","14","","",""
"","","","","","html-keyboard-response","44","451510","0.0-9.0-1.13","607ec28e6a0bde56a9d69ddc","64d3ef96556dbe1f0e02b5aa","64d68e434c9d4e5b1ba4ec5b","","","","","","","","","","","","","","","","","","","","","","","","663.0009854718024","300.0099513237977","6214.699999988079","","","","","","","","","","","","",""
"","","","","","html-keyboard-response","44","451510","0.0-9.0-1.13","607ec28e6a0bde56a9d69ddc","64d3ef96556dbe1f0e02b5aa","64d68e434c9d4e5b1ba4ec5b","","","","","","","","","","","","","","","","","","reconstruct","","","","","","663.0009854718024","300.0099513237977","6214.699999988079","","","","","","","","","","14","5","625","250"
"","","","","","html-keyboard-response","45","454519","0.0-9.0-0.14","607ec28e6a0bde56a9d69ddc","64d3ef96556dbe1f0e02b5aa","64d68e434c9d4e5b1ba4ec5b","","null","","","","","","","","","","","","","null","","","fallScene","","","","","","","","","","","","true","31.155124000000477","604.4000000000001","596.8711431702998","394.5","10","15","","",""
"","","","","","html-keyboard-response","46","459795","0.0-9.0-1.14","607ec28e6a0bde56a9d69ddc","64d3ef96556dbe1f0e02b5aa","64d68e434c9d4e5b1ba4ec5b","","","","","","","","","","","","","","","","","","","","","","","","373","340.01","5275.5999999940395","","","","","","","","","","","","",""
"","","","","","html-keyboard-response","46","459795","0.0-9.0-1.14","607ec28e6a0bde56a9d69ddc","64d3ef96556dbe1f0e02b5aa","64d68e434c9d4e5b1ba4ec5b","","","","","","","","","","","","","","","","","","reconstruct","","","","","","373","340.01","5275.5999999940395","","","","","","","","","","15","5","625","250"
"","","","","","html-keyboard-response","47","462805","0.0-9.0-0.15","607ec28e6a0bde56a9d69ddc","64d3ef96556dbe1f0e02b5aa","64d68e434c9d4e5b1ba4ec5b","","null","","","","","","","","","","","","","null","","","fallScene","","","","","","","","","","","","true","31.097928999999535","322.3","356.42114317029973","357.87","4","16","","",""
"","","","","","html-keyboard-response","48","466924","0.0-9.0-1.15","607ec28e6a0bde56a9d69ddc","64d3ef96556dbe1f0e02b5aa","64d68e434c9d4e5b1ba4ec5b","","","","","","","","","","","","","","","","","","","","","","","","661.0099997745219","389.00006715289175","4119","","","","","","","","","","","","",""
"","","","","","html-keyboard-response","48","466924","0.0-9.0-1.15","607ec28e6a0bde56a9d69ddc","64d3ef96556dbe1f0e02b5aa","64d68e434c9d4e5b1ba4ec5b","","","","","","","","","","","","","","","","","","reconstruct","","","","","","661.0099997745219","389.00006715289175","4119","","","","","","","","","","16","2","375","350"
"","","","","","html-keyboard-response","49","469934","0.0-9.0-0.16","607ec28e6a0bde56a9d69ddc","64d3ef96556dbe1f0e02b5aa","64d68e434c9d4e5b1ba4ec5b","","null","","","","","","","","","","","","","null","","","fallScene","","","","","","","","","","","","false","31.197594000000333","322.3","356.42114317029973","357.87","4","17","","",""
"","","","","","html-keyboard-response","50","474775","0.0-9.0-1.16","607ec28e6a0bde56a9d69ddc","64d3ef96556dbe1f0e02b5aa","64d68e434c9d4e5b1ba4ec5b","","","","","","","","","","","","","","","","","","","","","","","","340.9900000000003","354.9999999264488","4840.199999988079","","","","","","","","","","","","",""
"","","","","","html-keyboard-response","50","474775","0.0-9.0-1.16","607ec28e6a0bde56a9d69ddc","64d3ef96556dbe1f0e02b5aa","64d68e434c9d4e5b1ba4ec5b","","","","","","","","","","","","","","","","","","reconstruct","","","","","","340.9900000000003","354.9999999264488","4840.199999988079","","","","","","","","","","17","6","625","350"
"","","","","","html-keyboard-response","51","477783","0.0-9.0-0.17","607ec28e6a0bde56a9d69ddc","64d3ef96556dbe1f0e02b5aa","64d68e434c9d4e5b1ba4ec5b","","null","","","","","","","","","","","","","null","","","fallScene","","","","","","","","","","","","false","31.26743700000114","604.4000000000001","650.0211431702996","404.58000000000004","11","18","","",""
"","","","","","html-keyboard-response","52","481941","0.0-9.0-1.17","607ec28e6a0bde56a9d69ddc","64d3ef96556dbe1f0e02b5aa","64d68e434c9d4e5b1ba4ec5b","","","","","","","","","","","","","","","","","","","","","","","","621.000334246881","387.00999441239003","4157.100000023842","","","","","","","","","","","","",""
"","","","","","html-keyboard-response","52","481941","0.0-9.0-1.17","607ec28e6a0bde56a9d69ddc","64d3ef96556dbe1f0e02b5aa","64d68e434c9d4e5b1ba4ec5b","","","","","","","","","","","","","","","","","","reconstruct","","","","","","621.000334246881","387.00999441239003","4157.100000023842","","","","","","","","","","18","5","625","250"
"","","","","","html-button-response","53","545667","0.0-10.0","607ec28e6a0bde56a9d69ddc","64d3ef96556dbe1f0e02b5aa","64d68e434c9d4e5b1ba4ec5b","","63724","","","","","","","","","","","","","0","","","","<p><span style = ""font-size:40px;"">BREAK</span></p><p>You are doing great! Click 'Next' when you are ready for the next set.</p>","","","","","","","","","","","","","","","","","","","",""
"","","","","","html-keyboard-response","54","548669","0.0-11.0-0.0","607ec28e6a0bde56a9d69ddc","64d3ef96556dbe1f0e02b5aa","64d68e434c9d4e5b1ba4ec5b","","null","","","","","","","","","","","","","null","","","fallScene","","","","","","","","","","","","false","31.332195999998657","500","510.8711431702997","369.03","8","19","","",""
"","","","","","html-keyboard-response","55","555249","0.0-11.0-1.0","607ec28e6a0bde56a9d69ddc","64d3ef96556dbe1f0e02b5aa","64d68e434c9d4e5b1ba4ec5b","","","","","","","","","","","","","","","","","","","","","","","","362.99002735338746","388.99926086568087","6579.300000011921","","","","","","","","","","","","",""
"","","","","","html-keyboard-response","55","555249","0.0-11.0-1.0","607ec28e6a0bde56a9d69ddc","64d3ef96556dbe1f0e02b5aa","64d68e434c9d4e5b1ba4ec5b","","","","","","","","","","","","","","","","","","reconstruct","","","","","","362.99002735338746","388.99926086568087","6579.300000011921","","","","","","","","","","19","5","625","250"
"","","","","","html-keyboard-response","56","558252","0.0-11.0-0.1","607ec28e6a0bde56a9d69ddc","64d3ef96556dbe1f0e02b5aa","64d68e434c9d4e5b1ba4ec5b","","null","","","","","","","","","","","","","null","","","fallScene","","","","","","","","","","","","true","31.187363999999825","322.3","308.07114317029976","253.89","2","20","","",""
"","","","","","html-keyboard-response","57","565787","0.0-11.0-1.1","607ec28e6a0bde56a9d69ddc","64d3ef96556dbe1f0e02b5aa","64d68e434c9d4e5b1ba4ec5b","","","","","","","","","","","","","","","","","","","","","","","","545.0047113407626","342.9915129601898","7534.799999982119","","","","","","","","","","","","",""
"","","","","","html-keyboard-response","57","565787","0.0-11.0-1.1","607ec28e6a0bde56a9d69ddc","64d3ef96556dbe1f0e02b5aa","64d68e434c9d4e5b1ba4ec5b","","","","","","","","","","","","","","","","","","reconstruct","","","","","","545.0047113407626","342.9915129601898","7534.799999982119","","","","","","","","","","20","2","375","350"
"","","","","","html-keyboard-response","58","568791","0.0-11.0-0.2","607ec28e6a0bde56a9d69ddc","64d3ef96556dbe1f0e02b5aa","64d68e434c9d4e5b1ba4ec5b","","null","","","","","","","","","","","","","null","","","fallScene","","","","","","","","","","","","false","31.408890000001872","322.3","296.07114317029976","371.46","3","21","","",""
"","","","","","html-keyboard-response","59","572833","0.0-11.0-1.2","607ec28e6a0bde56a9d69ddc","64d3ef96556dbe1f0e02b5aa","64d68e434c9d4e5b1ba4ec5b","","","","","","","","","","","","","","","","","","","","","","","","323.9951335670636","380.9912639923034","4041.5","","","","","","","","","","","","",""
"","","","","","html-keyboard-response","59","572833","0.0-11.0-1.2","607ec28e6a0bde56a9d69ddc","64d3ef96556dbe1f0e02b5aa","64d68e434c9d4e5b1ba4ec5b","","","","","","","","","","","","","","","","","","reconstruct","","","","","","323.9951335670636","380.9912639923034","4041.5","","","","","","","","","","21","3","500","250"
"","","","","","html-keyboard-response","60","575839","0.0-11.0-0.3","607ec28e6a0bde56a9d69ddc","64d3ef96556dbe1f0e02b5aa","64d68e434c9d4e5b1ba4ec5b","","null","","","","","","","","","","","","","null","","","fallScene","","","","","","","","","","","","true","31.65630100000277","604.4000000000001","596.8711431702998","394.5","10","22","","",""
"","","","","","html-keyboard-response","61","580964","0.0-11.0-1.3","607ec28e6a0bde56a9d69ddc","64d3ef96556dbe1f0e02b5aa","64d68e434c9d4e5b1ba4ec5b","","","","","","","","","","","","","","","","","","","","","","","","393.0098238070603","322.99813109260725","5124.800000011921","","","","","","","","","","","","",""
"","","","","","html-keyboard-response","61","580964","0.0-11.0-1.3","607ec28e6a0bde56a9d69ddc","64d3ef96556dbe1f0e02b5aa","64d68e434c9d4e5b1ba4ec5b","","","","","","","","","","","","","","","","","","reconstruct","","","","","","393.0098238070603","322.99813109260725","5124.800000011921","","","","","","","","","","22","1","375","250"
"","","","","","html-keyboard-response","62","583972","0.0-11.0-0.4","607ec28e6a0bde56a9d69ddc","64d3ef96556dbe1f0e02b5aa","64d68e434c9d4e5b1ba4ec5b","","null","","","","","","","","","","","","","null","","","fallScene","","","","","","","","","","","","false","31.713093000000807","500","553.4711431702997","282.51","7","23","","",""
"","","","","","html-keyboard-response","63","587925","0.0-11.0-1.4","607ec28e6a0bde56a9d69ddc","64d3ef96556dbe1f0e02b5aa","64d68e434c9d4e5b1ba4ec5b","","","","","","","","","","","","","","","","","","","","","","","","477.99999987159174","336.0099999999992","3952.899999976158","","","","","","","","","","","","",""
"","","","","","html-keyboard-response","63","587925","0.0-11.0-1.4","607ec28e6a0bde56a9d69ddc","64d3ef96556dbe1f0e02b5aa","64d68e434c9d4e5b1ba4ec5b","","","","","","","","","","","","","","","","","","reconstruct","","","","","","477.99999987159174","336.0099999999992","3952.899999976158","","","","","","","","","","23","3","500","250"
"","","","","","html-keyboard-response","64","590938","0.0-11.0-0.5","607ec28e6a0bde56a9d69ddc","64d3ef96556dbe1f0e02b5aa","64d68e434c9d4e5b1ba4ec5b","","null","","","","","","","","","","","","","null","","","fallScene","","","","","","","","","","","","true","31.152023999999393","500","510.8711431702997","369.03","8","24","","",""
"","","","","","html-keyboard-response","65","595498","0.0-11.0-1.5","607ec28e6a0bde56a9d69ddc","64d3ef96556dbe1f0e02b5aa","64d68e434c9d4e5b1ba4ec5b","","","","","","","","","","","","","","","","","","","","","","","","526.0003899950456","320.00999239229935","4559.299999982119","","","","","","","","","","","","",""
"","","","","","html-keyboard-response","65","595498","0.0-11.0-1.5","607ec28e6a0bde56a9d69ddc","64d3ef96556dbe1f0e02b5aa","64d68e434c9d4e5b1ba4ec5b","","","","","","","","","","","","","","","","","","reconstruct","","","","","","526.0003899950456","320.00999239229935","4559.299999982119","","","","","","","","","","24","3","500","250"
"","","","","","html-keyboard-response","66","598508","0.0-11.0-0.6","607ec28e6a0bde56a9d69ddc","64d3ef96556dbe1f0e02b5aa","64d68e434c9d4e5b1ba4ec5b","","null","","","","","","","","","","","","","null","","","fallScene","","","","","","","","","","","","true","31.25125499999942","322.3","308.07114317029976","253.89","2","25","","",""
"","","","","","html-keyboard-response","67","603095","0.0-11.0-1.6","607ec28e6a0bde56a9d69ddc","64d3ef96556dbe1f0e02b5aa","64d68e434c9d4e5b1ba4ec5b","","","","","","","","","","","","","","","","","","","","","","","","540.9999995510201","312.99000000001007","4585.0999999940395","","","","","","","","","","","","",""
"","","","","","html-keyboard-response","67","603095","0.0-11.0-1.6","607ec28e6a0bde56a9d69ddc","64d3ef96556dbe1f0e02b5aa","64d68e434c9d4e5b1ba4ec5b","","","","","","","","","","","","","","","","","","reconstruct","","","","","","540.9999995510201","312.99000000001007","4585.0999999940395","","","","","","","","","","25","4","500","350"
"","","","","","html-keyboard-response","68","606104","0.0-11.0-0.7","607ec28e6a0bde56a9d69ddc","64d3ef96556dbe1f0e02b5aa","64d68e434c9d4e5b1ba4ec5b","","null","","","","","","","","","","","","","null","","","fallScene","","","","","","","","","","","","false","31.29763100000075","322.3","356.42114317029973","357.87","4","26","","",""
"","","","","","html-keyboard-response","69","610672","0.0-11.0-1.7","607ec28e6a0bde56a9d69ddc","64d3ef96556dbe1f0e02b5aa","64d68e434c9d4e5b1ba4ec5b","","","","","","","","","","","","","","","","","","","","","","","","329.0099842911688","335.99943970556285","4566.9000000059605","","","","","","","","","","","","",""
"","","","","","html-keyboard-response","69","610672","0.0-11.0-1.7","607ec28e6a0bde56a9d69ddc","64d3ef96556dbe1f0e02b5aa","64d68e434c9d4e5b1ba4ec5b","","","","","","","","","","","","","","","","","","reconstruct","","","","","","329.0099842911688","335.99943970556285","4566.9000000059605","","","","","","","","","","26","5","625","250"
"","","","","","html-keyboard-response","70","613674","0.0-11.0-0.8","607ec28e6a0bde56a9d69ddc","64d3ef96556dbe1f0e02b5aa","64d68e434c9d4e5b1ba4ec5b","","null","","","","","","","","","","","","","null","","","fallScene","","","","","","","","","","","","true","31.29440699999919","500","479.92114317029973","330.87","6","27","","",""
"","","","","","html-keyboard-response","71","617544","0.0-11.0-1.8","607ec28e6a0bde56a9d69ddc","64d3ef96556dbe1f0e02b5aa","64d68e434c9d4e5b1ba4ec5b","","","","","","","","","","","","","","","","","","","","","","","","444.990000382132","335.9999125786414","3869","","","","","","","","","","","","",""
"","","","","","html-keyboard-response","71","617544","0.0-11.0-1.8","607ec28e6a0bde56a9d69ddc","64d3ef96556dbe1f0e02b5aa","64d68e434c9d4e5b1ba4ec5b","","","","","","","","","","","","","","","","","","reconstruct","","","","","","444.990000382132","335.9999125786414","3869","","","","","","","","","","27","5","625","250"
"","","","","","html-keyboard-response","72","620550","0.0-11.0-0.9","607ec28e6a0bde56a9d69ddc","64d3ef96556dbe1f0e02b5aa","64d68e434c9d4e5b1ba4ec5b","","null","","","","","","","","","","","","","null","","","fallScene","","","","","","","","","","","","true","31.107911000000897","604.4000000000001","667.6211431702998","201.78","9","28","","",""
"","","","","","html-keyboard-response","73","626393","0.0-11.0-1.9","607ec28e6a0bde56a9d69ddc","64d3ef96556dbe1f0e02b5aa","64d68e434c9d4e5b1ba4ec5b","","","","","","","","","","","","","","","","","","","","","","","","421.0099996745517","366.9999193224928","5842","","","","","","","","","","","","",""
"","","","","","html-keyboard-response","73","626393","0.0-11.0-1.9","607ec28e6a0bde56a9d69ddc","64d3ef96556dbe1f0e02b5aa","64d68e434c9d4e5b1ba4ec5b","","","","","","","","","","","","","","","","","","reconstruct","","","","","","421.0099996745517","366.9999193224928","5842","","","","","","","","","","28","6","625","350"
"","","","","","html-keyboard-response","74","629397","0.0-11.0-0.10","607ec28e6a0bde56a9d69ddc","64d3ef96556dbe1f0e02b5aa","64d68e434c9d4e5b1ba4ec5b","","null","","","","","","","","","","","","","null","","","fallScene","","","","","","","","","","","","false","31.098455999999306","322.3","356.42114317029973","357.87","4","29","","",""
"","","","","","html-keyboard-response","75","633812","0.0-11.0-1.10","607ec28e6a0bde56a9d69ddc","64d3ef96556dbe1f0e02b5aa","64d68e434c9d4e5b1ba4ec5b","","","","","","","","","","","","","","","","","","","","","","","","332.9999000300161","344.9900004997124","4414.699999988079","","","","","","","","","","","","",""
"","","","","","html-keyboard-response","75","633812","0.0-11.0-1.10","607ec28e6a0bde56a9d69ddc","64d3ef96556dbe1f0e02b5aa","64d68e434c9d4e5b1ba4ec5b","","","","","","","","","","","","","","","","","","reconstruct","","","","","","332.9999000300161","344.9900004997124","4414.699999988079","","","","","","","","","","29","1","375","250"
"","","","","","html-keyboard-response","76","636819","0.0-11.0-0.11","607ec28e6a0bde56a9d69ddc","64d3ef96556dbe1f0e02b5aa","64d68e434c9d4e5b1ba4ec5b","","null","","","","","","","","","","","","","null","","","fallScene","","","","","","","","","","","","true","31.007378000000376","604.4000000000001","596.8711431702998","394.5","10","30","","",""
"","","","","","html-keyboard-response","77","641214","0.0-11.0-1.11","607ec28e6a0bde56a9d69ddc","64d3ef96556dbe1f0e02b5aa","64d68e434c9d4e5b1ba4ec5b","","","","","","","","","","","","","","","","","","","","","","","","374.0099995000736","307.0000999913921","4394.200000017881","","","","","","","","","","","","",""
"","","","","","html-keyboard-response","77","641214","0.0-11.0-1.11","607ec28e6a0bde56a9d69ddc","64d3ef96556dbe1f0e02b5aa","64d68e434c9d4e5b1ba4ec5b","","","","","","","","","","","","","","","","","","reconstruct","","","","","","374.0099995000736","307.0000999913921","4394.200000017881","","","","","","","","","","30","4","500","350"
"","","","","","html-keyboard-response","78","644221","0.0-11.0-0.12","607ec28e6a0bde56a9d69ddc","64d3ef96556dbe1f0e02b5aa","64d68e434c9d4e5b1ba4ec5b","","null","","","","","","","","","","","","","null","","","fallScene","","","","","","","","","","","","false","31.2103349999974","500","553.4711431702997","282.51","7","31","","",""
"","","","","","html-keyboard-response","79","653733","0.0-11.0-1.12","607ec28e6a0bde56a9d69ddc","64d3ef96556dbe1f0e02b5aa","64d68e434c9d4e5b1ba4ec5b","","","","","","","","","","","","","","","","","","","","","","","","497.9921307268128","338.98381727564316","9511.299999982119","","","","","","","","","","","","",""
"","","","","","html-keyboard-response","79","653733","0.0-11.0-1.12","607ec28e6a0bde56a9d69ddc","64d3ef96556dbe1f0e02b5aa","64d68e434c9d4e5b1ba4ec5b","","","","","","","","","","","","","","","","","","reconstruct","","","","","","497.9921307268128","338.98381727564316","9511.299999982119","","","","","","","","","","31","2","375","350"
"","","","","","html-keyboard-response","80","656736","0.0-11.0-0.13","607ec28e6a0bde56a9d69ddc","64d3ef96556dbe1f0e02b5aa","64d68e434c9d4e5b1ba4ec5b","","null","","","","","","","","","","","","","null","","","fallScene","","","","","","","","","","","","true","31.191300999999164","500","453.67114317029973","210.33","5","32","","",""
"","","","","","html-keyboard-response","81","661956","0.0-11.0-1.13","607ec28e6a0bde56a9d69ddc","64d3ef96556dbe1f0e02b5aa","64d68e434c9d4e5b1ba4ec5b","","","","","","","","","","","","","","","","","","","","","","","","469.99010953018785","332.99852398953436","5220.700000017881","","","","","","","","","","","","",""
"","","","","","html-keyboard-response","81","661956","0.0-11.0-1.13","607ec28e6a0bde56a9d69ddc","64d3ef96556dbe1f0e02b5aa","64d68e434c9d4e5b1ba4ec5b","","","","","","","","","","","","","","","","","","reconstruct","","","","","","469.99010953018785","332.99852398953436","5220.700000017881","","","","","","","","","","32","3","500","250"
"","","","","","html-keyboard-response","82","664959","0.0-11.0-0.14","607ec28e6a0bde56a9d69ddc","64d3ef96556dbe1f0e02b5aa","64d68e434c9d4e5b1ba4ec5b","","null","","","","","","","","","","","","","null","","","fallScene","","","","","","","","","","","","true","31.123442000002367","604.4000000000001","667.6211431702998","201.78","9","33","","",""
"","","","","","html-keyboard-response","83","672037","0.0-11.0-1.14","607ec28e6a0bde56a9d69ddc","64d3ef96556dbe1f0e02b5aa","64d68e434c9d4e5b1ba4ec5b","","","","","","","","","","","","","","","","","","","","","","","","387.9900000016927","356.00000581841","7076.5","","","","","","","","","","","","",""
"","","","","","html-keyboard-response","83","672037","0.0-11.0-1.14","607ec28e6a0bde56a9d69ddc","64d3ef96556dbe1f0e02b5aa","64d68e434c9d4e5b1ba4ec5b","","","","","","","","","","","","","","","","","","reconstruct","","","","","","387.9900000016927","356.00000581841","7076.5","","","","","","","","","","33","2","375","350"
"","","","","","html-keyboard-response","84","675039","0.0-11.0-0.15","607ec28e6a0bde56a9d69ddc","64d3ef96556dbe1f0e02b5aa","64d68e434c9d4e5b1ba4ec5b","","null","","","","","","","","","","","","","null","","","fallScene","","","","","","","","","","","","true","31.278999999999996","604.4000000000001","596.8711431702998","394.5","10","34","","",""
"","","","","","html-keyboard-response","85","680909","0.0-11.0-1.15","607ec28e6a0bde56a9d69ddc","64d3ef96556dbe1f0e02b5aa","64d68e434c9d4e5b1ba4ec5b","","","","","","","","","","","","","","","","","","","","","","","","376.99375655406504","303.99218850956237","5869.4000000059605","","","","","","","","","","","","",""
"","","","","","html-keyboard-response","85","680909","0.0-11.0-1.15","607ec28e6a0bde56a9d69ddc","64d3ef96556dbe1f0e02b5aa","64d68e434c9d4e5b1ba4ec5b","","","","","","","","","","","","","","","","","","reconstruct","","","","","","376.99375655406504","303.99218850956237","5869.4000000059605","","","","","","","","","","34","6","625","350"
"","","","","","html-keyboard-response","86","683913","0.0-11.0-0.16","607ec28e6a0bde56a9d69ddc","64d3ef96556dbe1f0e02b5aa","64d68e434c9d4e5b1ba4ec5b","","null","","","","","","","","","","","","","null","","","fallScene","","","","","","","","","","","","false","31.267375000000005","604.4000000000001","667.6211431702998","201.78","9","35","","",""
"","","","","","html-keyboard-response","87","688375","0.0-11.0-1.16","607ec28e6a0bde56a9d69ddc","64d3ef96556dbe1f0e02b5aa","64d68e434c9d4e5b1ba4ec5b","","","","","","","","","","","","","","","","","","","","","","","","585.0099995176301","340.99990178001985","4461.199999988079","","","","","","","","","","","","",""
"","","","","","html-keyboard-response","87","688375","0.0-11.0-1.16","607ec28e6a0bde56a9d69ddc","64d3ef96556dbe1f0e02b5aa","64d68e434c9d4e5b1ba4ec5b","","","","","","","","","","","","","","","","","","reconstruct","","","","","","585.0099995176301","340.99990178001985","4461.199999988079","","","","","","","","","","35","3","500","250"
"","","","","","html-keyboard-response","88","691383","0.0-11.0-0.17","607ec28e6a0bde56a9d69ddc","64d3ef96556dbe1f0e02b5aa","64d68e434c9d4e5b1ba4ec5b","","null","","","","","","","","","","","","","null","","","fallScene","","","","","","","","","","","","true","31.227912000002224","322.3","379.3711431702997","245.25","1","36","","",""
"","","","","","html-keyboard-response","89","697077","0.0-11.0-1.17","607ec28e6a0bde56a9d69ddc","64d3ef96556dbe1f0e02b5aa","64d68e434c9d4e5b1ba4ec5b","","","","","","","","","","","","","","","","","","","","","","","","654.990000499908","323.0000999895435","5693.5","","","","","","","","","","","","",""
"","","","","","html-keyboard-response","89","697077","0.0-11.0-1.17","607ec28e6a0bde56a9d69ddc","64d3ef96556dbe1f0e02b5aa","64d68e434c9d4e5b1ba4ec5b","","","","","","","","","","","","","","","","","","reconstruct","","","","","","654.990000499908","323.0000999895435","5693.5","","","","","","","","","","36","2","375","350"
"","","","","","html-button-response","90","702202","0.0-12.0","607ec28e6a0bde56a9d69ddc","64d3ef96556dbe1f0e02b5aa","64d68e434c9d4e5b1ba4ec5b","","5123","","","","","","","","","","","","","0","","","","<p><span style = ""font-size:40px;"">BREAK</span></p><p>You are halfway done! Click 'Next' when you are ready for the next set.</p>","","","","","","","","","","","","","","","","","","","",""
"","","","","","html-keyboard-response","91","705217","0.0-13.0-0.0","607ec28e6a0bde56a9d69ddc","64d3ef96556dbe1f0e02b5aa","64d68e434c9d4e5b1ba4ec5b","","null","","","","","","","","","","","","","null","","","fallScene","","","","","","","","","","","","false","31.671490999998877","322.3","308.07114317029976","253.89","2","37","","",""
"","","","","","html-keyboard-response","92","715772","0.0-13.0-1.0","607ec28e6a0bde56a9d69ddc","64d3ef96556dbe1f0e02b5aa","64d68e434c9d4e5b1ba4ec5b","","","","","","","","","","","","","","","","","","","","","","","","428.00264256328404","309.9903554751652","10554.300000011921","","","","","","","","","","","","",""
"","","","","","html-keyboard-response","92","715772","0.0-13.0-1.0","607ec28e6a0bde56a9d69ddc","64d3ef96556dbe1f0e02b5aa","64d68e434c9d4e5b1ba4ec5b","","","","","","","","","","","","","","","","","","reconstruct","","","","","","428.00264256328404","309.9903554751652","10554.300000011921","","","","","","","","","","37","1","375","250"
"","","","","","html-keyboard-response","93","718775","0.0-13.0-0.1","607ec28e6a0bde56a9d69ddc","64d3ef96556dbe1f0e02b5aa","64d68e434c9d4e5b1ba4ec5b","","null","","","","","","","","","","","","","null","","","fallScene","","","","","","","","","","","","false","31.24924000000116","604.4000000000001","575.4211431702997","266.76","12","38","","",""
"","","","","","html-keyboard-response","94","723807","0.0-13.0-1.1","607ec28e6a0bde56a9d69ddc","64d3ef96556dbe1f0e02b5aa","64d68e434c9d4e5b1ba4ec5b","","","","","","","","","","","","","","","","","","","","","","","","635.0099995664985","325.0000931119797","5030.9000000059605","","","","","","","","","","","","",""
"","","","","","html-keyboard-response","94","723807","0.0-13.0-1.1","607ec28e6a0bde56a9d69ddc","64d3ef96556dbe1f0e02b5aa","64d68e434c9d4e5b1ba4ec5b","","","","","","","","","","","","","","","","","","reconstruct","","","","","","635.0099995664985","325.0000931119797","5030.9000000059605","","","","","","","","","","38","1","375","250"
"","","","","","html-keyboard-response","95","726815","0.0-13.0-0.2","607ec28e6a0bde56a9d69ddc","64d3ef96556dbe1f0e02b5aa","64d68e434c9d4e5b1ba4ec5b","","null","","","","","","","","","","","","","null","","","fallScene","","","","","","","","","","","","false","31.24229599999974","604.4000000000001","650.0211431702996","404.58000000000004","11","39","","",""
"","","","","","html-keyboard-response","96","733613","0.0-13.0-1.2","607ec28e6a0bde56a9d69ddc","64d3ef96556dbe1f0e02b5aa","64d68e434c9d4e5b1ba4ec5b","","","","","","","","","","","","","","","","","","","","","","","","657.0048054029135","397.9912302735026","6797.0999999940395","","","","","","","","","","","","",""
"","","","","","html-keyboard-response","96","733613","0.0-13.0-1.2","607ec28e6a0bde56a9d69ddc","64d3ef96556dbe1f0e02b5aa","64d68e434c9d4e5b1ba4ec5b","","","","","","","","","","","","","","","","","","reconstruct","","","","","","657.0048054029135","397.9912302735026","6797.0999999940395","","","","","","","","","","39","1","375","250"
"","","","","","html-keyboard-response","97","736629","0.0-13.0-0.3","607ec28e6a0bde56a9d69ddc","64d3ef96556dbe1f0e02b5aa","64d68e434c9d4e5b1ba4ec5b","","null","","","","","","","","","","","","","null","","","fallScene","","","","","","","","","","","","false","31.247938000000666","322.3","356.42114317029973","357.87","4","40","","",""
"","","","","","html-keyboard-response","98","743834","0.0-13.0-1.3","607ec28e6a0bde56a9d69ddc","64d3ef96556dbe1f0e02b5aa","64d68e434c9d4e5b1ba4ec5b","","","","","","","","","","","","","","","","","","","","","","","","358.0029006842674","347.0095700590793","7204","","","","","","","","","","","","",""
"","","","","","html-keyboard-response","98","743834","0.0-13.0-1.3","607ec28e6a0bde56a9d69ddc","64d3ef96556dbe1f0e02b5aa","64d68e434c9d4e5b1ba4ec5b","","","","","","","","","","","","","","","","","","reconstruct","","","","","","358.0029006842674","347.0095700590793","7204","","","","","","","","","","40","4","500","350"
"","","","","","html-keyboard-response","99","746849","0.0-13.0-0.4","607ec28e6a0bde56a9d69ddc","64d3ef96556dbe1f0e02b5aa","64d68e434c9d4e5b1ba4ec5b","","null","","","","","","","","","","","","","null","","","fallScene","","","","","","","","","","","","true","31.244683000001245","604.4000000000001","650.0211431702996","404.58000000000004","11","41","","",""
"","","","","","html-keyboard-response","100","751729","0.0-13.0-1.4","607ec28e6a0bde56a9d69ddc","64d3ef96556dbe1f0e02b5aa","64d68e434c9d4e5b1ba4ec5b","","","","","","","","","","","","","","","","","","","","","","","","360.01","370.9999999999789","4879.5","","","","","","","","","","","","",""
"","","","","","html-keyboard-response","100","751729","0.0-13.0-1.4","607ec28e6a0bde56a9d69ddc","64d3ef96556dbe1f0e02b5aa","64d68e434c9d4e5b1ba4ec5b","","","","","","","","","","","","","","","","","","reconstruct","","","","","","360.01","370.9999999999789","4879.5","","","","","","","","","","41","2","375","350"
"","","","","","html-keyboard-response","101","754734","0.0-13.0-0.5","607ec28e6a0bde56a9d69ddc","64d3ef96556dbe1f0e02b5aa","64d68e434c9d4e5b1ba4ec5b","","null","","","","","","","","","","","","","null","","","fallScene","","","","","","","","","","","","false","30.198330000001004","322.3","356.42114317029973","357.87","4","42","","",""
"","","","","","html-keyboard-response","102","760307","0.0-13.0-1.5","607ec28e6a0bde56a9d69ddc","64d3ef96556dbe1f0e02b5aa","64d68e434c9d4e5b1ba4ec5b","","","","","","","","","","","","","","","","","","","","","","","","338.01","339.00000002396814","5572.699999988079","","","","","","","","","","","","",""
"","","","","","html-keyboard-response","102","760307","0.0-13.0-1.5","607ec28e6a0bde56a9d69ddc","64d3ef96556dbe1f0e02b5aa","64d68e434c9d4e5b1ba4ec5b","","","","","","","","","","","","","","","","","","reconstruct","","","","","","338.01","339.00000002396814","5572.699999988079","","","","","","","","","","42","3","500","250"
"","","","","","html-keyboard-response","103","763312","0.0-13.0-0.6","607ec28e6a0bde56a9d69ddc","64d3ef96556dbe1f0e02b5aa","64d68e434c9d4e5b1ba4ec5b","","null","","","","","","","","","","","","","null","","","fallScene","","","","","","","","","","","","true","31.10028499999957","500","510.8711431702997","369.03","8","43","","",""
"","","","","","html-keyboard-response","104","769778","0.0-13.0-1.6","607ec28e6a0bde56a9d69ddc","64d3ef96556dbe1f0e02b5aa","64d68e434c9d4e5b1ba4ec5b","","","","","","","","","","","","","","","","","","","","","","","","600.9901683602075","328.9981727455048","6465.699999988079","","","","","","","","","","","","",""
"","","","","","html-keyboard-response","104","769778","0.0-13.0-1.6","607ec28e6a0bde56a9d69ddc","64d3ef96556dbe1f0e02b5aa","64d68e434c9d4e5b1ba4ec5b","","","","","","","","","","","","","","","","","","reconstruct","","","","","","600.9901683602075","328.9981727455048","6465.699999988079","","","","","","","","","","43","4","500","350"
"","","","","","html-keyboard-response","105","772785","0.0-13.0-0.7","607ec28e6a0bde56a9d69ddc","64d3ef96556dbe1f0e02b5aa","64d68e434c9d4e5b1ba4ec5b","","null","","","","","","","","","","","","","null","","","fallScene","","","","","","","","","","","","false","31.31412299999734","604.4000000000001","575.4211431702997","266.76","12","44","","",""
"","","","","","html-keyboard-response","106","777239","0.0-13.0-1.7","607ec28e6a0bde56a9d69ddc","64d3ef96556dbe1f0e02b5aa","64d68e434c9d4e5b1ba4ec5b","","","","","","","","","","","","","","","","","","","","","","","","621.99000009746","376.00004414963263","4453","","","","","","","","","","","","",""
"","","","","","html-keyboard-response","106","777239","0.0-13.0-1.7","607ec28e6a0bde56a9d69ddc","64d3ef96556dbe1f0e02b5aa","64d68e434c9d4e5b1ba4ec5b","","","","","","","","","","","","","","","","","","reconstruct","","","","","","621.99000009746","376.00004414963263","4453","","","","","","","","","","44","4","500","350"
"","","","","","html-keyboard-response","107","780243","0.0-13.0-0.8","607ec28e6a0bde56a9d69ddc","64d3ef96556dbe1f0e02b5aa","64d68e434c9d4e5b1ba4ec5b","","null","","","","","","","","","","","","","null","","","fallScene","","","","","","","","","","","","true","30.4082099999988","500","453.67114317029973","210.33","5","45","","",""
"","","","","","html-keyboard-response","108","786946","0.0-13.0-1.8","607ec28e6a0bde56a9d69ddc","64d3ef96556dbe1f0e02b5aa","64d68e434c9d4e5b1ba4ec5b","","","","","","","","","","","","","","","","","","","","","","","","426.00701997647496","324.99287820736816","6702.300000011921","","","","","","","","","","","","",""
"","","","","","html-keyboard-response","108","786946","0.0-13.0-1.8","607ec28e6a0bde56a9d69ddc","64d3ef96556dbe1f0e02b5aa","64d68e434c9d4e5b1ba4ec5b","","","","","","","","","","","","","","","","","","reconstruct","","","","","","426.00701997647496","324.99287820736816","6702.300000011921","","","","","","","","","","45","5","625","250"
"","","","","","html-keyboard-response","109","789952","0.0-13.0-0.9","607ec28e6a0bde56a9d69ddc","64d3ef96556dbe1f0e02b5aa","64d68e434c9d4e5b1ba4ec5b","","null","","","","","","","","","","","","","null","","","fallScene","","","","","","","","","","","","false","30.220260000001872","322.3","308.07114317029976","253.89","2","46","","",""
"","","","","","html-keyboard-response","110","795216","0.0-13.0-1.9","607ec28e6a0bde56a9d69ddc","64d3ef96556dbe1f0e02b5aa","64d68e434c9d4e5b1ba4ec5b","","","","","","","","","","","","","","","","","","","","","","","","429.0099995003995","319.9999000412038","5263.399999976158","","","","","","","","","","","","",""
"","","","","","html-keyboard-response","110","795216","0.0-13.0-1.9","607ec28e6a0bde56a9d69ddc","64d3ef96556dbe1f0e02b5aa","64d68e434c9d4e5b1ba4ec5b","","","","","","","","","","","","","","","","","","reconstruct","","","","","","429.0099995003995","319.9999000412038","5263.399999976158","","","","","","","","","","46","3","500","250"
"","","","","","html-keyboard-response","111","798219","0.0-13.0-0.10","607ec28e6a0bde56a9d69ddc","64d3ef96556dbe1f0e02b5aa","64d68e434c9d4e5b1ba4ec5b","","null","","","","","","","","","","","","","null","","","fallScene","","","","","","","","","","","","true","31.150473999997953","500","553.4711431702997","282.51","7","47","","",""
"","","","","","html-keyboard-response","112","803355","0.0-13.0-1.10","607ec28e6a0bde56a9d69ddc","64d3ef96556dbe1f0e02b5aa","64d68e434c9d4e5b1ba4ec5b","","","","","","","","","","","","","","","","","","","","","","","","494.9933084181588","349.9925688000658","5135.800000011921","","","","","","","","","","","","",""
"","","","","","html-keyboard-response","112","803355","0.0-13.0-1.10","607ec28e6a0bde56a9d69ddc","64d3ef96556dbe1f0e02b5aa","64d68e434c9d4e5b1ba4ec5b","","","","","","","","","","","","","","","","","","reconstruct","","","","","","494.9933084181588","349.9925688000658","5135.800000011921","","","","","","","","","","47","5","625","250"
"","","","","","html-keyboard-response","113","806364","0.0-13.0-0.11","607ec28e6a0bde56a9d69ddc","64d3ef96556dbe1f0e02b5aa","64d68e434c9d4e5b1ba4ec5b","","null","","","","","","","","","","","","","null","","","fallScene","","","","","","","","","","","","false","14.018241999999388","604.4000000000001","667.6211431702998","201.78","9","48","","",""
"","","","","","html-keyboard-response","114","810494","0.0-13.0-1.11","607ec28e6a0bde56a9d69ddc","64d3ef96556dbe1f0e02b5aa","64d68e434c9d4e5b1ba4ec5b","","","","","","","","","","","","","","","","","","","","","","","","546.99","350.9999999677607","4130.4000000059605","","","","","","","","","","","","",""
"","","","","","html-keyboard-response","114","810495","0.0-13.0-1.11","607ec28e6a0bde56a9d69ddc","64d3ef96556dbe1f0e02b5aa","64d68e434c9d4e5b1ba4ec5b","","","","","","","","","","","","","","","","","","reconstruct","","","","","","546.99","350.9999999677607","4130.4000000059605","","","","","","","","","","48","4","500","350"
"","","","","","html-keyboard-response","115","813499","0.0-13.0-0.12","607ec28e6a0bde56a9d69ddc","64d3ef96556dbe1f0e02b5aa","64d68e434c9d4e5b1ba4ec5b","","null","","","","","","","","","","","","","null","","","fallScene","","","","","","","","","","","","true","31.168392000000924","322.3","379.3711431702997","245.25","1","49","","",""
"","","","","","html-keyboard-response","116","819888","0.0-13.0-1.12","607ec28e6a0bde56a9d69ddc","64d3ef96556dbe1f0e02b5aa","64d68e434c9d4e5b1ba4ec5b","","","","","","","","","","","","","","","","","","","","","","","","658.0099999999899","320.99999955085894","6389","","","","","","","","","","","","",""
"","","","","","html-keyboard-response","116","819888","0.0-13.0-1.12","607ec28e6a0bde56a9d69ddc","64d3ef96556dbe1f0e02b5aa","64d68e434c9d4e5b1ba4ec5b","","","","","","","","","","","","","","","","","","reconstruct","","","","","","658.0099999999899","320.99999955085894","6389","","","","","","","","","","49","3","500","250"
"","","","","","html-keyboard-response","117","822890","0.0-13.0-0.13","607ec28e6a0bde56a9d69ddc","64d3ef96556dbe1f0e02b5aa","64d68e434c9d4e5b1ba4ec5b","","null","","","","","","","","","","","","","null","","","fallScene","","","","","","","","","","","","false","31.26536000000173","322.3","308.07114317029976","253.89","2","50","","",""
"","","","","","html-keyboard-response","118","827583","0.0-13.0-1.13","607ec28e6a0bde56a9d69ddc","64d3ef96556dbe1f0e02b5aa","64d68e434c9d4e5b1ba4ec5b","","","","","","","","","","","","","","","","","","","","","","","","424.99981928034134","347.0099983668869","4692.200000017881","","","","","","","","","","","","",""
"","","","","","html-keyboard-response","118","827583","0.0-13.0-1.13","607ec28e6a0bde56a9d69ddc","64d3ef96556dbe1f0e02b5aa","64d68e434c9d4e5b1ba4ec5b","","","","","","","","","","","","","","","","","","reconstruct","","","","","","424.99981928034134","347.0099983668869","4692.200000017881","","","","","","","","","","50","6","625","350"
"","","","","","html-keyboard-response","119","830586","0.0-13.0-0.14","607ec28e6a0bde56a9d69ddc","64d3ef96556dbe1f0e02b5aa","64d68e434c9d4e5b1ba4ec5b","","null","","","","","","","","","","","","","null","","","fallScene","","","","","","","","","","","","false","31.487009999998847","500","510.8711431702997","369.03","8","51","","",""
"","","","","","html-keyboard-response","120","834786","0.0-13.0-1.14","607ec28e6a0bde56a9d69ddc","64d3ef96556dbe1f0e02b5aa","64d68e434c9d4e5b1ba4ec5b","","","","","","","","","","","","","","","","","","","","","","","","410.00466767056196","336.99115619699876","4199.0999999940395","","","","","","","","","","","","",""
"","","","","","html-keyboard-response","120","834786","0.0-13.0-1.14","607ec28e6a0bde56a9d69ddc","64d3ef96556dbe1f0e02b5aa","64d68e434c9d4e5b1ba4ec5b","","","","","","","","","","","","","","","","","","reconstruct","","","","","","410.00466767056196","336.99115619699876","4199.0999999940395","","","","","","","","","","51","1","375","250"
"","","","","","html-keyboard-response","121","837796","0.0-13.0-0.15","607ec28e6a0bde56a9d69ddc","64d3ef96556dbe1f0e02b5aa","64d68e434c9d4e5b1ba4ec5b","","null","","","","","","","","","","","","","null","","","fallScene","","","","","","","","","","","","true","30.200579999999604","500","479.92114317029973","330.87","6","52","","",""
"","","","","","html-keyboard-response","122","844564","0.0-13.0-1.15","607ec28e6a0bde56a9d69ddc","64d3ef96556dbe1f0e02b5aa","64d68e434c9d4e5b1ba4ec5b","","","","","","","","","","","","","","","","","","","","","","","","429.9999000001628","368.00999949998914","6767.5999999940395","","","","","","","","","","","","",""
"","","","","","html-keyboard-response","122","844564","0.0-13.0-1.15","607ec28e6a0bde56a9d69ddc","64d3ef96556dbe1f0e02b5aa","64d68e434c9d4e5b1ba4ec5b","","","","","","","","","","","","","","","","","","reconstruct","","","","","","429.9999000001628","368.00999949998914","6767.5999999940395","","","","","","","","","","52","1","375","250"
"","","","","","html-keyboard-response","123","847568","0.0-13.0-0.16","607ec28e6a0bde56a9d69ddc","64d3ef96556dbe1f0e02b5aa","64d68e434c9d4e5b1ba4ec5b","","null","","","","","","","","","","","","","null","","","fallScene","","","","","","","","","","","","true","29.05376599999808","604.4000000000001","596.8711431702998","394.5","10","53","","",""
"","","","","","html-keyboard-response","124","852807","0.0-13.0-1.16","607ec28e6a0bde56a9d69ddc","64d3ef96556dbe1f0e02b5aa","64d68e434c9d4e5b1ba4ec5b","","","","","","","","","","","","","","","","","","","","","","","","377.00009999500224","316.00999950003745","5238.4000000059605","","","","","","","","","","","","",""
"","","","","","html-keyboard-response","124","852807","0.0-13.0-1.16","607ec28e6a0bde56a9d69ddc","64d3ef96556dbe1f0e02b5aa","64d68e434c9d4e5b1ba4ec5b","","","","","","","","","","","","","","","","","","reconstruct","","","","","","377.00009999500224","316.00999950003745","5238.4000000059605","","","","","","","","","","53","2","375","350"
"","","","","","html-keyboard-response","125","855819","0.0-13.0-0.17","607ec28e6a0bde56a9d69ddc","64d3ef96556dbe1f0e02b5aa","64d68e434c9d4e5b1ba4ec5b","","null","","","","","","","","","","","","","null","","","fallScene","","","","","","","","","","","","true","29.220747999998974","604.4000000000001","575.4211431702997","266.76","12","54","","",""
"","","","","","html-keyboard-response","126","861578","0.0-13.0-1.17","607ec28e6a0bde56a9d69ddc","64d3ef96556dbe1f0e02b5aa","64d68e434c9d4e5b1ba4ec5b","","","","","","","","","","","","","","","","","","","","","","","","346.9901169509364","377.00152490694995","5759.0999999940395","","","","","","","","","","","","",""
"","","","","","html-keyboard-response","126","861578","0.0-13.0-1.17","607ec28e6a0bde56a9d69ddc","64d3ef96556dbe1f0e02b5aa","64d68e434c9d4e5b1ba4ec5b","","","","","","","","","","","","","","","","","","reconstruct","","","","","","346.9901169509364","377.00152490694995","5759.0999999940395","","","","","","","","","","54","3","500","250"
"","","","","","html-button-response","127","870462","0.0-14.0","607ec28e6a0bde56a9d69ddc","64d3ef96556dbe1f0e02b5aa","64d68e434c9d4e5b1ba4ec5b","","8882","","","","","","","","","","","","","0","","","","<p><span style = ""font-size:40px;"">BREAK</span></p><p>You are almost done! Click 'Next' when you are ready for the next set.</p>","","","","","","","","","","","","","","","","","","","",""
"","","","","","html-keyboard-response","128","873472","0.0-15.0-0.0","607ec28e6a0bde56a9d69ddc","64d3ef96556dbe1f0e02b5aa","64d68e434c9d4e5b1ba4ec5b","","null","","","","","","","","","","","","","null","","","fallScene","","","","","","","","","","","","true","29.161326999999","604.4000000000001","575.4211431702997","266.76","12","55","","",""
"","","","","","html-keyboard-response","129","878224","0.0-15.0-1.0","607ec28e6a0bde56a9d69ddc","64d3ef96556dbe1f0e02b5aa","64d68e434c9d4e5b1ba4ec5b","","","","","","","","","","","","","","","","","","","","","","","","350.0003338348392","370.0099944261616","4751.5","","","","","","","","","","","","",""
"","","","","","html-keyboard-response","129","878224","0.0-15.0-1.0","607ec28e6a0bde56a9d69ddc","64d3ef96556dbe1f0e02b5aa","64d68e434c9d4e5b1ba4ec5b","","","","","","","","","","","","","","","","","","reconstruct","","","","","","350.0003338348392","370.0099944261616","4751.5","","","","","","","","","","55","5","625","250"
"","","","","","html-keyboard-response","130","881228","0.0-15.0-0.1","607ec28e6a0bde56a9d69ddc","64d3ef96556dbe1f0e02b5aa","64d68e434c9d4e5b1ba4ec5b","","null","","","","","","","","","","","","","null","","","fallScene","","","","","","","","","","","","false","26.230931999999562","322.3","379.3711431702997","245.25","1","56","","",""
"","","","","","html-keyboard-response","131","885411","0.0-15.0-1.1","607ec28e6a0bde56a9d69ddc","64d3ef96556dbe1f0e02b5aa","64d68e434c9d4e5b1ba4ec5b","","","","","","","","","","","","","","","","","","","","","","","","318.00003075461075","309.9900000472924","4182.5999999940395","","","","","","","","","","","","",""
"","","","","","html-keyboard-response","131","885411","0.0-15.0-1.1","607ec28e6a0bde56a9d69ddc","64d3ef96556dbe1f0e02b5aa","64d68e434c9d4e5b1ba4ec5b","","","","","","","","","","","","","","","","","","reconstruct","","","","","","318.00003075461075","309.9900000472924","4182.5999999940395","","","","","","","","","","56","1","375","250"
"","","","","","html-keyboard-response","132","888427","0.0-15.0-0.2","607ec28e6a0bde56a9d69ddc","64d3ef96556dbe1f0e02b5aa","64d68e434c9d4e5b1ba4ec5b","","null","","","","","","","","","","","","","null","","","fallScene","","","","","","","","","","","","false","27.15454800000123","322.3","296.07114317029976","371.46","3","57","","",""
"","","","","","html-keyboard-response","133","896679","0.0-15.0-1.2","607ec28e6a0bde56a9d69ddc","64d3ef96556dbe1f0e02b5aa","64d68e434c9d4e5b1ba4ec5b","","","","","","","","","","","","","","","","","","","","","","","","322.00999907166596","435.00013625644635","8251.600000023842","","","","","","","","","","","","",""
"","","","","","html-keyboard-response","133","896679","0.0-15.0-1.2","607ec28e6a0bde56a9d69ddc","64d3ef96556dbe1f0e02b5aa","64d68e434c9d4e5b1ba4ec5b","","","","","","","","","","","","","","","","","","reconstruct","","","","","","322.00999907166596","435.00013625644635","8251.600000023842","","","","","","","","","","57","4","500","350"
"","","","","","html-keyboard-response","134","899682","0.0-15.0-0.3","607ec28e6a0bde56a9d69ddc","64d3ef96556dbe1f0e02b5aa","64d68e434c9d4e5b1ba4ec5b","","null","","","","","","","","","","","","","null","","","fallScene","","","","","","","","","","","","true","28.351456000000706","604.4000000000001","575.4211431702997","266.76","12","58","","",""
"","","","","","html-keyboard-response","135","903778","0.0-15.0-1.3","607ec28e6a0bde56a9d69ddc","64d3ef96556dbe1f0e02b5aa","64d68e434c9d4e5b1ba4ec5b","","","","","","","","","","","","","","","","","","","","","","","","332.00999898341325","395.9998574142301","4094.9000000059605","","","","","","","","","","","","",""
"","","","","","html-keyboard-response","135","903778","0.0-15.0-1.3","607ec28e6a0bde56a9d69ddc","64d3ef96556dbe1f0e02b5aa","64d68e434c9d4e5b1ba4ec5b","","","","","","","","","","","","","","","","","","reconstruct","","","","","","332.00999898341325","395.9998574142301","4094.9000000059605","","","","","","","","","","58","6","625","350"
"","","","","","html-keyboard-response","136","906789","0.0-15.0-0.4","607ec28e6a0bde56a9d69ddc","64d3ef96556dbe1f0e02b5aa","64d68e434c9d4e5b1ba4ec5b","","null","","","","","","","","","","","","","null","","","fallScene","","","","","","","","","","","","true","27.325106999999146","500","453.67114317029973","210.33","5","59","","",""
"","","","","","html-keyboard-response","137","911576","0.0-15.0-1.4","607ec28e6a0bde56a9d69ddc","64d3ef96556dbe1f0e02b5aa","64d68e434c9d4e5b1ba4ec5b","","","","","","","","","","","","","","","","","","","","","","","","419.00999748916587","380.999775923276","4786.200000017881","","","","","","","","","","","","",""
"","","","","","html-keyboard-response","137","911576","0.0-15.0-1.4","607ec28e6a0bde56a9d69ddc","64d3ef96556dbe1f0e02b5aa","64d68e434c9d4e5b1ba4ec5b","","","","","","","","","","","","","","","","","","reconstruct","","","","","","419.00999748916587","380.999775923276","4786.200000017881","","","","","","","","","","59","2","375","350"
"","","","","","html-keyboard-response","138","914595","0.0-15.0-0.5","607ec28e6a0bde56a9d69ddc","64d3ef96556dbe1f0e02b5aa","64d68e434c9d4e5b1ba4ec5b","","null","","","","","","","","","","","","","null","","","fallScene","","","","","","","","","","","","true","29.416295000002837","500","510.8711431702997","369.03","8","60","","",""
"","","","","","html-keyboard-response","139","918669","0.0-15.0-1.5","607ec28e6a0bde56a9d69ddc","64d3ef96556dbe1f0e02b5aa","64d68e434c9d4e5b1ba4ec5b","","","","","","","","","","","","","","","","","","","","","","","","627.000000288626","399.99000000000416","4073.5","","","","","","","","","","","","",""
"","","","","","html-keyboard-response","139","918669","0.0-15.0-1.5","607ec28e6a0bde56a9d69ddc","64d3ef96556dbe1f0e02b5aa","64d68e434c9d4e5b1ba4ec5b","","","","","","","","","","","","","","","","","","reconstruct","","","","","","627.000000288626","399.99000000000416","4073.5","","","","","","","","","","60","2","375","350"
"","","","","","html-keyboard-response","140","921681","0.0-15.0-0.6","607ec28e6a0bde56a9d69ddc","64d3ef96556dbe1f0e02b5aa","64d68e434c9d4e5b1ba4ec5b","","null","","","","","","","","","","","","","null","","","fallScene","","","","","","","","","","","","false","28.252364000000995","604.4000000000001","650.0211431702996","404.58000000000004","11","61","","",""
"","","","","","html-keyboard-response","141","926792","0.0-15.0-1.6","607ec28e6a0bde56a9d69ddc","64d3ef96556dbe1f0e02b5aa","64d68e434c9d4e5b1ba4ec5b","","","","","","","","","","","","","","","","","","","","","","","","656.01","409.9999999898731","5110.0999999940395","","","","","","","","","","","","",""
"","","","","","html-keyboard-response","141","926792","0.0-15.0-1.6","607ec28e6a0bde56a9d69ddc","64d3ef96556dbe1f0e02b5aa","64d68e434c9d4e5b1ba4ec5b","","","","","","","","","","","","","","","","","","reconstruct","","","","","","656.01","409.9999999898731","5110.0999999940395","","","","","","","","","","61","6","625","350"
"","","","","","html-keyboard-response","142","929797","0.0-15.0-0.7","607ec28e6a0bde56a9d69ddc","64d3ef96556dbe1f0e02b5aa","64d68e434c9d4e5b1ba4ec5b","","null","","","","","","","","","","","","","null","","","fallScene","","","","","","","","","","","","true","28.193956000000707","500","479.92114317029973","330.87","6","62","","",""
"","","","","","html-keyboard-response","143","935933","0.0-15.0-1.7","607ec28e6a0bde56a9d69ddc","64d3ef96556dbe1f0e02b5aa","64d68e434c9d4e5b1ba4ec5b","","","","","","","","","","","","","","","","","","","","","","","","397.99000024406496","389.00006986586783","6135","","","","","","","","","","","","",""
"","","","","","html-keyboard-response","143","935933","0.0-15.0-1.7","607ec28e6a0bde56a9d69ddc","64d3ef96556dbe1f0e02b5aa","64d68e434c9d4e5b1ba4ec5b","","","","","","","","","","","","","","","","","","reconstruct","","","","","","397.99000024406496","389.00006986586783","6135","","","","","","","","","","62","3","500","250"
"","","","","","html-keyboard-response","144","938946","0.0-15.0-0.8","607ec28e6a0bde56a9d69ddc","64d3ef96556dbe1f0e02b5aa","64d68e434c9d4e5b1ba4ec5b","","null","","","","","","","","","","","","","null","","","fallScene","","","","","","","","","","","","true","28.159515999997968","500","553.4711431702997","282.51","7","63","","",""
"","","","","","html-keyboard-response","145","943610","0.0-15.0-1.8","607ec28e6a0bde56a9d69ddc","64d3ef96556dbe1f0e02b5aa","64d68e434c9d4e5b1ba4ec5b","","","","","","","","","","","","","","","","","","","","","","","","521.0099916221966","385.9995907496118","4663.9000000059605","","","","","","","","","","","","",""
"","","","","","html-keyboard-response","145","943610","0.0-15.0-1.8","607ec28e6a0bde56a9d69ddc","64d3ef96556dbe1f0e02b5aa","64d68e434c9d4e5b1ba4ec5b","","","","","","","","","","","","","","","","","","reconstruct","","","","","","521.0099916221966","385.9995907496118","4663.9000000059605","","","","","","","","","","63","4","500","350"
"","","","","","html-keyboard-response","146","946614","0.0-15.0-0.9","607ec28e6a0bde56a9d69ddc","64d3ef96556dbe1f0e02b5aa","64d68e434c9d4e5b1ba4ec5b","","null","","","","","","","","","","","","","null","","","fallScene","","","","","","","","","","","","true","27.165456000000706","500","453.67114317029973","210.33","5","64","","",""
"","","","","","html-keyboard-response","147","951553","0.0-15.0-1.9","607ec28e6a0bde56a9d69ddc","64d3ef96556dbe1f0e02b5aa","64d68e434c9d4e5b1ba4ec5b","","","","","","","","","","","","","","","","","","","","","","","","441.0099999968812","379.00000789778994","4937.9000000059605","","","","","","","","","","","","",""
"","","","","","html-keyboard-response","147","951553","0.0-15.0-1.9","607ec28e6a0bde56a9d69ddc","64d3ef96556dbe1f0e02b5aa","64d68e434c9d4e5b1ba4ec5b","","","","","","","","","","","","","","","","","","reconstruct","","","","","","441.0099999968812","379.00000789778994","4937.9000000059605","","","","","","","","","","64","1","375","250"
"","","","","","html-keyboard-response","148","954556","0.0-15.0-0.10","607ec28e6a0bde56a9d69ddc","64d3ef96556dbe1f0e02b5aa","64d68e434c9d4e5b1ba4ec5b","","null","","","","","","","","","","","","","null","","","fallScene","","","","","","","","","","","","false","26.216345999999902","322.3","296.07114317029976","371.46","3","65","","",""
"","","","","","html-keyboard-response","149","960033","0.0-15.0-1.10","607ec28e6a0bde56a9d69ddc","64d3ef96556dbe1f0e02b5aa","64d68e434c9d4e5b1ba4ec5b","","","","","","","","","","","","","","","","","","","","","","","","336.9990898317968","398.99004150644714","5477.299999982119","","","","","","","","","","","","",""
"","","","","","html-keyboard-response","149","960033","0.0-15.0-1.10","607ec28e6a0bde56a9d69ddc","64d3ef96556dbe1f0e02b5aa","64d68e434c9d4e5b1ba4ec5b","","","","","","","","","","","","","","","","","","reconstruct","","","","","","336.9990898317968","398.99004150644714","5477.299999982119","","","","","","","","","","65","5","625","250"
"","","","","","html-keyboard-response","150","963040","0.0-15.0-0.11","607ec28e6a0bde56a9d69ddc","64d3ef96556dbe1f0e02b5aa","64d68e434c9d4e5b1ba4ec5b","","null","","","","","","","","","","","","","null","","","fallScene","","","","","","","","","","","","true","27.237789000000802","500","510.8711431702997","369.03","8","66","","",""
"","","","","","html-keyboard-response","151","968694","0.0-15.0-1.11","607ec28e6a0bde56a9d69ddc","64d3ef96556dbe1f0e02b5aa","64d68e434c9d4e5b1ba4ec5b","","","","","","","","","","","","","","","","","","","","","","","","616.9900003320549","364.9999185077471","5652.700000017881","","","","","","","","","","","","",""
"","","","","","html-keyboard-response","151","968694","0.0-15.0-1.11","607ec28e6a0bde56a9d69ddc","64d3ef96556dbe1f0e02b5aa","64d68e434c9d4e5b1ba4ec5b","","","","","","","","","","","","","","","","","","reconstruct","","","","","","616.9900003320549","364.9999185077471","5652.700000017881","","","","","","","","","","66","6","625","350"
"","","","","","html-keyboard-response","152","971698","0.0-15.0-0.12","607ec28e6a0bde56a9d69ddc","64d3ef96556dbe1f0e02b5aa","64d68e434c9d4e5b1ba4ec5b","","null","","","","","","","","","","","","","null","","","fallScene","","","","","","","","","","","","true","26.206309999998425","604.4000000000001","667.6211431702998","201.78","9","67","","",""
"","","","","","html-keyboard-response","153","976910","0.0-15.0-1.12","607ec28e6a0bde56a9d69ddc","64d3ef96556dbe1f0e02b5aa","64d68e434c9d4e5b1ba4ec5b","","","","","","","","","","","","","","","","","","","","","","","","427.99000000541076","380.0000104026357","5211.5","","","","","","","","","","","","",""
"","","","","","html-keyboard-response","153","976910","0.0-15.0-1.12","607ec28e6a0bde56a9d69ddc","64d3ef96556dbe1f0e02b5aa","64d68e434c9d4e5b1ba4ec5b","","","","","","","","","","","","","","","","","","reconstruct","","","","","","427.99000000541076","380.0000104026357","5211.5","","","","","","","","","","67","1","375","250"
"","","","","","html-keyboard-response","154","979914","0.0-15.0-0.13","607ec28e6a0bde56a9d69ddc","64d3ef96556dbe1f0e02b5aa","64d68e434c9d4e5b1ba4ec5b","","null","","","","","","","","","","","","","null","","","fallScene","","","","","","","","","","","","true","26.132131999998357","500","453.67114317029973","210.33","5","68","","",""
"","","","","","html-keyboard-response","155","984080","0.0-15.0-1.13","607ec28e6a0bde56a9d69ddc","64d3ef96556dbe1f0e02b5aa","64d68e434c9d4e5b1ba4ec5b","","","","","","","","","","","","","","","","","","","","","","","","418.0072165338962","397.006922545668","4165.5999999940395","","","","","","","","","","","","",""
"","","","","","html-keyboard-response","155","984080","0.0-15.0-1.13","607ec28e6a0bde56a9d69ddc","64d3ef96556dbe1f0e02b5aa","64d68e434c9d4e5b1ba4ec5b","","","","","","","","","","","","","","","","","","reconstruct","","","","","","418.0072165338962","397.006922545668","4165.5999999940395","","","","","","","","","","68","6","625","350"
"","","","","","html-keyboard-response","156","987088","0.0-15.0-0.14","607ec28e6a0bde56a9d69ddc","64d3ef96556dbe1f0e02b5aa","64d68e434c9d4e5b1ba4ec5b","","null","","","","","","","","","","","","","null","","","fallScene","","","","","","","","","","","","false","27.079285999998447","322.3","296.07114317029976","371.46","3","69","","",""
"","","","","","html-keyboard-response","157","993785","0.0-15.0-1.14","607ec28e6a0bde56a9d69ddc","64d3ef96556dbe1f0e02b5aa","64d68e434c9d4e5b1ba4ec5b","","","","","","","","","","","","","","","","","","","","","","","","333.0099793825329","385.0006418132608","6695.4000000059605","","","","","","","","","","","","",""
"","","","","","html-keyboard-response","157","993785","0.0-15.0-1.14","607ec28e6a0bde56a9d69ddc","64d3ef96556dbe1f0e02b5aa","64d68e434c9d4e5b1ba4ec5b","","","","","","","","","","","","","","","","","","reconstruct","","","","","","333.0099793825329","385.0006418132608","6695.4000000059605","","","","","","","","","","69","6","625","350"
"","","","","","html-keyboard-response","158","996788","0.0-15.0-0.15","607ec28e6a0bde56a9d69ddc","64d3ef96556dbe1f0e02b5aa","64d68e434c9d4e5b1ba4ec5b","","null","","","","","","","","","","","","","null","","","fallScene","","","","","","","","","","","","true","22.21346600000211","500","453.67114317029973","210.33","5","70","","",""
"","","","","","html-keyboard-response","159","1001180","0.0-15.0-1.15","607ec28e6a0bde56a9d69ddc","64d3ef96556dbe1f0e02b5aa","64d68e434c9d4e5b1ba4ec5b","","","","","","","","","","","","","","","","","","","","","","","","425.00250774881073","387.00968045432313","4390.399999976158","","","","","","","","","","","","",""
"","","","","","html-keyboard-response","159","1001180","0.0-15.0-1.15","607ec28e6a0bde56a9d69ddc","64d3ef96556dbe1f0e02b5aa","64d68e434c9d4e5b1ba4ec5b","","","","","","","","","","","","","","","","","","reconstruct","","","","","","425.00250774881073","387.00968045432313","4390.399999976158","","","","","","","","","","70","4","500","350"
"","","","","","html-keyboard-response","160","1004200","0.0-15.0-0.16","607ec28e6a0bde56a9d69ddc","64d3ef96556dbe1f0e02b5aa","64d68e434c9d4e5b1ba4ec5b","","null","","","","","","","","","","","","","null","","","fallScene","","","","","","","","","","","","false","25.26609999999928","500","479.92114317029973","330.87","6","71","","",""
"","","","","","html-keyboard-response","161","1008599","0.0-15.0-1.16","607ec28e6a0bde56a9d69ddc","64d3ef96556dbe1f0e02b5aa","64d68e434c9d4e5b1ba4ec5b","","","","","","","","","","","","","","","","","","","","","","","","583.0049425818166","359.0086931516141","4399","","","","","","","","","","","","",""
"","","","","","html-keyboard-response","161","1008600","0.0-15.0-1.16","607ec28e6a0bde56a9d69ddc","64d3ef96556dbe1f0e02b5aa","64d68e434c9d4e5b1ba4ec5b","","","","","","","","","","","","","","","","","","reconstruct","","","","","","583.0049425818166","359.0086931516141","4399","","","","","","","","","","71","4","500","350"
"","","","","","html-keyboard-response","162","1011602","0.0-15.0-0.17","607ec28e6a0bde56a9d69ddc","64d3ef96556dbe1f0e02b5aa","64d68e434c9d4e5b1ba4ec5b","","null","","","","","","","","","","","","","null","","","fallScene","","","","","","","","","","","","false","25.254899999999907","500","553.4711431702997","282.51","7","72","","",""
"","","","","","html-keyboard-response","163","1016871","0.0-15.0-1.17","607ec28e6a0bde56a9d69ddc","64d3ef96556dbe1f0e02b5aa","64d68e434c9d4e5b1ba4ec5b","","","","","","","","","","","","","","","","","","","","","","","","410.01","396.00000000007185","5268.9000000059605","","","","","","","","","","","","",""
"","","","","","html-keyboard-response","163","1016871","0.0-15.0-1.17","607ec28e6a0bde56a9d69ddc","64d3ef96556dbe1f0e02b5aa","64d68e434c9d4e5b1ba4ec5b","","","","","","","","","","","","","","","","","","reconstruct","","","","","","410.01","396.00000000007185","5268.9000000059605","","","","","","","","","","72","6","625","350"
"","","","","","survey-text","164","1128208","0.0-16.0","607ec28e6a0bde56a9d69ddc","64d3ef96556dbe1f0e02b5aa","64d68e434c9d4e5b1ba4ec5b","","111332","","","","","","","","","","","","","{""Summary"":""I moved the triangle to where I think the ball was hit it""}","","","","","","","","","","","","","","","","","","","","","","","",""
"","","","","","survey-text","165","1151166","0.0-17.0","607ec28e6a0bde56a9d69ddc","64d3ef96556dbe1f0e02b5aa","64d68e434c9d4e5b1ba4ec5b","","22955","","","","","","","","","","","","","{""Comments"":""everything was OK""}","","","","","","","","","","","","","","","","","","","","","","","",""
