"success","timeout","failed_images","failed_audio","failed_video","trial_type","trial_index","time_elapsed","internal_node_id","subject_id","study_id","session_id","view_history","rt","width","height","webaudio","browser","browser_version","mobile","os","fullscreen","vsync_rate","webcam","microphone","url","response","triangle_prac_final_x","triangle_prac_final_y","trial_name","stimulus","ball_X_prac_occ","ball_Y_prac_occ","obstacle_X_prac_occ","obstacle_Y_prac_occ","triangle_final_x","triangle_final_y","response_time","obstacle_X_prac_occ_init","obstacle_Y_prac_occ_init","question_order","flipped","runnerFPS","ball_X","obstacle_groundTruth_x","obstacle_groundTruth_y","stimulus_idx","currentTrial","obstacle_idx","obstacle_initial_x","obstacle_initial_y"
"true","false","[]","[]","[]","preload","0","85","0.0-0.0","6107720cff13015082b48f4a","64d3ef96556dbe1f0e02b5aa","64db8285611258ee3f26b545","","","","","","","","","","","","","","","","","","","","","","","","","","","","","","","","","","","","","","",""
"","","","","","instructions","1","10457","0.0-1.0","6107720cff13015082b48f4a","64d3ef96556dbe1f0e02b5aa","64db8285611258ee3f26b545","[{""page_index"":0,""viewing_time"":10372}]","10372","","","","","","","","","","","","","","","","","","","","","","","","","","","","","","","","","","","","",""
"","","","","","browser-check","2","11737","0.0-2.0","6107720cff13015082b48f4a","64d3ef96556dbe1f0e02b5aa","64db8285611258ee3f26b545","","","1449","860","true","edge-chromium","115.0.1901","false","Windows 10","true","60.37","true","true","","","","","","","","","","","","","","","","","","","","","","","","","",""
"","","","","","external-html","3","13932","0.0-3.0","6107720cff13015082b48f4a","64d3ef96556dbe1f0e02b5aa","64db8285611258ee3f26b545","","2149","","","","","","","","","","","","consent.html","","","","","","","","","","","","","","","","","","","","","","","","",""
"true","","","","","fullscreen","4","15435","0.0-4.0","6107720cff13015082b48f4a","64d3ef96556dbe1f0e02b5aa","64db8285611258ee3f26b545","","1001","","","","","","","","","","","","","","","","","","","","","","","","","","","","","","","","","","","","",""
"","","","","","survey-text","5","17753","0.0-5.0","6107720cff13015082b48f4a","64d3ef96556dbe1f0e02b5aa","64db8285611258ee3f26b545","","2307","","","","","","","","","","","","","{""prolificID"":""6107720cff13015082b48f4a""}","","","","","","","","","","","","","","","","","","","","","","","",""
"","","","","","browser-check","6","18780","0.0-6.0","6107720cff13015082b48f4a","64d3ef96556dbe1f0e02b5aa","64db8285611258ee3f26b545","","","1504","1003","true","edge-chromium","115.0.1901","false","Windows 10","true","58.93","true","true","","","","","","","","","","","","","","","","","","","","","","","","","",""
"","","","","","instructions","7","24242","0.0-7.0-0.0-0.0","6107720cff13015082b48f4a","64d3ef96556dbe1f0e02b5aa","64db8285611258ee3f26b545","[{""page_index"":0,""viewing_time"":1186},{""page_index"":1,""viewing_time"":640},{""page_index"":2,""viewing_time"":1516},{""page_index"":3,""viewing_time"":2120}]","5462","","","","","","","","","","","","","","","","","","","","","","","","","","","","","","","","","","","","",""
"","","","","","html-keyboard-response","8","27402","0.0-7.0-0.0-1.0","6107720cff13015082b48f4a","64d3ef96556dbe1f0e02b5aa","64db8285611258ee3f26b545","","","","","","","","","","","","","","","","377.995452128091","166.00890600140912","","","","","","","","","","","","","","","","","","","","","",""
"","","","","","html-keyboard-response","8","27402","0.0-7.0-0.0-1.0","6107720cff13015082b48f4a","64d3ef96556dbe1f0e02b5aa","64db8285611258ee3f26b545","","","","","","","","","","","","","","","","","","practiceTrial_move","","","","","","","","","","","","","","","","","","","","",""
"","","","","","html-button-response","9","28648","0.0-7.0-0.0-2.0","6107720cff13015082b48f4a","64d3ef96556dbe1f0e02b5aa","64db8285611258ee3f26b545","","1245","","","","","","","","","","","","","0","","","","<p>To help you get more comfortable with the task, let's begin with a practice trial first!</p><p>As described previously, you will first see a video of a ball falling, some of it behind a gray screen.</p><p>After the video, you will drag a triangle to the spot you think the ball hit the triangle behind the screen.</p><p>Click 'Next' to start your practice trial.</p>","","","","","","","","","","","","","","","","","","","",""
"","","","","","html-keyboard-response","10","31652","0.0-7.0-0.0-3.0","6107720cff13015082b48f4a","64d3ef96556dbe1f0e02b5aa","64db8285611258ee3f26b545","","null","","","","","","","","","","","","","null","","","fallScene_practiceTrial_withOccluder","","400","50","420","415","","","","","","","","","","","","","","","",""
"","","","","","html-keyboard-response","11","33821","0.0-7.0-0.0-4.0","6107720cff13015082b48f4a","64d3ef96556dbe1f0e02b5aa","64db8285611258ee3f26b545","","","","","","","","","","","","","","","","","","","","","","","","405.00312953341484","397.99050231498705","2166.1000000089407","","","","","","","","","","","","",""
"","","","","","html-keyboard-response","11","33821","0.0-7.0-0.0-4.0","6107720cff13015082b48f4a","64d3ef96556dbe1f0e02b5aa","64db8285611258ee3f26b545","","","","","","","","","","","","","","","","","","reconstruct_practiceTrial_withOccluder","","","","","","405.00312953341484","397.99050231498705","2166.1000000089407","500","300","","","","","","","","","","",""
"","","","","","html-button-response","12","35118","0.0-7.0-0.0-5.0","6107720cff13015082b48f4a","64d3ef96556dbe1f0e02b5aa","64db8285611258ee3f26b545","","1296","","","","","","","","","","","","","1","","","","<p>Ok! We're almost ready to get started.</p><p>We just have a <b>brief quiz</b>, to make sure you understood the task.</p><p>If you need to review the instructions, click 'Previous'.</p><p>It's important to understand the task to do the study, so you have to pass the quiz to move to the study.</p>","","","","","","","","","","","","","","","","","","","",""
"","","","","","survey-multi-choice","13","37707","0.0-7.0-1.0-0.0","6107720cff13015082b48f4a","64d3ef96556dbe1f0e02b5aa","64db8285611258ee3f26b545","","2586","","","","","","","","","","","","","{""generalProcedure"":""Watch a video of a ball falling, some of it behind a gray screen. After each video, drag a triangle to where I think the ball hit the triangle behind the screen.""}","","","","","","","","","","","","","","[0]","","","","","","","","","",""
"","","","","","survey-multi-choice","14","40187","0.0-7.0-1.0-1.0","6107720cff13015082b48f4a","64d3ef96556dbe1f0e02b5aa","64db8285611258ee3f26b545","","2470","","","","","","","","","","","","","{""checkBallHitObstacle"":""Yes.""}","","","","","","","","","","","","","","[0]","","","","","","","","","",""
"","","","","","survey-multi-choice","15","41875","0.0-7.0-1.0-2.0","6107720cff13015082b48f4a","64d3ef96556dbe1f0e02b5aa","64db8285611258ee3f26b545","","1683","","","","","","","","","","","","","{""checkTriangleVisibility"":""No, the triangle is hidden behind the gray screen.""}","","","","","","","","","","","","","","[0]","","","","","","","","","",""
"","","","","","instructions","16","42642","0.0-8.0","6107720cff13015082b48f4a","64d3ef96556dbe1f0e02b5aa","64db8285611258ee3f26b545","[{""page_index"":0,""viewing_time"":746}]","746","","","","","","","","","","","","","","","","","","","","","","","","","","","","","","","","","","","","",""
"","","","","","html-keyboard-response","17","45652","0.0-9.0-0.0","6107720cff13015082b48f4a","64d3ef96556dbe1f0e02b5aa","64db8285611258ee3f26b545","","null","","","","","","","","","","","","","null","","","fallScene","","","","","","","","","","","","false","60.00677999999986","500","510.8711431702997","369.03","8","1","","",""
"","","","","","html-keyboard-response","18","50311","0.0-9.0-1.0","6107720cff13015082b48f4a","64d3ef96556dbe1f0e02b5aa","64db8285611258ee3f26b545","","","","","","","","","","","","","","","","","","","","","","","","509.9955456800056","316.0089531577327","4656.0999999940395","","","","","","","","","","","","",""
"","","","","","html-keyboard-response","18","50311","0.0-9.0-1.0","6107720cff13015082b48f4a","64d3ef96556dbe1f0e02b5aa","64db8285611258ee3f26b545","","","","","","","","","","","","","","","","","","reconstruct","","","","","","509.9955456800056","316.0089531577327","4656.0999999940395","","","","","","","","","","1","6","625","350"
"","","","","","html-keyboard-response","19","53319","0.0-9.0-0.1","6107720cff13015082b48f4a","64d3ef96556dbe1f0e02b5aa","64db8285611258ee3f26b545","","null","","","","","","","","","","","","","null","","","fallScene","","","","","","","","","","","","true","60.02279999999984","604.4000000000001","667.6211431702998","201.78","9","2","","",""
"","","","","","html-keyboard-response","20","55800","0.0-9.0-1.1","6107720cff13015082b48f4a","64d3ef96556dbe1f0e02b5aa","64db8285611258ee3f26b545","","","","","","","","","","","","","","","","","","","","","","","","359.9999500006249","405.00999987500234","2479","","","","","","","","","","","","",""
"","","","","","html-keyboard-response","20","55800","0.0-9.0-1.1","6107720cff13015082b48f4a","64d3ef96556dbe1f0e02b5aa","64db8285611258ee3f26b545","","","","","","","","","","","","","","","","","","reconstruct","","","","","","359.9999500006249","405.00999987500234","2479","","","","","","","","","","2","1","375","250"
"","","","","","html-keyboard-response","21","58816","0.0-9.0-0.2","6107720cff13015082b48f4a","64d3ef96556dbe1f0e02b5aa","64db8285611258ee3f26b545","","null","","","","","","","","","","","","","null","","","fallScene","","","","","","","","","","","","false","62.033705999999775","604.4000000000001","575.4211431702997","266.76","12","3","","",""
"","","","","","html-keyboard-response","22","60749","0.0-9.0-1.2","6107720cff13015082b48f4a","64d3ef96556dbe1f0e02b5aa","64db8285611258ee3f26b545","","","","","","","","","","","","","","","","","","","","","","","","584.007088679356","351.9929465877061","1933.0999999940395","","","","","","","","","","","","",""
"","","","","","html-keyboard-response","22","60749","0.0-9.0-1.2","6107720cff13015082b48f4a","64d3ef96556dbe1f0e02b5aa","64db8285611258ee3f26b545","","","","","","","","","","","","","","","","","","reconstruct","","","","","","584.007088679356","351.9929465877061","1933.0999999940395","","","","","","","","","","3","6","625","350"
"","","","","","html-keyboard-response","23","63753","0.0-9.0-0.3","6107720cff13015082b48f4a","64d3ef96556dbe1f0e02b5aa","64db8285611258ee3f26b545","","null","","","","","","","","","","","","","null","","","fallScene","","","","","","","","","","","","true","62.011868000000206","322.3","356.42114317029973","357.87","4","4","","",""
"","","","","","html-keyboard-response","24","66348","0.0-9.0-1.3","6107720cff13015082b48f4a","64d3ef96556dbe1f0e02b5aa","64db8285611258ee3f26b545","","","","","","","","","","","","","","","","","","","","","","","","641.9900004999024","379.00009998899515","2595","","","","","","","","","","","","",""
"","","","","","html-keyboard-response","24","66349","0.0-9.0-1.3","6107720cff13015082b48f4a","64d3ef96556dbe1f0e02b5aa","64db8285611258ee3f26b545","","","","","","","","","","","","","","","","","","reconstruct","","","","","","641.9900004999024","379.00009998899515","2595","","","","","","","","","","4","6","625","350"
"","","","","","html-keyboard-response","25","69353","0.0-9.0-0.4","6107720cff13015082b48f4a","64d3ef96556dbe1f0e02b5aa","64db8285611258ee3f26b545","","null","","","","","","","","","","","","","null","","","fallScene","","","","","","","","","","","","true","62.018394999999984","322.3","308.07114317029976","253.89","2","5","","",""
"","","","","","html-keyboard-response","26","72268","0.0-9.0-1.4","6107720cff13015082b48f4a","64d3ef96556dbe1f0e02b5aa","64db8285611258ee3f26b545","","","","","","","","","","","","","","","","","","","","","","","","692.9900000098747","301.99998594674196","2912.9000000059605","","","","","","","","","","","","",""
"","","","","","html-keyboard-response","26","72268","0.0-9.0-1.4","6107720cff13015082b48f4a","64d3ef96556dbe1f0e02b5aa","64db8285611258ee3f26b545","","","","","","","","","","","","","","","","","","reconstruct","","","","","","692.9900000098747","301.99998594674196","2912.9000000059605","","","","","","","","","","5","6","625","350"
"","","","","","html-keyboard-response","27","75272","0.0-9.0-0.5","6107720cff13015082b48f4a","64d3ef96556dbe1f0e02b5aa","64db8285611258ee3f26b545","","null","","","","","","","","","","","","","null","","","fallScene","","","","","","","","","","","","false","62.01772399999963","322.3","308.07114317029976","253.89","2","6","","",""
"","","","","","html-keyboard-response","28","77361","0.0-9.0-1.5","6107720cff13015082b48f4a","64d3ef96556dbe1f0e02b5aa","64db8285611258ee3f26b545","","","","","","","","","","","","","","","","","","","","","","","","308.0099999994599","265.99999671334865","2088.800000011921","","","","","","","","","","","","",""
"","","","","","html-keyboard-response","28","77361","0.0-9.0-1.5","6107720cff13015082b48f4a","64d3ef96556dbe1f0e02b5aa","64db8285611258ee3f26b545","","","","","","","","","","","","","","","","","","reconstruct","","","","","","308.0099999994599","265.99999671334865","2088.800000011921","","","","","","","","","","6","4","500","350"
"","","","","","html-keyboard-response","29","80369","0.0-9.0-0.6","6107720cff13015082b48f4a","64d3ef96556dbe1f0e02b5aa","64db8285611258ee3f26b545","","null","","","","","","","","","","","","","null","","","fallScene","","","","","","","","","","","","true","62.01241700000054","500","553.4711431702997","282.51","7","7","","",""
"","","","","","html-keyboard-response","30","83054","0.0-9.0-1.6","6107720cff13015082b48f4a","64d3ef96556dbe1f0e02b5aa","64db8285611258ee3f26b545","","","","","","","","","","","","","","","","","","","","","","","","491.0099996807691","322.00007990316345","2683.7999999970198","","","","","","","","","","","","",""
"","","","","","html-keyboard-response","30","83054","0.0-9.0-1.6","6107720cff13015082b48f4a","64d3ef96556dbe1f0e02b5aa","64db8285611258ee3f26b545","","","","","","","","","","","","","","","","","","reconstruct","","","","","","491.0099996807691","322.00007990316345","2683.7999999970198","","","","","","","","","","7","2","375","350"
"","","","","","html-keyboard-response","31","86058","0.0-9.0-0.7","6107720cff13015082b48f4a","64d3ef96556dbe1f0e02b5aa","64db8285611258ee3f26b545","","null","","","","","","","","","","","","","null","","","fallScene","","","","","","","","","","","","true","62.01418600000023","604.4000000000001","667.6211431702998","201.78","9","8","","",""
"","","","","","html-keyboard-response","32","89629","0.0-9.0-1.7","6107720cff13015082b48f4a","64d3ef96556dbe1f0e02b5aa","64db8285611258ee3f26b545","","","","","","","","","","","","","","","","","","","","","","","","316.0000000004641","376.99","3570.699999988079","","","","","","","","","","","","",""
"","","","","","html-keyboard-response","32","89629","0.0-9.0-1.7","6107720cff13015082b48f4a","64d3ef96556dbe1f0e02b5aa","64db8285611258ee3f26b545","","","","","","","","","","","","","","","","","","reconstruct","","","","","","316.0000000004641","376.99","3570.699999988079","","","","","","","","","","8","5","625","250"
"","","","","","html-keyboard-response","33","92634","0.0-9.0-0.8","6107720cff13015082b48f4a","64d3ef96556dbe1f0e02b5aa","64db8285611258ee3f26b545","","null","","","","","","","","","","","","","null","","","fallScene","","","","","","","","","","","","false","61.0027800000002","322.3","379.3711431702997","245.25","1","9","","",""
"","","","","","html-keyboard-response","34","95900","0.0-9.0-1.8","6107720cff13015082b48f4a","64d3ef96556dbe1f0e02b5aa","64db8285611258ee3f26b545","","","","","","","","","","","","","","","","","","","","","","","","363.0000007377972","266.00999999997276","3265.7000000029802","","","","","","","","","","","","",""
"","","","","","html-keyboard-response","34","95900","0.0-9.0-1.8","6107720cff13015082b48f4a","64d3ef96556dbe1f0e02b5aa","64db8285611258ee3f26b545","","","","","","","","","","","","","","","","","","reconstruct","","","","","","363.0000007377972","266.00999999997276","3265.7000000029802","","","","","","","","","","9","2","375","350"
"","","","","","html-keyboard-response","35","98904","0.0-9.0-0.9","6107720cff13015082b48f4a","64d3ef96556dbe1f0e02b5aa","64db8285611258ee3f26b545","","null","","","","","","","","","","","","","null","","","fallScene","","","","","","","","","","","","false","62.01424699999958","500","510.8711431702997","369.03","8","10","","",""
"","","","","","html-keyboard-response","36","101002","0.0-9.0-1.9","6107720cff13015082b48f4a","64d3ef96556dbe1f0e02b5aa","64db8285611258ee3f26b545","","","","","","","","","","","","","","","","","","","","","","","","590.99989520267","295.0099994508609","2096.7000000029802","","","","","","","","","","","","",""
"","","","","","html-keyboard-response","36","101002","0.0-9.0-1.9","6107720cff13015082b48f4a","64d3ef96556dbe1f0e02b5aa","64db8285611258ee3f26b545","","","","","","","","","","","","","","","","","","reconstruct","","","","","","590.99989520267","295.0099994508609","2096.7000000029802","","","","","","","","","","10","1","375","250"
"","","","","","html-keyboard-response","37","104005","0.0-9.0-0.10","6107720cff13015082b48f4a","64d3ef96556dbe1f0e02b5aa","64db8285611258ee3f26b545","","null","","","","","","","","","","","","","null","","","fallScene","","","","","","","","","","","","false","62.0133320000005","604.4000000000001","650.0211431702996","404.58000000000004","11","11","","",""
"","","","","","html-keyboard-response","38","106338","0.0-9.0-1.10","6107720cff13015082b48f4a","64d3ef96556dbe1f0e02b5aa","64db8285611258ee3f26b545","","","","","","","","","","","","","","","","","","","","","","","","705.0002052981291","334.00999789241183","2332.2000000029802","","","","","","","","","","","","",""
"","","","","","html-keyboard-response","38","106338","0.0-9.0-1.10","6107720cff13015082b48f4a","64d3ef96556dbe1f0e02b5aa","64db8285611258ee3f26b545","","","","","","","","","","","","","","","","","","reconstruct","","","","","","705.0002052981291","334.00999789241183","2332.2000000029802","","","","","","","","","","11","5","625","250"
"","","","","","html-keyboard-response","39","109342","0.0-9.0-0.11","6107720cff13015082b48f4a","64d3ef96556dbe1f0e02b5aa","64db8285611258ee3f26b545","","null","","","","","","","","","","","","","null","","","fallScene","","","","","","","","","","","","false","60.00893999999943","604.4000000000001","596.8711431702998","394.5","10","12","","",""
"","","","","","html-keyboard-response","40","111970","0.0-9.0-1.11","6107720cff13015082b48f4a","64d3ef96556dbe1f0e02b5aa","64db8285611258ee3f26b545","","","","","","","","","","","","","","","","","","","","","","","","577.9900011138529","305.0001492508539","2623.2000000029802","","","","","","","","","","","","",""
"","","","","","html-keyboard-response","40","111970","0.0-9.0-1.11","6107720cff13015082b48f4a","64d3ef96556dbe1f0e02b5aa","64db8285611258ee3f26b545","","","","","","","","","","","","","","","","","","reconstruct","","","","","","577.9900011138529","305.0001492508539","2623.2000000029802","","","","","","","","","","12","5","625","250"
"","","","","","html-keyboard-response","41","114973","0.0-9.0-0.12","6107720cff13015082b48f4a","64d3ef96556dbe1f0e02b5aa","64db8285611258ee3f26b545","","null","","","","","","","","","","","","","null","","","fallScene","","","","","","","","","","","","false","61.99710599999941","500","479.92114317029973","330.87","6","13","","",""
"","","","","","html-keyboard-response","42","116722","0.0-9.0-1.12","6107720cff13015082b48f4a","64d3ef96556dbe1f0e02b5aa","64db8285611258ee3f26b545","","","","","","","","","","","","","","","","","","","","","","","","449.0099907569637","319.9995701450338","1747.7999999970198","","","","","","","","","","","","",""
"","","","","","html-keyboard-response","42","116722","0.0-9.0-1.12","6107720cff13015082b48f4a","64d3ef96556dbe1f0e02b5aa","64db8285611258ee3f26b545","","","","","","","","","","","","","","","","","","reconstruct","","","","","","449.0099907569637","319.9995701450338","1747.7999999970198","","","","","","","","","","13","4","500","350"
"","","","","","html-keyboard-response","43","119724","0.0-9.0-0.13","6107720cff13015082b48f4a","64d3ef96556dbe1f0e02b5aa","64db8285611258ee3f26b545","","null","","","","","","","","","","","","","null","","","fallScene","","","","","","","","","","","","true","60.0018000000008","604.4000000000001","575.4211431702997","266.76","12","14","","",""
"","","","","","html-keyboard-response","44","122024","0.0-9.0-1.13","6107720cff13015082b48f4a","64d3ef96556dbe1f0e02b5aa","64db8285611258ee3f26b545","","","","","","","","","","","","","","","","","","","","","","","","406.00000000113926","323.99","2297.4000000059605","","","","","","","","","","","","",""
"","","","","","html-keyboard-response","44","122024","0.0-9.0-1.13","6107720cff13015082b48f4a","64d3ef96556dbe1f0e02b5aa","64db8285611258ee3f26b545","","","","","","","","","","","","","","","","","","reconstruct","","","","","","406.00000000113926","323.99","2297.4000000059605","","","","","","","","","","14","5","625","250"
"","","","","","html-keyboard-response","45","125033","0.0-9.0-0.14","6107720cff13015082b48f4a","64d3ef96556dbe1f0e02b5aa","64db8285611258ee3f26b545","","null","","","","","","","","","","","","","null","","","fallScene","","","","","","","","","","","","true","62.01321000000004","604.4000000000001","667.6211431702998","201.78","9","15","","",""
"","","","","","html-keyboard-response","46","127821","0.0-9.0-1.14","6107720cff13015082b48f4a","64d3ef96556dbe1f0e02b5aa","64db8285611258ee3f26b545","","","","","","","","","","","","","","","","","","","","","","","","395.00957894967587","313.99712881155136","2785.2000000029802","","","","","","","","","","","","",""
"","","","","","html-keyboard-response","46","127821","0.0-9.0-1.14","6107720cff13015082b48f4a","64d3ef96556dbe1f0e02b5aa","64db8285611258ee3f26b545","","","","","","","","","","","","","","","","","","reconstruct","","","","","","395.00957894967587","313.99712881155136","2785.2000000029802","","","","","","","","","","15","2","375","350"
"","","","","","html-keyboard-response","47","130824","0.0-9.0-0.15","6107720cff13015082b48f4a","64d3ef96556dbe1f0e02b5aa","64db8285611258ee3f26b545","","null","","","","","","","","","","","","","null","","","fallScene","","","","","","","","","","","","false","60.00432000000001","500","553.4711431702997","282.51","7","16","","",""
"","","","","","html-keyboard-response","48","132882","0.0-9.0-1.15","6107720cff13015082b48f4a","64d3ef96556dbe1f0e02b5aa","64db8285611258ee3f26b545","","","","","","","","","","","","","","","","","","","","","","","","539.9900000641074","306.99996419295326","2056.7000000029802","","","","","","","","","","","","",""
"","","","","","html-keyboard-response","48","132882","0.0-9.0-1.15","6107720cff13015082b48f4a","64d3ef96556dbe1f0e02b5aa","64db8285611258ee3f26b545","","","","","","","","","","","","","","","","","","reconstruct","","","","","","539.9900000641074","306.99996419295326","2056.7000000029802","","","","","","","","","","16","4","500","350"
"","","","","","html-keyboard-response","49","135886","0.0-9.0-0.16","6107720cff13015082b48f4a","64d3ef96556dbe1f0e02b5aa","64db8285611258ee3f26b545","","null","","","","","","","","","","","","","null","","","fallScene","","","","","","","","","","","","false","60.00744000000064","500","479.92114317029973","330.87","6","17","","",""
"","","","","","html-keyboard-response","50","138268","0.0-9.0-1.16","6107720cff13015082b48f4a","64d3ef96556dbe1f0e02b5aa","64db8285611258ee3f26b545","","","","","","","","","","","","","","","","","","","","","","","","528.990001113576","348.0001492323022","2380.2000000029802","","","","","","","","","","","","",""
"","","","","","html-keyboard-response","50","138268","0.0-9.0-1.16","6107720cff13015082b48f4a","64d3ef96556dbe1f0e02b5aa","64db8285611258ee3f26b545","","","","","","","","","","","","","","","","","","reconstruct","","","","","","528.990001113576","348.0001492323022","2380.2000000029802","","","","","","","","","","17","5","625","250"
"","","","","","html-keyboard-response","51","141273","0.0-9.0-0.17","6107720cff13015082b48f4a","64d3ef96556dbe1f0e02b5aa","64db8285611258ee3f26b545","","null","","","","","","","","","","","","","null","","","fallScene","","","","","","","","","","","","true","60.0020399999991","322.3","379.3711431702997","245.25","1","18","","",""
"","","","","","html-keyboard-response","52","144530","0.0-9.0-1.17","6107720cff13015082b48f4a","64d3ef96556dbe1f0e02b5aa","64db8285611258ee3f26b545","","","","","","","","","","","","","","","","","","","","","","","","673.9929642521614","260.9928937877634","3255.9000000059605","","","","","","","","","","","","",""
"","","","","","html-keyboard-response","52","144530","0.0-9.0-1.17","6107720cff13015082b48f4a","64d3ef96556dbe1f0e02b5aa","64db8285611258ee3f26b545","","","","","","","","","","","","","","","","","","reconstruct","","","","","","673.9929642521614","260.9928937877634","3255.9000000059605","","","","","","","","","","18","5","625","250"
"","","","","","html-button-response","53","145579","0.0-10.0","6107720cff13015082b48f4a","64d3ef96556dbe1f0e02b5aa","64db8285611258ee3f26b545","","1046","","","","","","","","","","","","","0","","","","<p><span style = ""font-size:40px;"">BREAK</span></p><p>You are doing great! Click 'Next' when you are ready for the next set.</p>","","","","","","","","","","","","","","","","","","","",""
"","","","","","html-keyboard-response","54","148581","0.0-11.0-0.0","6107720cff13015082b48f4a","64d3ef96556dbe1f0e02b5aa","64db8285611258ee3f26b545","","null","","","","","","","","","","","","","null","","","fallScene","","","","","","","","","","","","false","61.994909999999855","322.3","379.3711431702997","245.25","1","19","","",""
"","","","","","html-keyboard-response","55","150904","0.0-11.0-1.0","6107720cff13015082b48f4a","64d3ef96556dbe1f0e02b5aa","64db8285611258ee3f26b545","","","","","","","","","","","","","","","","","","","","","","","","362.0096657185392","266.0025639588766","2322.5","","","","","","","","","","","","",""
"","","","","","html-keyboard-response","55","150904","0.0-11.0-1.0","6107720cff13015082b48f4a","64d3ef96556dbe1f0e02b5aa","64db8285611258ee3f26b545","","","","","","","","","","","","","","","","","","reconstruct","","","","","","362.0096657185392","266.0025639588766","2322.5","","","","","","","","","","19","6","625","350"
"","","","","","html-keyboard-response","56","153908","0.0-11.0-0.1","6107720cff13015082b48f4a","64d3ef96556dbe1f0e02b5aa","64db8285611258ee3f26b545","","null","","","","","","","","","","","","","null","","","fallScene","","","","","","","","","","","","false","62.01412499999999","500","510.8711431702997","369.03","8","20","","",""
"","","","","","html-keyboard-response","57","157604","0.0-11.0-1.1","6107720cff13015082b48f4a","64d3ef96556dbe1f0e02b5aa","64db8285611258ee3f26b545","","","","","","","","","","","","","","","","","","","","","","","","545.9998651541908","263.99999900174697","3694.2999999970198","","","","","","","","","","","","",""
"","","","","","html-keyboard-response","57","157604","0.0-11.0-1.1","6107720cff13015082b48f4a","64d3ef96556dbe1f0e02b5aa","64db8285611258ee3f26b545","","","","","","","","","","","","","","","","","","reconstruct","","","","","","545.9998651541908","263.99999900174697","3694.2999999970198","","","","","","","","","","20","5","625","250"
"","","","","","html-keyboard-response","58","160608","0.0-11.0-0.2","6107720cff13015082b48f4a","64d3ef96556dbe1f0e02b5aa","64db8285611258ee3f26b545","","null","","","","","","","","","","","","","null","","","fallScene","","","","","","","","","","","","true","62.00875700000068","322.3","308.07114317029976","253.89","2","21","","",""
"","","","","","html-keyboard-response","59","163743","0.0-11.0-1.2","6107720cff13015082b48f4a","64d3ef96556dbe1f0e02b5aa","64db8285611258ee3f26b545","","","","","","","","","","","","","","","","","","","","","","","","658.0099999999992","261.0000001234783","3132.5","","","","","","","","","","","","",""
"","","","","","html-keyboard-response","59","163743","0.0-11.0-1.2","6107720cff13015082b48f4a","64d3ef96556dbe1f0e02b5aa","64db8285611258ee3f26b545","","","","","","","","","","","","","","","","","","reconstruct","","","","","","658.0099999999992","261.0000001234783","3132.5","","","","","","","","","","21","3","500","250"
"","","","","","html-keyboard-response","60","166746","0.0-11.0-0.3","6107720cff13015082b48f4a","64d3ef96556dbe1f0e02b5aa","64db8285611258ee3f26b545","","null","","","","","","","","","","","","","null","","","fallScene","","","","","","","","","","","","false","60.00119999999937","500","453.67114317029973","210.33","5","22","","",""
"","","","","","html-keyboard-response","61","171458","0.0-11.0-1.3","6107720cff13015082b48f4a","64d3ef96556dbe1f0e02b5aa","64db8285611258ee3f26b545","","","","","","","","","","","","","","","","","","","","","","","","492.9900000620854","273.00003523783323","4711.20000000298","","","","","","","","","","","","",""
"","","","","","html-keyboard-response","61","171458","0.0-11.0-1.3","6107720cff13015082b48f4a","64d3ef96556dbe1f0e02b5aa","64db8285611258ee3f26b545","","","","","","","","","","","","","","","","","","reconstruct","","","","","","492.9900000620854","273.00003523783323","4711.20000000298","","","","","","","","","","22","4","500","350"
"","","","","","html-keyboard-response","62","174465","0.0-11.0-0.4","6107720cff13015082b48f4a","64d3ef96556dbe1f0e02b5aa","64db8285611258ee3f26b545","","null","","","","","","","","","","","","","null","","","fallScene","","","","","","","","","","","","false","62.01235599999942","500","479.92114317029973","330.87","6","23","","",""
"","","","","","html-keyboard-response","63","176370","0.0-11.0-1.4","6107720cff13015082b48f4a","64d3ef96556dbe1f0e02b5aa","64db8285611258ee3f26b545","","","","","","","","","","","","","","","","","","","","","","","","491.99104180160583","351.00444417388616","1904.7999999970198","","","","","","","","","","","","",""
"","","","","","html-keyboard-response","63","176371","0.0-11.0-1.4","6107720cff13015082b48f4a","64d3ef96556dbe1f0e02b5aa","64db8285611258ee3f26b545","","","","","","","","","","","","","","","","","","reconstruct","","","","","","491.99104180160583","351.00444417388616","1904.7999999970198","","","","","","","","","","23","2","375","350"
"","","","","","html-keyboard-response","64","179376","0.0-11.0-0.5","6107720cff13015082b48f4a","64d3ef96556dbe1f0e02b5aa","64db8285611258ee3f26b545","","null","","","","","","","","","","","","","null","","","fallScene","","","","","","","","","","","","true","60.00318000000087","604.4000000000001","667.6211431702998","201.78","9","24","","",""
"","","","","","html-keyboard-response","65","182116","0.0-11.0-1.5","6107720cff13015082b48f4a","64d3ef96556dbe1f0e02b5aa","64db8285611258ee3f26b545","","","","","","","","","","","","","","","","","","","","","","","","329.01","440","2740.4000000059605","","","","","","","","","","","","",""
"","","","","","html-keyboard-response","65","182116","0.0-11.0-1.5","6107720cff13015082b48f4a","64d3ef96556dbe1f0e02b5aa","64db8285611258ee3f26b545","","","","","","","","","","","","","","","","","","reconstruct","","","","","","329.01","440","2740.4000000059605","","","","","","","","","","24","3","500","250"
"","","","","","html-keyboard-response","66","185134","0.0-11.0-0.6","6107720cff13015082b48f4a","64d3ef96556dbe1f0e02b5aa","64db8285611258ee3f26b545","","null","","","","","","","","","","","","","null","","","fallScene","","","","","","","","","","","","true","57.007808999999305","322.3","356.42114317029973","357.87","4","25","","",""
"","","","","","html-keyboard-response","67","246195","0.0-11.0-1.6","6107720cff13015082b48f4a","64d3ef96556dbe1f0e02b5aa","64db8285611258ee3f26b545","","","","","","","","","","","","","","","","","","","","","","","","553.9905903573607","429.996614940857","61059.20000000298","","","","","","","","","","","","",""
"","","","","","html-keyboard-response","67","246195","0.0-11.0-1.6","6107720cff13015082b48f4a","64d3ef96556dbe1f0e02b5aa","64db8285611258ee3f26b545","","","","","","","","","","","","","","","","","","reconstruct","","","","","","553.9905903573607","429.996614940857","61059.20000000298","","","","","","","","","","25","4","500","350"
"","","","","","html-keyboard-response","68","249208","0.0-11.0-0.7","6107720cff13015082b48f4a","64d3ef96556dbe1f0e02b5aa","64db8285611258ee3f26b545","","null","","","","","","","","","","","","","null","","","fallScene","","","","","","","","","","","","true","50.826799999999636","604.4000000000001","650.0211431702996","404.58000000000004","11","26","","",""
"","","","","","html-keyboard-response","69","251900","0.0-11.0-1.7","6107720cff13015082b48f4a","64d3ef96556dbe1f0e02b5aa","64db8285611258ee3f26b545","","","","","","","","","","","","","","","","","","","","","","","","323.9900185582186","408.00060894988655","2691.1000000089407","","","","","","","","","","","","",""
"","","","","","html-keyboard-response","69","251901","0.0-11.0-1.7","6107720cff13015082b48f4a","64d3ef96556dbe1f0e02b5aa","64db8285611258ee3f26b545","","","","","","","","","","","","","","","","","","reconstruct","","","","","","323.9900185582186","408.00060894988655","2691.1000000089407","","","","","","","","","","26","4","500","350"
"","","","","","html-keyboard-response","70","254914","0.0-11.0-0.8","6107720cff13015082b48f4a","64d3ef96556dbe1f0e02b5aa","64db8285611258ee3f26b545","","null","","","","","","","","","","","","","null","","","fallScene","","","","","","","","","","","","true","58.96668599999923","604.4000000000001","596.8711431702998","394.5","10","27","","",""
"","","","","","html-keyboard-response","71","258129","0.0-11.0-1.8","6107720cff13015082b48f4a","64d3ef96556dbe1f0e02b5aa","64db8285611258ee3f26b545","","","","","","","","","","","","","","","","","","","","","","","","408.9910415981873","327.9955562361717","3213.800000011921","","","","","","","","","","","","",""
"","","","","","html-keyboard-response","71","258129","0.0-11.0-1.8","6107720cff13015082b48f4a","64d3ef96556dbe1f0e02b5aa","64db8285611258ee3f26b545","","","","","","","","","","","","","","","","","","reconstruct","","","","","","408.9910415981873","327.9955562361717","3213.800000011921","","","","","","","","","","27","6","625","350"
"","","","","","html-keyboard-response","72","261136","0.0-11.0-0.9","6107720cff13015082b48f4a","64d3ef96556dbe1f0e02b5aa","64db8285611258ee3f26b545","","null","","","","","","","","","","","","","null","","","fallScene","","","","","","","","","","","","false","55.91409999999975","500","553.4711431702997","282.51","7","28","","",""
"","","","","","html-keyboard-response","73","264831","0.0-11.0-1.9","6107720cff13015082b48f4a","64d3ef96556dbe1f0e02b5aa","64db8285611258ee3f26b545","","","","","","","","","","","","","","","","","","","","","","","","536.01","402.00000000001734","3693.9000000059605","","","","","","","","","","","","",""
"","","","","","html-keyboard-response","73","264831","0.0-11.0-1.9","6107720cff13015082b48f4a","64d3ef96556dbe1f0e02b5aa","64db8285611258ee3f26b545","","","","","","","","","","","","","","","","","","reconstruct","","","","","","536.01","402.00000000001734","3693.9000000059605","","","","","","","","","","28","6","625","350"
"","","","","","html-keyboard-response","74","267838","0.0-11.0-0.10","6107720cff13015082b48f4a","64d3ef96556dbe1f0e02b5aa","64db8285611258ee3f26b545","","null","","","","","","","","","","","","","null","","","fallScene","","","","","","","","","","","","false","55.000659999999336","604.4000000000001","575.4211431702997","266.76","12","29","","",""
"","","","","","html-keyboard-response","75","271527","0.0-11.0-1.10","6107720cff13015082b48f4a","64d3ef96556dbe1f0e02b5aa","64db8285611258ee3f26b545","","","","","","","","","","","","","","","","","","","","","","","","536.9999998518377","480.9900000000011","3687.7999999970198","","","","","","","","","","","","",""
"","","","","","html-keyboard-response","75","271527","0.0-11.0-1.10","6107720cff13015082b48f4a","64d3ef96556dbe1f0e02b5aa","64db8285611258ee3f26b545","","","","","","","","","","","","","","","","","","reconstruct","","","","","","536.9999998518377","480.9900000000011","3687.7999999970198","","","","","","","","","","29","3","500","250"
"","","","","","html-keyboard-response","76","274539","0.0-11.0-0.11","6107720cff13015082b48f4a","64d3ef96556dbe1f0e02b5aa","64db8285611258ee3f26b545","","null","","","","","","","","","","","","","null","","","fallScene","","","","","","","","","","","","false","52.8659040000001","604.4000000000001","596.8711431702998","394.5","10","30","","",""
"","","","","","html-keyboard-response","77","279425","0.0-11.0-1.11","6107720cff13015082b48f4a","64d3ef96556dbe1f0e02b5aa","64db8285611258ee3f26b545","","","","","","","","","","","","","","","","","","","","","","","","573.99","292.9999999999983","4886","","","","","","","","","","","","",""
"","","","","","html-keyboard-response","77","279425","0.0-11.0-1.11","6107720cff13015082b48f4a","64d3ef96556dbe1f0e02b5aa","64db8285611258ee3f26b545","","","","","","","","","","","","","","","","","","reconstruct","","","","","","573.99","292.9999999999983","4886","","","","","","","","","","30","2","375","350"
"","","","","","html-keyboard-response","78","282431","0.0-11.0-0.12","6107720cff13015082b48f4a","64d3ef96556dbe1f0e02b5aa","64db8285611258ee3f26b545","","null","","","","","","","","","","","","","null","","","fallScene","","","","","","","","","","","","true","55.9173450000002","500","553.4711431702997","282.51","7","31","","",""
"","","","","","html-keyboard-response","79","285829","0.0-11.0-1.12","6107720cff13015082b48f4a","64d3ef96556dbe1f0e02b5aa","64db8285611258ee3f26b545","","","","","","","","","","","","","","","","","","","","","","","","525.002745269531","445.99038420595053","3396.2000000029802","","","","","","","","","","","","",""
"","","","","","html-keyboard-response","79","285829","0.0-11.0-1.12","6107720cff13015082b48f4a","64d3ef96556dbe1f0e02b5aa","64db8285611258ee3f26b545","","","","","","","","","","","","","","","","","","reconstruct","","","","","","525.002745269531","445.99038420595053","3396.2000000029802","","","","","","","","","","31","3","500","250"
"","","","","","html-keyboard-response","80","288838","0.0-11.0-0.13","6107720cff13015082b48f4a","64d3ef96556dbe1f0e02b5aa","64db8285611258ee3f26b545","","null","","","","","","","","","","","","","null","","","fallScene","","","","","","","","","","","","false","49.00166599999926","500","453.67114317029973","210.33","5","32","","",""
"","","","","","html-keyboard-response","81","292937","0.0-11.0-1.13","6107720cff13015082b48f4a","64d3ef96556dbe1f0e02b5aa","64db8285611258ee3f26b545","","","","","","","","","","","","","","","","","","","","","","","","509.00999999995173","413.9999990181589","4098.5","","","","","","","","","","","","",""
"","","","","","html-keyboard-response","81","292937","0.0-11.0-1.13","6107720cff13015082b48f4a","64d3ef96556dbe1f0e02b5aa","64db8285611258ee3f26b545","","","","","","","","","","","","","","","","","","reconstruct","","","","","","509.00999999995173","413.9999990181589","4098.5","","","","","","","","","","32","6","625","350"
"","","","","","html-keyboard-response","82","295947","0.0-11.0-0.14","6107720cff13015082b48f4a","64d3ef96556dbe1f0e02b5aa","64db8285611258ee3f26b545","","null","","","","","","","","","","","","","null","","","fallScene","","","","","","","","","","","","true","49.812027999999295","322.3","356.42114317029973","357.87","4","33","","",""
"","","","","","html-keyboard-response","83","302836","0.0-11.0-1.14","6107720cff13015082b48f4a","64d3ef96556dbe1f0e02b5aa","64db8285611258ee3f26b545","","","","","","","","","","","","","","","","","","","","","","","","563.0099970383036","260.0002433621901","6887.899999991059","","","","","","","","","","","","",""
"","","","","","html-keyboard-response","83","302836","0.0-11.0-1.14","6107720cff13015082b48f4a","64d3ef96556dbe1f0e02b5aa","64db8285611258ee3f26b545","","","","","","","","","","","","","","","","","","reconstruct","","","","","","563.0099970383036","260.0002433621901","6887.899999991059","","","","","","","","","","33","1","375","250"
"","","","","","html-keyboard-response","84","305846","0.0-11.0-0.15","6107720cff13015082b48f4a","64d3ef96556dbe1f0e02b5aa","64db8285611258ee3f26b545","","null","","","","","","","","","","","","","null","","","fallScene","","","","","","","","","","","","true","46.76686599999876","604.4000000000001","575.4211431702997","266.76","12","34","","",""
"","","","","","html-keyboard-response","85","310417","0.0-11.0-1.15","6107720cff13015082b48f4a","64d3ef96556dbe1f0e02b5aa","64db8285611258ee3f26b545","","","","","","","","","","","","","","","","","","","","","","","","527.0039796013185","450.9908259728938","4570","","","","","","","","","","","","",""
"","","","","","html-keyboard-response","85","310417","0.0-11.0-1.15","6107720cff13015082b48f4a","64d3ef96556dbe1f0e02b5aa","64db8285611258ee3f26b545","","","","","","","","","","","","","","","","","","reconstruct","","","","","","527.0039796013185","450.9908259728938","4570","","","","","","","","","","34","4","500","350"
"","","","","","html-keyboard-response","86","313428","0.0-11.0-0.16","6107720cff13015082b48f4a","64d3ef96556dbe1f0e02b5aa","64db8285611258ee3f26b545","","null","","","","","","","","","","","","","null","","","fallScene","","","","","","","","","","","","true","46.76451999999979","322.3","356.42114317029973","357.87","4","35","","",""
"","","","","","html-keyboard-response","87","316893","0.0-11.0-1.16","6107720cff13015082b48f4a","64d3ef96556dbe1f0e02b5aa","64db8285611258ee3f26b545","","","","","","","","","","","","","","","","","","","","","","","","659.9999000022651","275.00999950001017","3464.5","","","","","","","","","","","","",""
"","","","","","html-keyboard-response","87","316893","0.0-11.0-1.16","6107720cff13015082b48f4a","64d3ef96556dbe1f0e02b5aa","64db8285611258ee3f26b545","","","","","","","","","","","","","","","","","","reconstruct","","","","","","659.9999000022651","275.00999950001017","3464.5","","","","","","","","","","35","3","500","250"
"","","","","","html-keyboard-response","88","319902","0.0-11.0-0.17","6107720cff13015082b48f4a","64d3ef96556dbe1f0e02b5aa","64db8285611258ee3f26b545","","null","","","","","","","","","","","","","null","","","fallScene","","","","","","","","","","","","true","44.73237999999826","322.3","308.07114317029976","253.89","2","36","","",""
"","","","","","html-keyboard-response","89","328591","0.0-11.0-1.17","6107720cff13015082b48f4a","64d3ef96556dbe1f0e02b5aa","64db8285611258ee3f26b545","","","","","","","","","","","","","","","","","","","","","","","","595.9900000000123","368.9999995050114","8688.10000000894","","","","","","","","","","","","",""
"","","","","","html-keyboard-response","89","328591","0.0-11.0-1.17","6107720cff13015082b48f4a","64d3ef96556dbe1f0e02b5aa","64db8285611258ee3f26b545","","","","","","","","","","","","","","","","","","reconstruct","","","","","","595.9900000000123","368.9999995050114","8688.10000000894","","","","","","","","","","36","5","625","250"
"","","","","","html-button-response","90","420345","0.0-12.0","6107720cff13015082b48f4a","64d3ef96556dbe1f0e02b5aa","64db8285611258ee3f26b545","","91749","","","","","","","","","","","","","0","","","","<p><span style = ""font-size:40px;"">BREAK</span></p><p>You are halfway done! Click 'Next' when you are ready for the next set.</p>","","","","","","","","","","","","","","","","","","","",""
"","","","","","html-keyboard-response","91","423353","0.0-13.0-0.0","6107720cff13015082b48f4a","64d3ef96556dbe1f0e02b5aa","64db8285611258ee3f26b545","","null","","","","","","","","","","","","","null","","","fallScene","","","","","","","","","","","","false","43.72016400000093","604.4000000000001","575.4211431702997","266.76","12","37","","",""
"","","","","","html-keyboard-response","92","425861","0.0-13.0-1.0","6107720cff13015082b48f4a","64d3ef96556dbe1f0e02b5aa","64db8285611258ee3f26b545","","","","","","","","","","","","","","","","","","","","","","","","585.9999386256679","327.0099998116578","2507.0999999940395","","","","","","","","","","","","",""
"","","","","","html-keyboard-response","92","425861","0.0-13.0-1.0","6107720cff13015082b48f4a","64d3ef96556dbe1f0e02b5aa","64db8285611258ee3f26b545","","","","","","","","","","","","","","","","","","reconstruct","","","","","","585.9999386256679","327.0099998116578","2507.0999999940395","","","","","","","","","","37","2","375","350"
"","","","","","html-keyboard-response","93","428869","0.0-13.0-0.1","6107720cff13015082b48f4a","64d3ef96556dbe1f0e02b5aa","64db8285611258ee3f26b545","","null","","","","","","","","","","","","","null","","","fallScene","","","","","","","","","","","","true","45.76679999999906","604.4000000000001","650.0211431702996","404.58000000000004","11","38","","",""
"","","","","","html-keyboard-response","94","433643","0.0-13.0-1.1","6107720cff13015082b48f4a","64d3ef96556dbe1f0e02b5aa","64db8285611258ee3f26b545","","","","","","","","","","","","","","","","","","","","","","","","311.0089439052497","384.00447286920047","4772.5","","","","","","","","","","","","",""
"","","","","","html-keyboard-response","94","433643","0.0-13.0-1.1","6107720cff13015082b48f4a","64d3ef96556dbe1f0e02b5aa","64db8285611258ee3f26b545","","","","","","","","","","","","","","","","","","reconstruct","","","","","","311.0089439052497","384.00447286920047","4772.5","","","","","","","","","","38","1","375","250"
"","","","","","html-keyboard-response","95","436650","0.0-13.0-0.2","6107720cff13015082b48f4a","64d3ef96556dbe1f0e02b5aa","64db8285611258ee3f26b545","","null","","","","","","","","","","","","","null","","","fallScene","","","","","","","","","","","","false","46.76493400000071","604.4000000000001","667.6211431702998","201.78","9","39","","",""
"","","","","","html-keyboard-response","96","442080","0.0-13.0-1.2","6107720cff13015082b48f4a","64d3ef96556dbe1f0e02b5aa","64db8285611258ee3f26b545","","","","","","","","","","","","","","","","","","","","","","","","649.0099966057015","279.0002605272481","5429","","","","","","","","","","","","",""
"","","","","","html-keyboard-response","96","442080","0.0-13.0-1.2","6107720cff13015082b48f4a","64d3ef96556dbe1f0e02b5aa","64db8285611258ee3f26b545","","","","","","","","","","","","","","","","","","reconstruct","","","","","","649.0099966057015","279.0002605272481","5429","","","","","","","","","","39","6","625","350"
"","","","","","html-keyboard-response","97","445099","0.0-13.0-0.3","6107720cff13015082b48f4a","64d3ef96556dbe1f0e02b5aa","64db8285611258ee3f26b545","","null","","","","","","","","","","","","","null","","","fallScene","","","","","","","","","","","","false","41.68392099999928","322.3","296.07114317029976","371.46","3","40","","",""
"","","","","","html-keyboard-response","98","449242","0.0-13.0-1.3","6107720cff13015082b48f4a","64d3ef96556dbe1f0e02b5aa","64db8285611258ee3f26b545","","","","","","","","","","","","","","","","","","","","","","","","431.9901618142258","392.9982083246186","4142.79999999702","","","","","","","","","","","","",""
"","","","","","html-keyboard-response","98","449242","0.0-13.0-1.3","6107720cff13015082b48f4a","64d3ef96556dbe1f0e02b5aa","64db8285611258ee3f26b545","","","","","","","","","","","","","","","","","","reconstruct","","","","","","431.9901618142258","392.9982083246186","4142.79999999702","","","","","","","","","","40","4","500","350"
"","","","","","html-keyboard-response","99","452252","0.0-13.0-0.4","6107720cff13015082b48f4a","64d3ef96556dbe1f0e02b5aa","64db8285611258ee3f26b545","","null","","","","","","","","","","","","","null","","","fallScene","","","","","","","","","","","","true","37.00321899999998","604.4000000000001","650.0211431702996","404.58000000000004","11","41","","",""
"","","","","","html-keyboard-response","100","458012","0.0-13.0-1.4","6107720cff13015082b48f4a","64d3ef96556dbe1f0e02b5aa","64db8285611258ee3f26b545","","","","","","","","","","","","","","","","","","","","","","","","493.00999999999885","419.9999998471837","5759.79999999702","","","","","","","","","","","","",""
"","","","","","html-keyboard-response","100","458012","0.0-13.0-1.4","6107720cff13015082b48f4a","64d3ef96556dbe1f0e02b5aa","64db8285611258ee3f26b545","","","","","","","","","","","","","","","","","","reconstruct","","","","","","493.00999999999885","419.9999998471837","5759.79999999702","","","","","","","","","","41","2","375","350"
"","","","","","html-keyboard-response","101","461021","0.0-13.0-0.5","6107720cff13015082b48f4a","64d3ef96556dbe1f0e02b5aa","64db8285611258ee3f26b545","","null","","","","","","","","","","","","","null","","","fallScene","","","","","","","","","","","","true","37.0008509999995","604.4000000000001","667.6211431702998","201.78","9","42","","",""
"","","","","","html-keyboard-response","102","464017","0.0-13.0-1.5","6107720cff13015082b48f4a","64d3ef96556dbe1f0e02b5aa","64db8285611258ee3f26b545","","","","","","","","","","","","","","","","","","","","","","","","290.99000014384137","461.9999463641297","2995.2000000029802","","","","","","","","","","","","",""
"","","","","","html-keyboard-response","102","464017","0.0-13.0-1.5","6107720cff13015082b48f4a","64d3ef96556dbe1f0e02b5aa","64db8285611258ee3f26b545","","","","","","","","","","","","","","","","","","reconstruct","","","","","","290.99000014384137","461.9999463641297","2995.2000000029802","","","","","","","","","","42","4","500","350"
"","","","","","html-keyboard-response","103","467027","0.0-13.0-0.6","6107720cff13015082b48f4a","64d3ef96556dbe1f0e02b5aa","64db8285611258ee3f26b545","","null","","","","","","","","","","","","","null","","","fallScene","","","","","","","","","","","","false","37.61764100000106","322.3","296.07114317029976","371.46","3","43","","",""
"","","","","","html-keyboard-response","104","473910","0.0-13.0-1.6","6107720cff13015082b48f4a","64d3ef96556dbe1f0e02b5aa","64db8285611258ee3f26b545","","","","","","","","","","","","","","","","","","","","","","","","308.0000360090889","440.99000006483294","6882.4000000059605","","","","","","","","","","","","",""
"","","","","","html-keyboard-response","104","473910","0.0-13.0-1.6","6107720cff13015082b48f4a","64d3ef96556dbe1f0e02b5aa","64db8285611258ee3f26b545","","","","","","","","","","","","","","","","","","reconstruct","","","","","","308.0000360090889","440.99000006483294","6882.4000000059605","","","","","","","","","","43","1","375","250"
"","","","","","html-keyboard-response","105","476919","0.0-13.0-0.7","6107720cff13015082b48f4a","64d3ef96556dbe1f0e02b5aa","64db8285611258ee3f26b545","","null","","","","","","","","","","","","","null","","","fallScene","","","","","","","","","","","","false","33.55232100000075","500","510.8711431702997","369.03","8","44","","",""
"","","","","","html-keyboard-response","106","481354","0.0-13.0-1.7","6107720cff13015082b48f4a","64d3ef96556dbe1f0e02b5aa","64db8285611258ee3f26b545","","","","","","","","","","","","","","","","","","","","","","","","513.990506592553","430.99685751451165","4432.5","","","","","","","","","","","","",""
"","","","","","html-keyboard-response","106","481354","0.0-13.0-1.7","6107720cff13015082b48f4a","64d3ef96556dbe1f0e02b5aa","64db8285611258ee3f26b545","","","","","","","","","","","","","","","","","","reconstruct","","","","","","513.990506592553","430.99685751451165","4432.5","","","","","","","","","","44","2","375","350"
"","","","","","html-keyboard-response","107","484365","0.0-13.0-0.8","6107720cff13015082b48f4a","64d3ef96556dbe1f0e02b5aa","64db8285611258ee3f26b545","","null","","","","","","","","","","","","","null","","","fallScene","","","","","","","","","","","","false","37.62359799999971","500","453.67114317029973","210.33","5","45","","",""
"","","","","","html-keyboard-response","108","497944","0.0-13.0-1.8","6107720cff13015082b48f4a","64d3ef96556dbe1f0e02b5aa","64db8285611258ee3f26b545","","","","","","","","","","","","","","","","","","","","","","","","545.0000462185753","337.9900001068084","13578.5","","","","","","","","","","","","",""
"","","","","","html-keyboard-response","108","497944","0.0-13.0-1.8","6107720cff13015082b48f4a","64d3ef96556dbe1f0e02b5aa","64db8285611258ee3f26b545","","","","","","","","","","","","","","","","","","reconstruct","","","","","","545.0000462185753","337.9900001068084","13578.5","","","","","","","","","","45","5","625","250"
"","","","","","html-keyboard-response","109","500964","0.0-13.0-0.9","6107720cff13015082b48f4a","64d3ef96556dbe1f0e02b5aa","64db8285611258ee3f26b545","","null","","","","","","","","","","","","","null","","","fallScene","","","","","","","","","","","","true","34.0936530000001","500","553.4711431702997","282.51","7","46","","",""
"","","","","","html-keyboard-response","110","505507","0.0-13.0-1.9","6107720cff13015082b48f4a","64d3ef96556dbe1f0e02b5aa","64db8285611258ee3f26b545","","","","","","","","","","","","","","","","","","","","","","","","482.0099994665199","394.99989670761363","4542.5","","","","","","","","","","","","",""
"","","","","","html-keyboard-response","110","505507","0.0-13.0-1.9","6107720cff13015082b48f4a","64d3ef96556dbe1f0e02b5aa","64db8285611258ee3f26b545","","","","","","","","","","","","","","","","","","reconstruct","","","","","","482.0099994665199","394.99989670761363","4542.5","","","","","","","","","","46","1","375","250"
"","","","","","html-keyboard-response","111","508516","0.0-13.0-0.10","6107720cff13015082b48f4a","64d3ef96556dbe1f0e02b5aa","64db8285611258ee3f26b545","","null","","","","","","","","","","","","","null","","","fallScene","","","","","","","","","","","","false","35.59366999999998","322.3","296.07114317029976","371.46","3","47","","",""
"","","","","","html-keyboard-response","112","512390","0.0-13.0-1.10","6107720cff13015082b48f4a","64d3ef96556dbe1f0e02b5aa","64db8285611258ee3f26b545","","","","","","","","","","","","","","","","","","","","","","","","296.0045078403411","408.0089263304588","3873.7999999970198","","","","","","","","","","","","",""
"","","","","","html-keyboard-response","112","512390","0.0-13.0-1.10","6107720cff13015082b48f4a","64d3ef96556dbe1f0e02b5aa","64db8285611258ee3f26b545","","","","","","","","","","","","","","","","","","reconstruct","","","","","","296.0045078403411","408.0089263304588","3873.7999999970198","","","","","","","","","","47","6","625","350"
"","","","","","html-keyboard-response","113","515398","0.0-13.0-0.11","6107720cff13015082b48f4a","64d3ef96556dbe1f0e02b5aa","64db8285611258ee3f26b545","","null","","","","","","","","","","","","","null","","","fallScene","","","","","","","","","","","","false","36.587628000001196","500","510.8711431702997","369.03","8","48","","",""
"","","","","","html-keyboard-response","114","520498","0.0-13.0-1.11","6107720cff13015082b48f4a","64d3ef96556dbe1f0e02b5aa","64db8285611258ee3f26b545","","","","","","","","","","","","","","","","","","","","","","","","550.0089393574614","443.99551804861943","5099.5999999940395","","","","","","","","","","","","",""
"","","","","","html-keyboard-response","114","520498","0.0-13.0-1.11","6107720cff13015082b48f4a","64d3ef96556dbe1f0e02b5aa","64db8285611258ee3f26b545","","","","","","","","","","","","","","","","","","reconstruct","","","","","","550.0089393574614","443.99551804861943","5099.5999999940395","","","","","","","","","","48","3","500","250"
"","","","","","html-keyboard-response","115","523508","0.0-13.0-0.12","6107720cff13015082b48f4a","64d3ef96556dbe1f0e02b5aa","64db8285611258ee3f26b545","","null","","","","","","","","","","","","","null","","","fallScene","","","","","","","","","","","","true","31.523776000000247","604.4000000000001","575.4211431702997","266.76","12","49","","",""
"","","","","","html-keyboard-response","116","527374","0.0-13.0-1.12","6107720cff13015082b48f4a","64d3ef96556dbe1f0e02b5aa","64db8285611258ee3f26b545","","","","","","","","","","","","","","","","","","","","","","","","343.0082478232954","413.0044450727497","3865.3999999910593","","","","","","","","","","","","",""
"","","","","","html-keyboard-response","116","527374","0.0-13.0-1.12","6107720cff13015082b48f4a","64d3ef96556dbe1f0e02b5aa","64db8285611258ee3f26b545","","","","","","","","","","","","","","","","","","reconstruct","","","","","","343.0082478232954","413.0044450727497","3865.3999999910593","","","","","","","","","","49","1","375","250"
"","","","","","html-keyboard-response","117","530384","0.0-13.0-0.13","6107720cff13015082b48f4a","64d3ef96556dbe1f0e02b5aa","64db8285611258ee3f26b545","","null","","","","","","","","","","","","","null","","","fallScene","","","","","","","","","","","","true","34.0984379999988","322.3","379.3711431702997","245.25","1","50","","",""
"","","","","","html-keyboard-response","118","535558","0.0-13.0-1.13","6107720cff13015082b48f4a","64d3ef96556dbe1f0e02b5aa","64db8285611258ee3f26b545","","","","","","","","","","","","","","","","","","","","","","","","650.990106040921","225.99854756282676","5173.79999999702","","","","","","","","","","","","",""
"","","","","","html-keyboard-response","118","535558","0.0-13.0-1.13","6107720cff13015082b48f4a","64d3ef96556dbe1f0e02b5aa","64db8285611258ee3f26b545","","","","","","","","","","","","","","","","","","reconstruct","","","","","","650.990106040921","225.99854756282676","5173.79999999702","","","","","","","","","","50","4","500","350"
"","","","","","html-keyboard-response","119","538563","0.0-13.0-0.14","6107720cff13015082b48f4a","64d3ef96556dbe1f0e02b5aa","64db8285611258ee3f26b545","","null","","","","","","","","","","","","","null","","","fallScene","","","","","","","","","","","","false","37.61338600000355","500","510.8711431702997","369.03","8","51","","",""
"","","","","","html-keyboard-response","120","542394","0.0-13.0-1.14","6107720cff13015082b48f4a","64d3ef96556dbe1f0e02b5aa","64db8285611258ee3f26b545","","","","","","","","","","","","","","","","","","","","","","","","374.00004999841667","393.9900001249929","3830.2000000029802","","","","","","","","","","","","",""
"","","","","","html-keyboard-response","120","542395","0.0-13.0-1.14","6107720cff13015082b48f4a","64d3ef96556dbe1f0e02b5aa","64db8285611258ee3f26b545","","","","","","","","","","","","","","","","","","reconstruct","","","","","","374.00004999841667","393.9900001249929","3830.2000000029802","","","","","","","","","","51","4","500","350"
"","","","","","html-keyboard-response","121","545401","0.0-13.0-0.15","6107720cff13015082b48f4a","64d3ef96556dbe1f0e02b5aa","64db8285611258ee3f26b545","","null","","","","","","","","","","","","","null","","","fallScene","","","","","","","","","","","","false","37.00987899999972","322.3","296.07114317029976","371.46","3","52","","",""
"","","","","","html-keyboard-response","122","551521","0.0-13.0-1.15","6107720cff13015082b48f4a","64d3ef96556dbe1f0e02b5aa","64db8285611258ee3f26b545","","","","","","","","","","","","","","","","","","","","","","","","288.00000047564663","241.00999999998868","6118.600000008941","","","","","","","","","","","","",""
"","","","","","html-keyboard-response","122","551521","0.0-13.0-1.15","6107720cff13015082b48f4a","64d3ef96556dbe1f0e02b5aa","64db8285611258ee3f26b545","","","","","","","","","","","","","","","","","","reconstruct","","","","","","288.00000047564663","241.00999999998868","6118.600000008941","","","","","","","","","","52","5","625","250"
"","","","","","html-keyboard-response","123","554529","0.0-13.0-0.16","6107720cff13015082b48f4a","64d3ef96556dbe1f0e02b5aa","64db8285611258ee3f26b545","","null","","","","","","","","","","","","","null","","","fallScene","","","","","","","","","","","","false","41.674409000000914","604.4000000000001","650.0211431702996","404.58000000000004","11","53","","",""
"","","","","","html-keyboard-response","124","559509","0.0-13.0-1.16","6107720cff13015082b48f4a","64d3ef96556dbe1f0e02b5aa","64db8285611258ee3f26b545","","","","","","","","","","","","","","","","","","","","","","","","734.9997618992129","418.0099971649989","4979.0999999940395","","","","","","","","","","","","",""
"","","","","","html-keyboard-response","124","559509","0.0-13.0-1.16","6107720cff13015082b48f4a","64d3ef96556dbe1f0e02b5aa","64db8285611258ee3f26b545","","","","","","","","","","","","","","","","","","reconstruct","","","","","","734.9997618992129","418.0099971649989","4979.0999999940395","","","","","","","","","","53","3","500","250"
"","","","","","html-keyboard-response","125","562518","0.0-13.0-0.17","6107720cff13015082b48f4a","64d3ef96556dbe1f0e02b5aa","64db8285611258ee3f26b545","","null","","","","","","","","","","","","","null","","","fallScene","","","","","","","","","","","","false","39.26144799999986","604.4000000000001","596.8711431702998","394.5","10","54","","",""
"","","","","","html-keyboard-response","126","566953","0.0-13.0-1.17","6107720cff13015082b48f4a","64d3ef96556dbe1f0e02b5aa","64db8285611258ee3f26b545","","","","","","","","","","","","","","","","","","","","","","","","639.9910729998","359.0045065138887","4434.5","","","","","","","","","","","","",""
"","","","","","html-keyboard-response","126","566953","0.0-13.0-1.17","6107720cff13015082b48f4a","64d3ef96556dbe1f0e02b5aa","64db8285611258ee3f26b545","","","","","","","","","","","","","","","","","","reconstruct","","","","","","639.9910729998","359.0045065138887","4434.5","","","","","","","","","","54","4","500","350"
"","","","","","html-button-response","127","775415","0.0-14.0","6107720cff13015082b48f4a","64d3ef96556dbe1f0e02b5aa","64db8285611258ee3f26b545","","208452","","","","","","","","","","","","","0","","","","<p><span style = ""font-size:40px;"">BREAK</span></p><p>You are almost done! Click 'Next' when you are ready for the next set.</p>","","","","","","","","","","","","","","","","","","","",""
"","","","","","html-keyboard-response","128","778442","0.0-15.0-0.0","6107720cff13015082b48f4a","64d3ef96556dbe1f0e02b5aa","64db8285611258ee3f26b545","","null","","","","","","","","","","","","","null","","","fallScene","","","","","","","","","","","","false","35.12747400000273","500","453.67114317029973","210.33","5","55","","",""
"","","","","","html-keyboard-response","129","785180","0.0-15.0-1.0","6107720cff13015082b48f4a","64d3ef96556dbe1f0e02b5aa","64db8285611258ee3f26b545","","","","","","","","","","","","","","","","","","","","","","","","444.9900000477609","385.0000309065533","6737.29999999702","","","","","","","","","","","","",""
"","","","","","html-keyboard-response","129","785180","0.0-15.0-1.0","6107720cff13015082b48f4a","64d3ef96556dbe1f0e02b5aa","64db8285611258ee3f26b545","","","","","","","","","","","","","","","","","","reconstruct","","","","","","444.9900000477609","385.0000309065533","6737.29999999702","","","","","","","","","","55","2","375","350"
"","","","","","html-keyboard-response","130","788186","0.0-15.0-0.1","6107720cff13015082b48f4a","64d3ef96556dbe1f0e02b5aa","64db8285611258ee3f26b545","","null","","","","","","","","","","","","","null","","","fallScene","","","","","","","","","","","","true","38.632890000001055","604.4000000000001","596.8711431702998","394.5","10","56","","",""
"","","","","","html-keyboard-response","131","791566","0.0-15.0-1.1","6107720cff13015082b48f4a","64d3ef96556dbe1f0e02b5aa","64db8285611258ee3f26b545","","","","","","","","","","","","","","","","","","","","","","","","415.00999999271403","304.99998792859463","3378.7000000029802","","","","","","","","","","","","",""
"","","","","","html-keyboard-response","131","791566","0.0-15.0-1.1","6107720cff13015082b48f4a","64d3ef96556dbe1f0e02b5aa","64db8285611258ee3f26b545","","","","","","","","","","","","","","","","","","reconstruct","","","","","","415.00999999271403","304.99998792859463","3378.7000000029802","","","","","","","","","","56","1","375","250"
"","","","","","html-keyboard-response","132","794575","0.0-15.0-0.2","6107720cff13015082b48f4a","64d3ef96556dbe1f0e02b5aa","64db8285611258ee3f26b545","","null","","","","","","","","","","","","","null","","","fallScene","","","","","","","","","","","","true","39.63811800000316","500","479.92114317029973","330.87","6","57","","",""
"","","","","","html-keyboard-response","133","797942","0.0-15.0-1.2","6107720cff13015082b48f4a","64d3ef96556dbe1f0e02b5aa","64db8285611258ee3f26b545","","","","","","","","","","","","","","","","","","","","","","","","473.0095521557476","402.9970408919294","3366.800000011921","","","","","","","","","","","","",""
"","","","","","html-keyboard-response","133","797942","0.0-15.0-1.2","6107720cff13015082b48f4a","64d3ef96556dbe1f0e02b5aa","64db8285611258ee3f26b545","","","","","","","","","","","","","","","","","","reconstruct","","","","","","473.0095521557476","402.9970408919294","3366.800000011921","","","","","","","","","","57","3","500","250"
"","","","","","html-keyboard-response","134","800949","0.0-15.0-0.3","6107720cff13015082b48f4a","64d3ef96556dbe1f0e02b5aa","64db8285611258ee3f26b545","","null","","","","","","","","","","","","","null","","","fallScene","","","","","","","","","","","","false","37.616161000001824","322.3","379.3711431702997","245.25","1","58","","",""
"","","","","","html-keyboard-response","135","805373","0.0-15.0-1.3","6107720cff13015082b48f4a","64d3ef96556dbe1f0e02b5aa","64db8285611258ee3f26b545","","","","","","","","","","","","","","","","","","","","","","","","366.0099999874934","301.0000158155474","4422.70000000298","","","","","","","","","","","","",""
"","","","","","html-keyboard-response","135","805373","0.0-15.0-1.3","6107720cff13015082b48f4a","64d3ef96556dbe1f0e02b5aa","64db8285611258ee3f26b545","","","","","","","","","","","","","","","","","","reconstruct","","","","","","366.0099999874934","301.0000158155474","4422.70000000298","","","","","","","","","","58","3","500","250"
"","","","","","html-keyboard-response","136","808378","0.0-15.0-0.4","6107720cff13015082b48f4a","64d3ef96556dbe1f0e02b5aa","64db8285611258ee3f26b545","","null","","","","","","","","","","","","","null","","","fallScene","","","","","","","","","","","","true","36.595583999999796","322.3","356.42114317029973","357.87","4","59","","",""
"","","","","","html-keyboard-response","137","813360","0.0-15.0-1.4","6107720cff13015082b48f4a","64d3ef96556dbe1f0e02b5aa","64db8285611258ee3f26b545","","","","","","","","","","","","","","","","","","","","","","","","622.9920311796758","408.0060413494056","4981.4000000059605","","","","","","","","","","","","",""
"","","","","","html-keyboard-response","137","813360","0.0-15.0-1.4","6107720cff13015082b48f4a","64d3ef96556dbe1f0e02b5aa","64db8285611258ee3f26b545","","","","","","","","","","","","","","","","","","reconstruct","","","","","","622.9920311796758","408.0060413494056","4981.4000000059605","","","","","","","","","","59","5","625","250"
"","","","","","html-keyboard-response","138","816369","0.0-15.0-0.5","6107720cff13015082b48f4a","64d3ef96556dbe1f0e02b5aa","64db8285611258ee3f26b545","","null","","","","","","","","","","","","","null","","","fallScene","","","","","","","","","","","","false","25.82792499999923","322.3","308.07114317029976","253.89","2","60","","",""
"","","","","","html-keyboard-response","139","828667","0.0-15.0-1.5","6107720cff13015082b48f4a","64d3ef96556dbe1f0e02b5aa","64db8285611258ee3f26b545","","","","","","","","","","","","","","","","","","","","","","","","541.9900512192061","308.0110724162583","12297.60000000894","","","","","","","","","","","","",""
"","","","","","html-keyboard-response","139","828667","0.0-15.0-1.5","6107720cff13015082b48f4a","64d3ef96556dbe1f0e02b5aa","64db8285611258ee3f26b545","","","","","","","","","","","","","","","","","","reconstruct","","","","","","541.9900512192061","308.0110724162583","12297.60000000894","","","","","","","","","","60","1","375","250"
"","","","","","html-keyboard-response","140","831679","0.0-15.0-0.6","6107720cff13015082b48f4a","64d3ef96556dbe1f0e02b5aa","64db8285611258ee3f26b545","","null","","","","","","","","","","","","","null","","","fallScene","","","","","","","","","","","","false","38.23172999999707","500","479.92114317029973","330.87","6","61","","",""
"","","","","","html-keyboard-response","141","834081","0.0-15.0-1.6","6107720cff13015082b48f4a","64d3ef96556dbe1f0e02b5aa","64db8285611258ee3f26b545","","","","","","","","","","","","","","","","","","","","","","","","512.99","340.99999999591654","2401.2000000029802","","","","","","","","","","","","",""
"","","","","","html-keyboard-response","141","834081","0.0-15.0-1.6","6107720cff13015082b48f4a","64d3ef96556dbe1f0e02b5aa","64db8285611258ee3f26b545","","","","","","","","","","","","","","","","","","reconstruct","","","","","","512.99","340.99999999591654","2401.2000000029802","","","","","","","","","","61","6","625","350"
"","","","","","html-keyboard-response","142","837087","0.0-15.0-0.7","6107720cff13015082b48f4a","64d3ef96556dbe1f0e02b5aa","64db8285611258ee3f26b545","","null","","","","","","","","","","","","","null","","","fallScene","","","","","","","","","","","","true","37.61823299999686","500","553.4711431702997","282.51","7","62","","",""
"","","","","","html-keyboard-response","143","840359","0.0-15.0-1.7","6107720cff13015082b48f4a","64d3ef96556dbe1f0e02b5aa","64db8285611258ee3f26b545","","","","","","","","","","","","","","","","","","","","","","","","443.99990347380805","375.99000046587616","3270.2999999970198","","","","","","","","","","","","",""
"","","","","","html-keyboard-response","143","840359","0.0-15.0-1.7","6107720cff13015082b48f4a","64d3ef96556dbe1f0e02b5aa","64db8285611258ee3f26b545","","","","","","","","","","","","","","","","","","reconstruct","","","","","","443.99990347380805","375.99000046587616","3270.2999999970198","","","","","","","","","","62","5","625","250"
"","","","","","html-keyboard-response","144","843366","0.0-15.0-0.8","6107720cff13015082b48f4a","64d3ef96556dbe1f0e02b5aa","64db8285611258ee3f26b545","","null","","","","","","","","","","","","","null","","","fallScene","","","","","","","","","","","","true","34.56205400000256","500","479.92114317029973","330.87","6","63","","",""
"","","","","","html-keyboard-response","145","847346","0.0-15.0-1.8","6107720cff13015082b48f4a","64d3ef96556dbe1f0e02b5aa","64db8285611258ee3f26b545","","","","","","","","","","","","","","","","","","","","","","","","480.00448892387004","394.9910641417598","3979","","","","","","","","","","","","",""
"","","","","","html-keyboard-response","145","847346","0.0-15.0-1.8","6107720cff13015082b48f4a","64d3ef96556dbe1f0e02b5aa","64db8285611258ee3f26b545","","","","","","","","","","","","","","","","","","reconstruct","","","","","","480.00448892387004","394.9910641417598","3979","","","","","","","","","","63","1","375","250"
"","","","","","html-keyboard-response","146","850360","0.0-15.0-0.9","6107720cff13015082b48f4a","64d3ef96556dbe1f0e02b5aa","64db8285611258ee3f26b545","","null","","","","","","","","","","","","","null","","","fallScene","","","","","","","","","","","","false","32.53545600000024","322.3","379.3711431702997","245.25","1","64","","",""
"","","","","","html-keyboard-response","147","856536","0.0-15.0-1.9","6107720cff13015082b48f4a","64d3ef96556dbe1f0e02b5aa","64db8285611258ee3f26b545","","","","","","","","","","","","","","","","","","","","","","","","337.9999939200525","303.9900000018483","6174.79999999702","","","","","","","","","","","","",""
"","","","","","html-keyboard-response","147","856536","0.0-15.0-1.9","6107720cff13015082b48f4a","64d3ef96556dbe1f0e02b5aa","64db8285611258ee3f26b545","","","","","","","","","","","","","","","","","","reconstruct","","","","","","337.9999939200525","303.9900000018483","6174.79999999702","","","","","","","","","","64","1","375","250"
"","","","","","html-keyboard-response","148","859544","0.0-15.0-0.10","6107720cff13015082b48f4a","64d3ef96556dbe1f0e02b5aa","64db8285611258ee3f26b545","","null","","","","","","","","","","","","","null","","","fallScene","","","","","","","","","","","","false","34.6470629999988","322.3","308.07114317029976","253.89","2","65","","",""
"","","","","","html-keyboard-response","149","862349","0.0-15.0-1.10","6107720cff13015082b48f4a","64d3ef96556dbe1f0e02b5aa","64db8285611258ee3f26b545","","","","","","","","","","","","","","","","","","","","","","","","397.99001652698973","274.9994253116907","2804.7999999970198","","","","","","","","","","","","",""
"","","","","","html-keyboard-response","149","862349","0.0-15.0-1.10","6107720cff13015082b48f4a","64d3ef96556dbe1f0e02b5aa","64db8285611258ee3f26b545","","","","","","","","","","","","","","","","","","reconstruct","","","","","","397.99001652698973","274.9994253116907","2804.7999999970198","","","","","","","","","","65","2","375","350"
"","","","","","html-keyboard-response","150","865355","0.0-15.0-0.11","6107720cff13015082b48f4a","64d3ef96556dbe1f0e02b5aa","64db8285611258ee3f26b545","","null","","","","","","","","","","","","","null","","","fallScene","","","","","","","","","","","","true","36.1667249999987","604.4000000000001","596.8711431702998","394.5","10","66","","",""
"","","","","","html-keyboard-response","151","869323","0.0-15.0-1.11","6107720cff13015082b48f4a","64d3ef96556dbe1f0e02b5aa","64db8285611258ee3f26b545","","","","","","","","","","","","","","","","","","","","","","","","405.9999444159151","297.9900001544807","3966.8999999910593","","","","","","","","","","","","",""
"","","","","","html-keyboard-response","151","869323","0.0-15.0-1.11","6107720cff13015082b48f4a","64d3ef96556dbe1f0e02b5aa","64db8285611258ee3f26b545","","","","","","","","","","","","","","","","","","reconstruct","","","","","","405.9999444159151","297.9900001544807","3966.8999999910593","","","","","","","","","","66","3","500","250"
"","","","","","html-keyboard-response","152","872338","0.0-15.0-0.12","6107720cff13015082b48f4a","64d3ef96556dbe1f0e02b5aa","64db8285611258ee3f26b545","","null","","","","","","","","","","","","","null","","","fallScene","","","","","","","","","","","","false","33.000363000001876","500","453.67114317029973","210.33","5","67","","",""
"","","","","","html-keyboard-response","153","874779","0.0-15.0-1.12","6107720cff13015082b48f4a","64d3ef96556dbe1f0e02b5aa","64db8285611258ee3f26b545","","","","","","","","","","","","","","","","","","","","","","","","576.0048323677881","336.9912451029955","2440.800000011921","","","","","","","","","","","","",""
"","","","","","html-keyboard-response","153","874780","0.0-15.0-1.12","6107720cff13015082b48f4a","64d3ef96556dbe1f0e02b5aa","64db8285611258ee3f26b545","","","","","","","","","","","","","","","","","","reconstruct","","","","","","576.0048323677881","336.9912451029955","2440.800000011921","","","","","","","","","","67","1","375","250"
"","","","","","html-keyboard-response","154","877796","0.0-15.0-0.13","6107720cff13015082b48f4a","64d3ef96556dbe1f0e02b5aa","64db8285611258ee3f26b545","","null","","","","","","","","","","","","","null","","","fallScene","","","","","","","","","","","","true","33.06473599999771","322.3","296.07114317029976","371.46","3","68","","",""
"","","","","","html-keyboard-response","155","880873","0.0-15.0-1.13","6107720cff13015082b48f4a","64d3ef96556dbe1f0e02b5aa","64db8285611258ee3f26b545","","","","","","","","","","","","","","","","","","","","","","","","714.0000000000175","295.01","3076","","","","","","","","","","","","",""
"","","","","","html-keyboard-response","155","880873","0.0-15.0-1.13","6107720cff13015082b48f4a","64d3ef96556dbe1f0e02b5aa","64db8285611258ee3f26b545","","","","","","","","","","","","","","","","","","reconstruct","","","","","","714.0000000000175","295.01","3076","","","","","","","","","","68","3","500","250"
"","","","","","html-keyboard-response","156","883884","0.0-15.0-0.14","6107720cff13015082b48f4a","64d3ef96556dbe1f0e02b5aa","64db8285611258ee3f26b545","","null","","","","","","","","","","","","","null","","","fallScene","","","","","","","","","","","","false","31.51742099999974","500","453.67114317029973","210.33","5","69","","",""
"","","","","","html-keyboard-response","157","886364","0.0-15.0-1.14","6107720cff13015082b48f4a","64d3ef96556dbe1f0e02b5aa","64db8285611258ee3f26b545","","","","","","","","","","","","","","","","","","","","","","","","507.00002301613955","345.99000002648717","2478","","","","","","","","","","","","",""
"","","","","","html-keyboard-response","157","886364","0.0-15.0-1.14","6107720cff13015082b48f4a","64d3ef96556dbe1f0e02b5aa","64db8285611258ee3f26b545","","","","","","","","","","","","","","","","","","reconstruct","","","","","","507.00002301613955","345.99000002648717","2478","","","","","","","","","","69","3","500","250"
"","","","","","html-keyboard-response","158","889372","0.0-15.0-0.15","6107720cff13015082b48f4a","64d3ef96556dbe1f0e02b5aa","64db8285611258ee3f26b545","","null","","","","","","","","","","","","","null","","","fallScene","","","","","","","","","","","","false","31.51816499999899","604.4000000000001","650.0211431702996","404.58000000000004","11","70","","",""
"","","","","","html-keyboard-response","159","893926","0.0-15.0-1.15","6107720cff13015082b48f4a","64d3ef96556dbe1f0e02b5aa","64db8285611258ee3f26b545","","","","","","","","","","","","","","","","","","","","","","","","648.9969455601642","409.99047789953374","4554","","","","","","","","","","","","",""
"","","","","","html-keyboard-response","159","893926","0.0-15.0-1.15","6107720cff13015082b48f4a","64d3ef96556dbe1f0e02b5aa","64db8285611258ee3f26b545","","","","","","","","","","","","","","","","","","reconstruct","","","","","","648.9969455601642","409.99047789953374","4554","","","","","","","","","","70","6","625","350"
"","","","","","html-keyboard-response","160","896934","0.0-15.0-0.16","6107720cff13015082b48f4a","64d3ef96556dbe1f0e02b5aa","64db8285611258ee3f26b545","","null","","","","","","","","","","","","","null","","","fallScene","","","","","","","","","","","","false","31.516708000001966","322.3","296.07114317029976","371.46","3","71","","",""
"","","","","","html-keyboard-response","161","899775","0.0-15.0-1.16","6107720cff13015082b48f4a","64d3ef96556dbe1f0e02b5aa","64db8285611258ee3f26b545","","","","","","","","","","","","","","","","","","","","","","","","286.0099999870259","363.0000161084584","2840.5","","","","","","","","","","","","",""
"","","","","","html-keyboard-response","161","899775","0.0-15.0-1.16","6107720cff13015082b48f4a","64d3ef96556dbe1f0e02b5aa","64db8285611258ee3f26b545","","","","","","","","","","","","","","","","","","reconstruct","","","","","","286.0099999870259","363.0000161084584","2840.5","","","","","","","","","","71","2","375","350"
"","","","","","html-keyboard-response","162","902781","0.0-15.0-0.17","6107720cff13015082b48f4a","64d3ef96556dbe1f0e02b5aa","64db8285611258ee3f26b545","","null","","","","","","","","","","","","","null","","","fallScene","","","","","","","","","","","","false","31.518134000001126","322.3","356.42114317029973","357.87","4","72","","",""
"","","","","","html-keyboard-response","163","905213","0.0-15.0-1.17","6107720cff13015082b48f4a","64d3ef96556dbe1f0e02b5aa","64db8285611258ee3f26b545","","","","","","","","","","","","","","","","","","","","","","","","365.00999999792","386.00000644987904","2431.4000000059605","","","","","","","","","","","","",""
"","","","","","html-keyboard-response","163","905213","0.0-15.0-1.17","6107720cff13015082b48f4a","64d3ef96556dbe1f0e02b5aa","64db8285611258ee3f26b545","","","","","","","","","","","","","","","","","","reconstruct","","","","","","365.00999999792","386.00000644987904","2431.4000000059605","","","","","","","","","","72","2","375","350"
"","","","","","survey-text","164","940872","0.0-16.0","6107720cff13015082b48f4a","64d3ef96556dbe1f0e02b5aa","64db8285611258ee3f26b545","","35627","","","","","","","","","","","","","{""Summary"":""I had to guess where the triangle was behind the grey screen after seeing a ball \""bounce\"" off it and fall in a certain direction.""}","","","","","","","","","","","","","","","","","","","","","","","",""
"","","","","","survey-text","165","943004","0.0-17.0","6107720cff13015082b48f4a","64d3ef96556dbe1f0e02b5aa","64db8285611258ee3f26b545","","2048","","","","","","","","","","","","","{""Comments"":""""}","","","","","","","","","","","","","","","","","","","","","","","",""
