"success","timeout","failed_images","failed_audio","failed_video","trial_type","trial_index","time_elapsed","internal_node_id","subject_id","study_id","session_id","view_history","rt","width","height","webaudio","browser","browser_version","mobile","os","fullscreen","vsync_rate","webcam","microphone","url","response","triangle_prac_final_x","triangle_prac_final_y","trial_name","stimulus","ball_X_prac_occ","ball_Y_prac_occ","obstacle_X_prac_occ","obstacle_Y_prac_occ","triangle_final_x","triangle_final_y","response_time","obstacle_X_prac_occ_init","obstacle_Y_prac_occ_init","question_order","flipped","runnerFPS","ball_X","obstacle_groundTruth_x","obstacle_groundTruth_y","stimulus_idx","currentTrial","obstacle_idx","obstacle_initial_x","obstacle_initial_y"
"true","false","[]","[]","[]","preload","0","262","0.0-0.0","6138de7da0cd911868bd8d03","64d3ef96556dbe1f0e02b5aa","64db812d56e617fea9e6c159","","","","","","","","","","","","","","","","","","","","","","","","","","","","","","","","","","","","","","",""
"","","","","","instructions","1","49964","0.0-1.0","6138de7da0cd911868bd8d03","64d3ef96556dbe1f0e02b5aa","64db812d56e617fea9e6c159","[{""page_index"":0,""viewing_time"":49700}]","49701","","","","","","","","","","","","","","","","","","","","","","","","","","","","","","","","","","","","",""
"","","","","","browser-check","2","50953","0.0-2.0","6138de7da0cd911868bd8d03","64d3ef96556dbe1f0e02b5aa","64db812d56e617fea9e6c159","","","1280","603","true","chrome","115.0.0","false","Windows 10","true","61.07","true","true","","","","","","","","","","","","","","","","","","","","","","","","","",""
"","","","","","external-html","3","55225","0.0-3.0","6138de7da0cd911868bd8d03","64d3ef96556dbe1f0e02b5aa","64db812d56e617fea9e6c159","","3676","","","","","","","","","","","","consent.html","","","","","","","","","","","","","","","","","","","","","","","","",""
"true","","","","","fullscreen","4","57404","0.0-4.0","6138de7da0cd911868bd8d03","64d3ef96556dbe1f0e02b5aa","64db812d56e617fea9e6c159","","1671","","","","","","","","","","","","","","","","","","","","","","","","","","","","","","","","","","","","",""
"","","","","","survey-text","5","60151","0.0-5.0","6138de7da0cd911868bd8d03","64d3ef96556dbe1f0e02b5aa","64db812d56e617fea9e6c159","","2736","","","","","","","","","","","","","{""prolificID"":""6138de7da0cd911868bd8d03""}","","","","","","","","","","","","","","","","","","","","","","","",""
"","","","","","browser-check","6","61151","0.0-6.0","6138de7da0cd911868bd8d03","64d3ef96556dbe1f0e02b5aa","64db812d56e617fea9e6c159","","","1280","720","true","chrome","115.0.0","false","Windows 10","true","60.19","true","true","","","","","","","","","","","","","","","","","","","","","","","","","",""
"","","","","","instructions","7","99500","0.0-7.0-0.0-0.0","6138de7da0cd911868bd8d03","64d3ef96556dbe1f0e02b5aa","64db812d56e617fea9e6c159","[{""page_index"":0,""viewing_time"":11921},{""page_index"":1,""viewing_time"":9404},{""page_index"":2,""viewing_time"":9035},{""page_index"":3,""viewing_time"":7989}]","38349","","","","","","","","","","","","","","","","","","","","","","","","","","","","","","","","","","","","",""
"","","","","","html-keyboard-response","8","107736","0.0-7.0-0.0-1.0","6138de7da0cd911868bd8d03","64d3ef96556dbe1f0e02b5aa","64db812d56e617fea9e6c159","","","","","","","","","","","","","","","","678.0099991051381","380.0001337775609","","","","","","","","","","","","","","","","","","","","","",""
"","","","","","html-keyboard-response","8","107736","0.0-7.0-0.0-1.0","6138de7da0cd911868bd8d03","64d3ef96556dbe1f0e02b5aa","64db812d56e617fea9e6c159","","","","","","","","","","","","","","","","","","practiceTrial_move","","","","","","","","","","","","","","","","","","","","",""
"","","","","","html-button-response","9","112270","0.0-7.0-0.0-2.0","6138de7da0cd911868bd8d03","64d3ef96556dbe1f0e02b5aa","64db812d56e617fea9e6c159","","4528","","","","","","","","","","","","","0","","","","<p>To help you get more comfortable with the task, let's begin with a practice trial first!</p><p>As described previously, you will first see a video of a ball falling, some of it behind a gray screen.</p><p>After the video, you will drag a triangle to the spot you think the ball hit the triangle behind the screen.</p><p>Click 'Next' to start your practice trial.</p>","","","","","","","","","","","","","","","","","","","",""
"","","","","","html-keyboard-response","10","115279","0.0-7.0-0.0-3.0","6138de7da0cd911868bd8d03","64d3ef96556dbe1f0e02b5aa","64db812d56e617fea9e6c159","","null","","","","","","","","","","","","","null","","","fallScene_practiceTrial_withOccluder","","400","50","420","415","","","","","","","","","","","","","","","",""
"","","","","","html-keyboard-response","11","118218","0.0-7.0-0.0-4.0","6138de7da0cd911868bd8d03","64d3ef96556dbe1f0e02b5aa","64db812d56e617fea9e6c159","","","","","","","","","","","","","","","","","","","","","","","","412.00999999998334","354.0000005769031","2937.4000000953674","","","","","","","","","","","","",""
"","","","","","html-keyboard-response","11","118218","0.0-7.0-0.0-4.0","6138de7da0cd911868bd8d03","64d3ef96556dbe1f0e02b5aa","64db812d56e617fea9e6c159","","","","","","","","","","","","","","","","","","reconstruct_practiceTrial_withOccluder","","","","","","412.00999999998334","354.0000005769031","2937.4000000953674","500","300","","","","","","","","","","",""
"","","","","","html-button-response","12","121257","0.0-7.0-0.0-5.0","6138de7da0cd911868bd8d03","64d3ef96556dbe1f0e02b5aa","64db812d56e617fea9e6c159","","3035","","","","","","","","","","","","","1","","","","<p>Ok! We're almost ready to get started.</p><p>We just have a <b>brief quiz</b>, to make sure you understood the task.</p><p>If you need to review the instructions, click 'Previous'.</p><p>It's important to understand the task to do the study, so you have to pass the quiz to move to the study.</p>","","","","","","","","","","","","","","","","","","","",""
"","","","","","survey-multi-choice","13","126711","0.0-7.0-1.0-0.0","6138de7da0cd911868bd8d03","64d3ef96556dbe1f0e02b5aa","64db812d56e617fea9e6c159","","5452","","","","","","","","","","","","","{""generalProcedure"":""Watch a video of a ball falling, some of it behind a gray screen. After each video, drag a triangle to where I think the ball hit the triangle behind the screen.""}","","","","","","","","","","","","","","[0]","","","","","","","","","",""
"","","","","","survey-multi-choice","14","130309","0.0-7.0-1.0-1.0","6138de7da0cd911868bd8d03","64d3ef96556dbe1f0e02b5aa","64db812d56e617fea9e6c159","","3594","","","","","","","","","","","","","{""checkBallHitObstacle"":""Yes.""}","","","","","","","","","","","","","","[0]","","","","","","","","","",""
"","","","","","survey-multi-choice","15","133172","0.0-7.0-1.0-2.0","6138de7da0cd911868bd8d03","64d3ef96556dbe1f0e02b5aa","64db812d56e617fea9e6c159","","2859","","","","","","","","","","","","","{""checkTriangleVisibility"":""No, the triangle is hidden behind the gray screen.""}","","","","","","","","","","","","","","[0]","","","","","","","","","",""
"","","","","","instructions","16","151667","0.0-8.0","6138de7da0cd911868bd8d03","64d3ef96556dbe1f0e02b5aa","64db812d56e617fea9e6c159","[{""page_index"":0,""viewing_time"":18491}]","18491","","","","","","","","","","","","","","","","","","","","","","","","","","","","","","","","","","","","",""
"","","","","","html-keyboard-response","17","154675","0.0-9.0-0.0","6138de7da0cd911868bd8d03","64d3ef96556dbe1f0e02b5aa","64db812d56e617fea9e6c159","","null","","","","","","","","","","","","","null","","","fallScene","","","","","","","","","","","","false","60.19170000000042","500","553.4711431702997","282.51","7","1","","",""
"","","","","","html-keyboard-response","18","157463","0.0-9.0-1.0","6138de7da0cd911868bd8d03","64d3ef96556dbe1f0e02b5aa","64db812d56e617fea9e6c159","","","","","","","","","","","","","","","","","","","","","","","","510.0000019067289","345.9900000001818","2784.7000000476837","","","","","","","","","","","","",""
"","","","","","html-keyboard-response","18","157463","0.0-9.0-1.0","6138de7da0cd911868bd8d03","64d3ef96556dbe1f0e02b5aa","64db812d56e617fea9e6c159","","","","","","","","","","","","","","","","","","reconstruct","","","","","","510.0000019067289","345.9900000001818","2784.7000000476837","","","","","","","","","","1","3","500","250"
"","","","","","html-keyboard-response","19","160475","0.0-9.0-0.1","6138de7da0cd911868bd8d03","64d3ef96556dbe1f0e02b5aa","64db812d56e617fea9e6c159","","null","","","","","","","","","","","","","null","","","fallScene","","","","","","","","","","","","false","60.19241999999969","500","510.8711431702997","369.03","8","2","","",""
"","","","","","html-keyboard-response","20","162806","0.0-9.0-1.1","6138de7da0cd911868bd8d03","64d3ef96556dbe1f0e02b5aa","64db812d56e617fea9e6c159","","","","","","","","","","","","","","","","","","","","","","","","487.99001630470565","272.0005708136912","2329.899999976158","","","","","","","","","","","","",""
"","","","","","html-keyboard-response","20","162806","0.0-9.0-1.1","6138de7da0cd911868bd8d03","64d3ef96556dbe1f0e02b5aa","64db812d56e617fea9e6c159","","","","","","","","","","","","","","","","","","reconstruct","","","","","","487.99001630470565","272.0005708136912","2329.899999976158","","","","","","","","","","2","4","500","350"
"","","","","","html-keyboard-response","21","165817","0.0-9.0-0.2","6138de7da0cd911868bd8d03","64d3ef96556dbe1f0e02b5aa","64db812d56e617fea9e6c159","","null","","","","","","","","","","","","","null","","","fallScene","","","","","","","","","","","","true","60.19446000000055","322.3","308.07114317029976","253.89","2","3","","",""
"","","","","","html-keyboard-response","22","168490","0.0-9.0-1.2","6138de7da0cd911868bd8d03","64d3ef96556dbe1f0e02b5aa","64db812d56e617fea9e6c159","","","","","","","","","","","","","","","","","","","","","","","","654.9999999910132","320.99","2670.899999976158","","","","","","","","","","","","",""
"","","","","","html-keyboard-response","22","168490","0.0-9.0-1.2","6138de7da0cd911868bd8d03","64d3ef96556dbe1f0e02b5aa","64db812d56e617fea9e6c159","","","","","","","","","","","","","","","","","","reconstruct","","","","","","654.9999999910132","320.99","2670.899999976158","","","","","","","","","","3","5","625","250"
"","","","","","html-keyboard-response","23","171497","0.0-9.0-0.3","6138de7da0cd911868bd8d03","64d3ef96556dbe1f0e02b5aa","64db812d56e617fea9e6c159","","null","","","","","","","","","","","","","null","","","fallScene","","","","","","","","","","","","true","60.19997999999906","322.3","296.07114317029976","371.46","3","4","","",""
"","","","","","html-keyboard-response","24","174248","0.0-9.0-1.3","6138de7da0cd911868bd8d03","64d3ef96556dbe1f0e02b5aa","64db812d56e617fea9e6c159","","","","","","","","","","","","","","","","","","","","","","","","667.9999976411319","333.0099999997218","2750.6999999284744","","","","","","","","","","","","",""
"","","","","","html-keyboard-response","24","174248","0.0-9.0-1.3","6138de7da0cd911868bd8d03","64d3ef96556dbe1f0e02b5aa","64db812d56e617fea9e6c159","","","","","","","","","","","","","","","","","","reconstruct","","","","","","667.9999976411319","333.0099999997218","2750.6999999284744","","","","","","","","","","4","4","500","350"
"","","","","","html-keyboard-response","25","177255","0.0-9.0-0.4","6138de7da0cd911868bd8d03","64d3ef96556dbe1f0e02b5aa","64db812d56e617fea9e6c159","","null","","","","","","","","","","","","","null","","","fallScene","","","","","","","","","","","","false","60.19164000000106","322.3","356.42114317029973","357.87","4","5","","",""
"","","","","","html-keyboard-response","26","179591","0.0-9.0-1.4","6138de7da0cd911868bd8d03","64d3ef96556dbe1f0e02b5aa","64db812d56e617fea9e6c159","","","","","","","","","","","","","","","","","","","","","","","","361.00119490686313","314.99007164678363","2334.7999999523163","","","","","","","","","","","","",""
"","","","","","html-keyboard-response","26","179591","0.0-9.0-1.4","6138de7da0cd911868bd8d03","64d3ef96556dbe1f0e02b5aa","64db812d56e617fea9e6c159","","","","","","","","","","","","","","","","","","reconstruct","","","","","","361.00119490686313","314.99007164678363","2334.7999999523163","","","","","","","","","","5","1","375","250"
"","","","","","html-keyboard-response","27","182597","0.0-9.0-0.5","6138de7da0cd911868bd8d03","64d3ef96556dbe1f0e02b5aa","64db812d56e617fea9e6c159","","null","","","","","","","","","","","","","null","","","fallScene","","","","","","","","","","","","true","60.19559999999882","500","479.92114317029973","330.87","6","6","","",""
"","","","","","html-keyboard-response","28","186459","0.0-9.0-1.5","6138de7da0cd911868bd8d03","64d3ef96556dbe1f0e02b5aa","64db812d56e617fea9e6c159","","","","","","","","","","","","","","","","","","","","","","","","508.0100201756054","297.0100013637809","3859.9000000953674","","","","","","","","","","","","",""
"","","","","","html-keyboard-response","28","186459","0.0-9.0-1.5","6138de7da0cd911868bd8d03","64d3ef96556dbe1f0e02b5aa","64db812d56e617fea9e6c159","","","","","","","","","","","","","","","","","","reconstruct","","","","","","508.0100201756054","297.0100013637809","3859.9000000953674","","","","","","","","","","6","6","625","350"
"","","","","","html-keyboard-response","29","189469","0.0-9.0-0.6","6138de7da0cd911868bd8d03","64d3ef96556dbe1f0e02b5aa","64db812d56e617fea9e6c159","","null","","","","","","","","","","","","","null","","","fallScene","","","","","","","","","","","","true","60.192119999999406","322.3","308.07114317029976","253.89","2","7","","",""
"","","","","","html-keyboard-response","30","192560","0.0-9.0-1.6","6138de7da0cd911868bd8d03","64d3ef96556dbe1f0e02b5aa","64db812d56e617fea9e6c159","","","","","","","","","","","","","","","","","","","","","","","","658.0089937509041","284.0043717782052","3089.399999976158","","","","","","","","","","","","",""
"","","","","","html-keyboard-response","30","192560","0.0-9.0-1.6","6138de7da0cd911868bd8d03","64d3ef96556dbe1f0e02b5aa","64db812d56e617fea9e6c159","","","","","","","","","","","","","","","","","","reconstruct","","","","","","658.0089937509041","284.0043717782052","3089.399999976158","","","","","","","","","","7","3","500","250"
"","","","","","html-keyboard-response","31","195573","0.0-9.0-0.7","6138de7da0cd911868bd8d03","64d3ef96556dbe1f0e02b5aa","64db812d56e617fea9e6c159","","null","","","","","","","","","","","","","null","","","fallScene","","","","","","","","","","","","true","60.19530000000028","322.3","356.42114317029973","357.87","4","8","","",""
"","","","","","html-keyboard-response","32","198845","0.0-9.0-1.7","6138de7da0cd911868bd8d03","64d3ef96556dbe1f0e02b5aa","64db812d56e617fea9e6c159","","","","","","","","","","","","","","","","","","","","","","","","630.0099999999967","284.000000255993","3270.399999976158","","","","","","","","","","","","",""
"","","","","","html-keyboard-response","32","198845","0.0-9.0-1.7","6138de7da0cd911868bd8d03","64d3ef96556dbe1f0e02b5aa","64db812d56e617fea9e6c159","","","","","","","","","","","","","","","","","","reconstruct","","","","","","630.0099999999967","284.000000255993","3270.399999976158","","","","","","","","","","8","4","500","350"
"","","","","","html-keyboard-response","33","201858","0.0-9.0-0.8","6138de7da0cd911868bd8d03","64d3ef96556dbe1f0e02b5aa","64db812d56e617fea9e6c159","","null","","","","","","","","","","","","","null","","","fallScene","","","","","","","","","","","","false","60.19140000000014","322.3","379.3711431702997","245.25","1","9","","",""
"","","","","","html-keyboard-response","34","204205","0.0-9.0-1.8","6138de7da0cd911868bd8d03","64d3ef96556dbe1f0e02b5aa","64db812d56e617fea9e6c159","","","","","","","","","","","","","","","","","","","","","","","","372.9906541866276","259.9964425047564","2345.6999999284744","","","","","","","","","","","","",""
"","","","","","html-keyboard-response","34","204205","0.0-9.0-1.8","6138de7da0cd911868bd8d03","64d3ef96556dbe1f0e02b5aa","64db812d56e617fea9e6c159","","","","","","","","","","","","","","","","","","reconstruct","","","","","","372.9906541866276","259.9964425047564","2345.6999999284744","","","","","","","","","","9","1","375","250"
"","","","","","html-keyboard-response","35","207213","0.0-9.0-0.9","6138de7da0cd911868bd8d03","64d3ef96556dbe1f0e02b5aa","64db812d56e617fea9e6c159","","null","","","","","","","","","","","","","null","","","fallScene","","","","","","","","","","","","false","60.198060000000396","604.4000000000001","667.6211431702998","201.78","9","10","","",""
"","","","","","html-keyboard-response","36","209719","0.0-9.0-1.9","6138de7da0cd911868bd8d03","64d3ef96556dbe1f0e02b5aa","64db812d56e617fea9e6c159","","","","","","","","","","","","","","","","","","","","","","","","638.0090638580302","250.99577549084424","2505.399999976158","","","","","","","","","","","","",""
"","","","","","html-keyboard-response","36","209719","0.0-9.0-1.9","6138de7da0cd911868bd8d03","64d3ef96556dbe1f0e02b5aa","64db812d56e617fea9e6c159","","","","","","","","","","","","","","","","","","reconstruct","","","","","","638.0090638580302","250.99577549084424","2505.399999976158","","","","","","","","","","10","4","500","350"
"","","","","","html-keyboard-response","37","212728","0.0-9.0-0.10","6138de7da0cd911868bd8d03","64d3ef96556dbe1f0e02b5aa","64db812d56e617fea9e6c159","","null","","","","","","","","","","","","","null","","","fallScene","","","","","","","","","","","","false","60.19505999999935","604.4000000000001","650.0211431702996","404.58000000000004","11","11","","",""
"","","","","","html-keyboard-response","38","215925","0.0-9.0-1.10","6138de7da0cd911868bd8d03","64d3ef96556dbe1f0e02b5aa","64db812d56e617fea9e6c159","","","","","","","","","","","","","","","","","","","","","","","","628.99","340.9999999977278","3196","","","","","","","","","","","","",""
"","","","","","html-keyboard-response","38","215925","0.0-9.0-1.10","6138de7da0cd911868bd8d03","64d3ef96556dbe1f0e02b5aa","64db812d56e617fea9e6c159","","","","","","","","","","","","","","","","","","reconstruct","","","","","","628.99","340.9999999977278","3196","","","","","","","","","","11","1","375","250"
"","","","","","html-keyboard-response","39","218932","0.0-9.0-0.11","6138de7da0cd911868bd8d03","64d3ef96556dbe1f0e02b5aa","64db812d56e617fea9e6c159","","null","","","","","","","","","","","","","null","","","fallScene","","","","","","","","","","","","false","60.19439999999943","604.4000000000001","667.6211431702998","201.78","9","12","","",""
"","","","","","html-keyboard-response","40","223852","0.0-9.0-1.11","6138de7da0cd911868bd8d03","64d3ef96556dbe1f0e02b5aa","64db812d56e617fea9e6c159","","","","","","","","","","","","","","","","","","","","","","","","661.9917682525227","300.9944709591879","4918.799999952316","","","","","","","","","","","","",""
"","","","","","html-keyboard-response","40","223852","0.0-9.0-1.11","6138de7da0cd911868bd8d03","64d3ef96556dbe1f0e02b5aa","64db812d56e617fea9e6c159","","","","","","","","","","","","","","","","","","reconstruct","","","","","","661.9917682525227","300.9944709591879","4918.799999952316","","","","","","","","","","12","1","375","250"
"","","","","","html-keyboard-response","41","226858","0.0-9.0-0.12","6138de7da0cd911868bd8d03","64d3ef96556dbe1f0e02b5aa","64db812d56e617fea9e6c159","","null","","","","","","","","","","","","","null","","","fallScene","","","","","","","","","","","","false","60.19511999999871","500","553.4711431702997","282.51","7","13","","",""
"","","","","","html-keyboard-response","42","230013","0.0-9.0-1.12","6138de7da0cd911868bd8d03","64d3ef96556dbe1f0e02b5aa","64db812d56e617fea9e6c159","","","","","","","","","","","","","","","","","","","","","","","","494.00000020866446","303.00999999999783","3153.600000023842","","","","","","","","","","","","",""
"","","","","","html-keyboard-response","42","230013","0.0-9.0-1.12","6138de7da0cd911868bd8d03","64d3ef96556dbe1f0e02b5aa","64db812d56e617fea9e6c159","","","","","","","","","","","","","","","","","","reconstruct","","","","","","494.00000020866446","303.00999999999783","3153.600000023842","","","","","","","","","","13","5","625","250"
"","","","","","html-keyboard-response","43","233026","0.0-9.0-0.13","6138de7da0cd911868bd8d03","64d3ef96556dbe1f0e02b5aa","64db812d56e617fea9e6c159","","null","","","","","","","","","","","","","null","","","fallScene","","","","","","","","","","","","true","60.19565999999992","322.3","356.42114317029973","357.87","4","14","","",""
"","","","","","html-keyboard-response","44","237194","0.0-9.0-1.13","6138de7da0cd911868bd8d03","64d3ef96556dbe1f0e02b5aa","64db812d56e617fea9e6c159","","","","","","","","","","","","","","","","","","","","","","","","599.0054412160064","291.99160993633086","4165.5","","","","","","","","","","","","",""
"","","","","","html-keyboard-response","44","237194","0.0-9.0-1.13","6138de7da0cd911868bd8d03","64d3ef96556dbe1f0e02b5aa","64db812d56e617fea9e6c159","","","","","","","","","","","","","","","","","","reconstruct","","","","","","599.0054412160064","291.99160993633086","4165.5","","","","","","","","","","14","5","625","250"
"","","","","","html-keyboard-response","45","240202","0.0-9.0-0.14","6138de7da0cd911868bd8d03","64d3ef96556dbe1f0e02b5aa","64db812d56e617fea9e6c159","","null","","","","","","","","","","","","","null","","","fallScene","","","","","","","","","","","","false","58.187455999999365","500","510.8711431702997","369.03","8","15","","",""
"","","","","","html-keyboard-response","46","243390","0.0-9.0-1.14","6138de7da0cd911868bd8d03","64d3ef96556dbe1f0e02b5aa","64db812d56e617fea9e6c159","","","","","","","","","","","","","","","","","","","","","","","","526.9946162728038","253.00842706837972","3186.6999999284744","","","","","","","","","","","","",""
"","","","","","html-keyboard-response","46","243390","0.0-9.0-1.14","6138de7da0cd911868bd8d03","64d3ef96556dbe1f0e02b5aa","64db812d56e617fea9e6c159","","","","","","","","","","","","","","","","","","reconstruct","","","","","","526.9946162728038","253.00842706837972","3186.6999999284744","","","","","","","","","","15","5","625","250"
"","","","","","html-keyboard-response","47","246403","0.0-9.0-0.15","6138de7da0cd911868bd8d03","64d3ef96556dbe1f0e02b5aa","64db812d56e617fea9e6c159","","null","","","","","","","","","","","","","null","","","fallScene","","","","","","","","","","","","true","57.18866999999987","500","510.8711431702997","369.03","8","16","","",""
"","","","","","html-keyboard-response","48","257231","0.0-9.0-1.15","6138de7da0cd911868bd8d03","64d3ef96556dbe1f0e02b5aa","64db812d56e617fea9e6c159","","","","","","","","","","","","","","","","","","","","","","","","557.9900525192952","298.0010235368232","10826.899999976158","","","","","","","","","","","","",""
"","","","","","html-keyboard-response","48","257231","0.0-9.0-1.15","6138de7da0cd911868bd8d03","64d3ef96556dbe1f0e02b5aa","64db812d56e617fea9e6c159","","","","","","","","","","","","","","","","","","reconstruct","","","","","","557.9900525192952","298.0010235368232","10826.899999976158","","","","","","","","","","16","6","625","350"
"","","","","","html-keyboard-response","49","260239","0.0-9.0-0.16","6138de7da0cd911868bd8d03","64d3ef96556dbe1f0e02b5aa","64db812d56e617fea9e6c159","","null","","","","","","","","","","","","","null","","","fallScene","","","","","","","","","","","","false","53.16838099999979","322.3","296.07114317029976","371.46","3","17","","",""
"","","","","","html-keyboard-response","50","269457","0.0-9.0-1.16","6138de7da0cd911868bd8d03","64d3ef96556dbe1f0e02b5aa","64db812d56e617fea9e6c159","","","","","","","","","","","","","","","","","","","","","","","","364.99","330","9216.5","","","","","","","","","","","","",""
"","","","","","html-keyboard-response","50","269457","0.0-9.0-1.16","6138de7da0cd911868bd8d03","64d3ef96556dbe1f0e02b5aa","64db812d56e617fea9e6c159","","","","","","","","","","","","","","","","","","reconstruct","","","","","","364.99","330","9216.5","","","","","","","","","","17","6","625","350"
"","","","","","html-keyboard-response","51","272467","0.0-9.0-0.17","6138de7da0cd911868bd8d03","64d3ef96556dbe1f0e02b5aa","64db812d56e617fea9e6c159","","null","","","","","","","","","","","","","null","","","fallScene","","","","","","","","","","","","true","51.16503600000171","604.4000000000001","667.6211431702998","201.78","9","18","","",""
"","","","","","html-keyboard-response","52","274858","0.0-9.0-1.17","6138de7da0cd911868bd8d03","64d3ef96556dbe1f0e02b5aa","64db812d56e617fea9e6c159","","","","","","","","","","","","","","","","","","","","","","","","350.0098937521444","303.0014538461075","2390.100000023842","","","","","","","","","","","","",""
"","","","","","html-keyboard-response","52","274858","0.0-9.0-1.17","6138de7da0cd911868bd8d03","64d3ef96556dbe1f0e02b5aa","64db812d56e617fea9e6c159","","","","","","","","","","","","","","","","","","reconstruct","","","","","","350.0098937521444","303.0014538461075","2390.100000023842","","","","","","","","","","18","6","625","350"
"","","","","","html-button-response","53","276857","0.0-10.0","6138de7da0cd911868bd8d03","64d3ef96556dbe1f0e02b5aa","64db812d56e617fea9e6c159","","1995","","","","","","","","","","","","","0","","","","<p><span style = ""font-size:40px;"">BREAK</span></p><p>You are doing great! Click 'Next' when you are ready for the next set.</p>","","","","","","","","","","","","","","","","","","","",""
"","","","","","html-keyboard-response","54","279864","0.0-11.0-0.0","6138de7da0cd911868bd8d03","64d3ef96556dbe1f0e02b5aa","64db812d56e617fea9e6c159","","null","","","","","","","","","","","","","null","","","fallScene","","","","","","","","","","","","false","46.15322600000025","322.3","308.07114317029976","253.89","2","19","","",""
"","","","","","html-keyboard-response","55","283580","0.0-11.0-1.0","6138de7da0cd911868bd8d03","64d3ef96556dbe1f0e02b5aa","64db812d56e617fea9e6c159","","","","","","","","","","","","","","","","","","","","","","","","354.990008419104","225.9995897425209","3714.5","","","","","","","","","","","","",""
"","","","","","html-keyboard-response","55","283580","0.0-11.0-1.0","6138de7da0cd911868bd8d03","64d3ef96556dbe1f0e02b5aa","64db812d56e617fea9e6c159","","","","","","","","","","","","","","","","","","reconstruct","","","","","","354.990008419104","225.9995897425209","3714.5","","","","","","","","","","19","6","625","350"
"","","","","","html-keyboard-response","56","286591","0.0-11.0-0.1","6138de7da0cd911868bd8d03","64d3ef96556dbe1f0e02b5aa","64db812d56e617fea9e6c159","","null","","","","","","","","","","","","","null","","","fallScene","","","","","","","","","","","","false","45.142965000001126","604.4000000000001","575.4211431702997","266.76","12","20","","",""
"","","","","","html-keyboard-response","57","289857","0.0-11.0-1.1","6138de7da0cd911868bd8d03","64d3ef96556dbe1f0e02b5aa","64db812d56e617fea9e6c159","","","","","","","","","","","","","","","","","","","","","","","","604.0099999999787","275.00000065141603","3265.6999999284744","","","","","","","","","","","","",""
"","","","","","html-keyboard-response","57","289857","0.0-11.0-1.1","6138de7da0cd911868bd8d03","64d3ef96556dbe1f0e02b5aa","64db812d56e617fea9e6c159","","","","","","","","","","","","","","","","","","reconstruct","","","","","","604.0099999999787","275.00000065141603","3265.6999999284744","","","","","","","","","","20","2","375","350"
"","","","","","html-keyboard-response","58","292870","0.0-11.0-0.2","6138de7da0cd911868bd8d03","64d3ef96556dbe1f0e02b5aa","64db812d56e617fea9e6c159","","null","","","","","","","","","","","","","null","","","fallScene","","","","","","","","","","","","false","45.89914499999868","604.4000000000001","596.8711431702998","394.5","10","21","","",""
"","","","","","html-keyboard-response","59","295712","0.0-11.0-1.2","6138de7da0cd911868bd8d03","64d3ef96556dbe1f0e02b5aa","64db812d56e617fea9e6c159","","","","","","","","","","","","","","","","","","","","","","","","598.0099999999995","243.999999905731","2840.2999999523163","","","","","","","","","","","","",""
"","","","","","html-keyboard-response","59","295712","0.0-11.0-1.2","6138de7da0cd911868bd8d03","64d3ef96556dbe1f0e02b5aa","64db812d56e617fea9e6c159","","","","","","","","","","","","","","","","","","reconstruct","","","","","","598.0099999999995","243.999999905731","2840.2999999523163","","","","","","","","","","21","4","500","350"
"","","","","","html-keyboard-response","60","298731","0.0-11.0-0.3","6138de7da0cd911868bd8d03","64d3ef96556dbe1f0e02b5aa","64db812d56e617fea9e6c159","","null","","","","","","","","","","","","","null","","","fallScene","","","","","","","","","","","","true","42.83512800000084","500","453.67114317029973","210.33","5","22","","",""
"","","","","","html-keyboard-response","61","301726","0.0-11.0-1.3","6138de7da0cd911868bd8d03","64d3ef96556dbe1f0e02b5aa","64db812d56e617fea9e6c159","","","","","","","","","","","","","","","","","","","","","","","","515.0099999991425","272.9999958585207","2994.5","","","","","","","","","","","","",""
"","","","","","html-keyboard-response","61","301726","0.0-11.0-1.3","6138de7da0cd911868bd8d03","64d3ef96556dbe1f0e02b5aa","64db812d56e617fea9e6c159","","","","","","","","","","","","","","","","","","reconstruct","","","","","","515.0099999991425","272.9999958585207","2994.5","","","","","","","","","","22","2","375","350"
"","","","","","html-keyboard-response","62","304739","0.0-11.0-0.4","6138de7da0cd911868bd8d03","64d3ef96556dbe1f0e02b5aa","64db812d56e617fea9e6c159","","null","","","","","","","","","","","","","null","","","fallScene","","","","","","","","","","","","false","40.13043999999994","322.3","356.42114317029973","357.87","4","23","","",""
"","","","","","html-keyboard-response","63","308733","0.0-11.0-1.4","6138de7da0cd911868bd8d03","64d3ef96556dbe1f0e02b5aa","64db812d56e617fea9e6c159","","","","","","","","","","","","","","","","","","","","","","","","426.99045754062644","270.9970097710616","3993.8000000715256","","","","","","","","","","","","",""
"","","","","","html-keyboard-response","63","308733","0.0-11.0-1.4","6138de7da0cd911868bd8d03","64d3ef96556dbe1f0e02b5aa","64db812d56e617fea9e6c159","","","","","","","","","","","","","","","","","","reconstruct","","","","","","426.99045754062644","270.9970097710616","3993.8000000715256","","","","","","","","","","23","6","625","350"
"","","","","","html-keyboard-response","64","311742","0.0-11.0-0.5","6138de7da0cd911868bd8d03","64d3ef96556dbe1f0e02b5aa","64db812d56e617fea9e6c159","","null","","","","","","","","","","","","","null","","","fallScene","","","","","","","","","","","","false","40.13043999999994","322.3","296.07114317029976","371.46","3","24","","",""
"","","","","","html-keyboard-response","65","323433","0.0-11.0-1.5","6138de7da0cd911868bd8d03","64d3ef96556dbe1f0e02b5aa","64db812d56e617fea9e6c159","","","","","","","","","","","","","","","","","","","","","","","","343.00573799763407","304.0081899562362","11689.700000047684","","","","","","","","","","","","",""
"","","","","","html-keyboard-response","65","323433","0.0-11.0-1.5","6138de7da0cd911868bd8d03","64d3ef96556dbe1f0e02b5aa","64db812d56e617fea9e6c159","","","","","","","","","","","","","","","","","","reconstruct","","","","","","343.00573799763407","304.0081899562362","11689.700000047684","","","","","","","","","","24","2","375","350"
"","","","","","html-keyboard-response","66","326449","0.0-11.0-0.6","6138de7da0cd911868bd8d03","64d3ef96556dbe1f0e02b5aa","64db812d56e617fea9e6c159","","null","","","","","","","","","","","","","null","","","fallScene","","","","","","","","","","","","true","40.13251999999862","500","510.8711431702997","369.03","8","25","","",""
"","","","","","html-keyboard-response","67","329151","0.0-11.0-1.6","6138de7da0cd911868bd8d03","64d3ef96556dbe1f0e02b5aa","64db812d56e617fea9e6c159","","","","","","","","","","","","","","","","","","","","","","","","500.9999878337683","305.99000000740085","2700.2999999523163","","","","","","","","","","","","",""
"","","","","","html-keyboard-response","67","329151","0.0-11.0-1.6","6138de7da0cd911868bd8d03","64d3ef96556dbe1f0e02b5aa","64db812d56e617fea9e6c159","","","","","","","","","","","","","","","","","","reconstruct","","","","","","500.9999878337683","305.99000000740085","2700.2999999523163","","","","","","","","","","25","2","375","350"
"","","","","","html-keyboard-response","68","332174","0.0-11.0-0.7","6138de7da0cd911868bd8d03","64d3ef96556dbe1f0e02b5aa","64db812d56e617fea9e6c159","","null","","","","","","","","","","","","","null","","","fallScene","","","","","","","","","","","","true","40.131040000000496","604.4000000000001","650.0211431702996","404.58000000000004","11","26","","",""
"","","","","","html-keyboard-response","69","335124","0.0-11.0-1.7","6138de7da0cd911868bd8d03","64d3ef96556dbe1f0e02b5aa","64db812d56e617fea9e6c159","","","","","","","","","","","","","","","","","","","","","","","","393.99295487371376","320.99290308548655","2949.100000023842","","","","","","","","","","","","",""
"","","","","","html-keyboard-response","69","335125","0.0-11.0-1.7","6138de7da0cd911868bd8d03","64d3ef96556dbe1f0e02b5aa","64db812d56e617fea9e6c159","","","","","","","","","","","","","","","","","","reconstruct","","","","","","393.99295487371376","320.99290308548655","2949.100000023842","","","","","","","","","","26","3","500","250"
"","","","","","html-keyboard-response","70","338137","0.0-11.0-0.8","6138de7da0cd911868bd8d03","64d3ef96556dbe1f0e02b5aa","64db812d56e617fea9e6c159","","null","","","","","","","","","","","","","null","","","fallScene","","","","","","","","","","","","true","40.798319999999364","500","479.92114317029973","330.87","6","27","","",""
"","","","","","html-keyboard-response","71","341475","0.0-11.0-1.8","6138de7da0cd911868bd8d03","64d3ef96556dbe1f0e02b5aa","64db812d56e617fea9e6c159","","","","","","","","","","","","","","","","","","","","","","","","528.0004192323017","303.9900087916508","3336","","","","","","","","","","","","",""
"","","","","","html-keyboard-response","71","341475","0.0-11.0-1.8","6138de7da0cd911868bd8d03","64d3ef96556dbe1f0e02b5aa","64db812d56e617fea9e6c159","","","","","","","","","","","","","","","","","","reconstruct","","","","","","528.0004192323017","303.9900087916508","3336","","","","","","","","","","27","5","625","250"
"","","","","","html-keyboard-response","72","344488","0.0-11.0-0.9","6138de7da0cd911868bd8d03","64d3ef96556dbe1f0e02b5aa","64db812d56e617fea9e6c159","","null","","","","","","","","","","","","","null","","","fallScene","","","","","","","","","","","","true","36.11361600000062","604.4000000000001","575.4211431702997","266.76","12","28","","",""
"","","","","","html-keyboard-response","73","360561","0.0-11.0-1.9","6138de7da0cd911868bd8d03","64d3ef96556dbe1f0e02b5aa","64db812d56e617fea9e6c159","","","","","","","","","","","","","","","","","","","","","","","","444.00712201080654","286.992980244871","16071.5","","","","","","","","","","","","",""
"","","","","","html-keyboard-response","73","360561","0.0-11.0-1.9","6138de7da0cd911868bd8d03","64d3ef96556dbe1f0e02b5aa","64db812d56e617fea9e6c159","","","","","","","","","","","","","","","","","","reconstruct","","","","","","444.00712201080654","286.992980244871","16071.5","","","","","","","","","","28","3","500","250"
"","","","","","html-keyboard-response","74","363567","0.0-11.0-0.10","6138de7da0cd911868bd8d03","64d3ef96556dbe1f0e02b5aa","64db812d56e617fea9e6c159","","null","","","","","","","","","","","","","null","","","fallScene","","","","","","","","","","","","false","29.5811309999997","322.3","379.3711431702997","245.25","1","29","","",""
"","","","","","html-keyboard-response","75","366373","0.0-11.0-1.10","6138de7da0cd911868bd8d03","64d3ef96556dbe1f0e02b5aa","64db812d56e617fea9e6c159","","","","","","","","","","","","","","","","","","","","","","","","401.00608917075283","259.0079323388444","2804.1999999284744","","","","","","","","","","","","",""
"","","","","","html-keyboard-response","75","366373","0.0-11.0-1.10","6138de7da0cd911868bd8d03","64d3ef96556dbe1f0e02b5aa","64db812d56e617fea9e6c159","","","","","","","","","","","","","","","","","","reconstruct","","","","","","401.00608917075283","259.0079323388444","2804.1999999284744","","","","","","","","","","29","6","625","350"
"","","","","","html-keyboard-response","76","369386","0.0-11.0-0.11","6138de7da0cd911868bd8d03","64d3ef96556dbe1f0e02b5aa","64db812d56e617fea9e6c159","","null","","","","","","","","","","","","","null","","","fallScene","","","","","","","","","","","","true","33.10995600000175","500","453.67114317029973","210.33","5","30","","",""
"","","","","","html-keyboard-response","77","371795","0.0-11.0-1.11","6138de7da0cd911868bd8d03","64d3ef96556dbe1f0e02b5aa","64db812d56e617fea9e6c159","","","","","","","","","","","","","","","","","","","","","","","","519.9900000259419","294.00002277796375","2407.399999976158","","","","","","","","","","","","",""
"","","","","","html-keyboard-response","77","371795","0.0-11.0-1.11","6138de7da0cd911868bd8d03","64d3ef96556dbe1f0e02b5aa","64db812d56e617fea9e6c159","","","","","","","","","","","","","","","","","","reconstruct","","","","","","519.9900000259419","294.00002277796375","2407.399999976158","","","","","","","","","","30","6","625","350"
"","","","","","html-keyboard-response","78","374805","0.0-11.0-0.12","6138de7da0cd911868bd8d03","64d3ef96556dbe1f0e02b5aa","64db812d56e617fea9e6c159","","null","","","","","","","","","","","","","null","","","fallScene","","","","","","","","","","","","true","36.11771999999857","604.4000000000001","575.4211431702997","266.76","12","31","","",""
"","","","","","html-keyboard-response","79","377740","0.0-11.0-1.12","6138de7da0cd911868bd8d03","64d3ef96556dbe1f0e02b5aa","64db812d56e617fea9e6c159","","","","","","","","","","","","","","","","","","","","","","","","434.9999982680801","297.99000000014996","2933.5","","","","","","","","","","","","",""
"","","","","","html-keyboard-response","79","377740","0.0-11.0-1.12","6138de7da0cd911868bd8d03","64d3ef96556dbe1f0e02b5aa","64db812d56e617fea9e6c159","","","","","","","","","","","","","","","","","","reconstruct","","","","","","434.9999982680801","297.99000000014996","2933.5","","","","","","","","","","31","1","375","250"
"","","","","","html-keyboard-response","80","380764","0.0-11.0-0.13","6138de7da0cd911868bd8d03","64d3ef96556dbe1f0e02b5aa","64db812d56e617fea9e6c159","","null","","","","","","","","","","","","","null","","","fallScene","","","","","","","","","","","","true","35.114729999999696","604.4000000000001","575.4211431702997","266.76","12","32","","",""
"","","","","","html-keyboard-response","81","383437","0.0-11.0-1.13","6138de7da0cd911868bd8d03","64d3ef96556dbe1f0e02b5aa","64db812d56e617fea9e6c159","","","","","","","","","","","","","","","","","","","","","","","","447.0012368158603","301.9900767804354","2671.8000000715256","","","","","","","","","","","","",""
"","","","","","html-keyboard-response","81","383438","0.0-11.0-1.13","6138de7da0cd911868bd8d03","64d3ef96556dbe1f0e02b5aa","64db812d56e617fea9e6c159","","","","","","","","","","","","","","","","","","reconstruct","","","","","","447.0012368158603","301.9900767804354","2671.8000000715256","","","","","","","","","","32","4","500","350"
"","","","","","html-keyboard-response","82","386450","0.0-11.0-0.14","6138de7da0cd911868bd8d03","64d3ef96556dbe1f0e02b5aa","64db812d56e617fea9e6c159","","null","","","","","","","","","","","","","null","","","fallScene","","","","","","","","","","","","false","34.11175800000038","500","479.92114317029973","330.87","6","33","","",""
"","","","","","html-keyboard-response","83","389567","0.0-11.0-1.14","6138de7da0cd911868bd8d03","64d3ef96556dbe1f0e02b5aa","64db812d56e617fea9e6c159","","","","","","","","","","","","","","","","","","","","","","","","499.99000000000245","266.00000021792533","3115.7999999523163","","","","","","","","","","","","",""
"","","","","","html-keyboard-response","83","389567","0.0-11.0-1.14","6138de7da0cd911868bd8d03","64d3ef96556dbe1f0e02b5aa","64db812d56e617fea9e6c159","","","","","","","","","","","","","","","","","","reconstruct","","","","","","499.99000000000245","266.00000021792533","3115.7999999523163","","","","","","","","","","33","2","375","350"
"","","","","","html-keyboard-response","84","392582","0.0-11.0-0.15","6138de7da0cd911868bd8d03","64d3ef96556dbe1f0e02b5aa","64db812d56e617fea9e6c159","","null","","","","","","","","","","","","","null","","","fallScene","","","","","","","","","","","","true","34.11009200000041","604.4000000000001","575.4211431702997","266.76","12","34","","",""
"","","","","","html-keyboard-response","85","395836","0.0-11.0-1.15","6138de7da0cd911868bd8d03","64d3ef96556dbe1f0e02b5aa","64db812d56e617fea9e6c159","","","","","","","","","","","","","","","","","","","","","","","","420.0083863509983","313.9945530635277","3252.7999999523163","","","","","","","","","","","","",""
"","","","","","html-keyboard-response","85","395836","0.0-11.0-1.15","6138de7da0cd911868bd8d03","64d3ef96556dbe1f0e02b5aa","64db812d56e617fea9e6c159","","","","","","","","","","","","","","","","","","reconstruct","","","","","","420.0083863509983","313.9945530635277","3252.7999999523163","","","","","","","","","","34","5","625","250"
"","","","","","html-keyboard-response","86","398846","0.0-11.0-0.16","6138de7da0cd911868bd8d03","64d3ef96556dbe1f0e02b5aa","64db812d56e617fea9e6c159","","null","","","","","","","","","","","","","null","","","fallScene","","","","","","","","","","","","true","33.66122099999845","500","453.67114317029973","210.33","5","35","","",""
"","","","","","html-keyboard-response","87","401355","0.0-11.0-1.16","6138de7da0cd911868bd8d03","64d3ef96556dbe1f0e02b5aa","64db812d56e617fea9e6c159","","","","","","","","","","","","","","","","","","","","","","","","501.0003043087154","361.99000463126214","2507.100000023842","","","","","","","","","","","","",""
"","","","","","html-keyboard-response","87","401355","0.0-11.0-1.16","6138de7da0cd911868bd8d03","64d3ef96556dbe1f0e02b5aa","64db812d56e617fea9e6c159","","","","","","","","","","","","","","","","","","reconstruct","","","","","","501.0003043087154","361.99000463126214","2507.100000023842","","","","","","","","","","35","5","625","250"
"","","","","","html-keyboard-response","88","404374","0.0-11.0-0.17","6138de7da0cd911868bd8d03","64d3ef96556dbe1f0e02b5aa","64db812d56e617fea9e6c159","","null","","","","","","","","","","","","","null","","","fallScene","","","","","","","","","","","","true","33.65947199999989","500","479.92114317029973","330.87","6","36","","",""
"","","","","","html-keyboard-response","89","407147","0.0-11.0-1.17","6138de7da0cd911868bd8d03","64d3ef96556dbe1f0e02b5aa","64db812d56e617fea9e6c159","","","","","","","","","","","","","","","","","","","","","","","","455.0080009896017","307.0059986803043","2771.600000023842","","","","","","","","","","","","",""
"","","","","","html-keyboard-response","89","407147","0.0-11.0-1.17","6138de7da0cd911868bd8d03","64d3ef96556dbe1f0e02b5aa","64db812d56e617fea9e6c159","","","","","","","","","","","","","","","","","","reconstruct","","","","","","455.0080009896017","307.0059986803043","2771.600000023842","","","","","","","","","","36","3","500","250"
"","","","","","html-button-response","90","435218","0.0-12.0","6138de7da0cd911868bd8d03","64d3ef96556dbe1f0e02b5aa","64db812d56e617fea9e6c159","","28063","","","","","","","","","","","","","0","","","","<p><span style = ""font-size:40px;"">BREAK</span></p><p>You are halfway done! Click 'Next' when you are ready for the next set.</p>","","","","","","","","","","","","","","","","","","","",""
"","","","","","html-keyboard-response","91","438231","0.0-13.0-0.0","6138de7da0cd911868bd8d03","64d3ef96556dbe1f0e02b5aa","64db812d56e617fea9e6c159","","null","","","","","","","","","","","","","null","","","fallScene","","","","","","","","","","","","false","31.100625999999522","500","510.8711431702997","369.03","8","37","","",""
"","","","","","html-keyboard-response","92","446115","0.0-13.0-1.0","6138de7da0cd911868bd8d03","64d3ef96556dbe1f0e02b5aa","64db812d56e617fea9e6c159","","","","","","","","","","","","","","","","","","","","","","","","516.0099964932937","287.0002648052663","7881.699999928474","","","","","","","","","","","","",""
"","","","","","html-keyboard-response","92","446115","0.0-13.0-1.0","6138de7da0cd911868bd8d03","64d3ef96556dbe1f0e02b5aa","64db812d56e617fea9e6c159","","","","","","","","","","","","","","","","","","reconstruct","","","","","","516.0099964932937","287.0002648052663","7881.699999928474","","","","","","","","","","37","3","500","250"
"","","","","","html-keyboard-response","93","449134","0.0-13.0-0.1","6138de7da0cd911868bd8d03","64d3ef96556dbe1f0e02b5aa","64db812d56e617fea9e6c159","","null","","","","","","","","","","","","","null","","","fallScene","","","","","","","","","","","","false","30.09800999999978","604.4000000000001","596.8711431702998","394.5","10","38","","",""
"","","","","","html-keyboard-response","94","452218","0.0-13.0-1.1","6138de7da0cd911868bd8d03","64d3ef96556dbe1f0e02b5aa","64db812d56e617fea9e6c159","","","","","","","","","","","","","","","","","","","","","","","","616.99","296.0000000008334","3082.7999999523163","","","","","","","","","","","","",""
"","","","","","html-keyboard-response","94","452218","0.0-13.0-1.1","6138de7da0cd911868bd8d03","64d3ef96556dbe1f0e02b5aa","64db812d56e617fea9e6c159","","","","","","","","","","","","","","","","","","reconstruct","","","","","","616.99","296.0000000008334","3082.7999999523163","","","","","","","","","","38","2","375","350"
"","","","","","html-keyboard-response","95","455233","0.0-13.0-0.2","6138de7da0cd911868bd8d03","64d3ef96556dbe1f0e02b5aa","64db812d56e617fea9e6c159","","null","","","","","","","","","","","","","null","","","fallScene","","","","","","","","","","","","true","29.096105999998688","500","553.4711431702997","282.51","7","39","","",""
"","","","","","html-keyboard-response","96","457368","0.0-13.0-1.2","6138de7da0cd911868bd8d03","64d3ef96556dbe1f0e02b5aa","64db812d56e617fea9e6c159","","","","","","","","","","","","","","","","","","","","","","","","501.00687004827995","390.99273347148693","2133.7000000476837","","","","","","","","","","","","",""
"","","","","","html-keyboard-response","96","457368","0.0-13.0-1.2","6138de7da0cd911868bd8d03","64d3ef96556dbe1f0e02b5aa","64db812d56e617fea9e6c159","","","","","","","","","","","","","","","","","","reconstruct","","","","","","501.00687004827995","390.99273347148693","2133.7000000476837","","","","","","","","","","39","4","500","350"
"","","","","","html-keyboard-response","97","460382","0.0-13.0-0.3","6138de7da0cd911868bd8d03","64d3ef96556dbe1f0e02b5aa","64db812d56e617fea9e6c159","","null","","","","","","","","","","","","","null","","","fallScene","","","","","","","","","","","","true","30.599340000000083","604.4000000000001","650.0211431702996","404.58000000000004","11","40","","",""
"","","","","","html-keyboard-response","98","462783","0.0-13.0-1.3","6138de7da0cd911868bd8d03","64d3ef96556dbe1f0e02b5aa","64db812d56e617fea9e6c159","","","","","","","","","","","","","","","","","","","","","","","","350.99998179829356","368.99000001656515","2399.600000023842","","","","","","","","","","","","",""
"","","","","","html-keyboard-response","98","462783","0.0-13.0-1.3","6138de7da0cd911868bd8d03","64d3ef96556dbe1f0e02b5aa","64db812d56e617fea9e6c159","","","","","","","","","","","","","","","","","","reconstruct","","","","","","350.99998179829356","368.99000001656515","2399.600000023842","","","","","","","","","","40","5","625","250"
"","","","","","html-keyboard-response","99","465795","0.0-13.0-0.4","6138de7da0cd911868bd8d03","64d3ef96556dbe1f0e02b5aa","64db812d56e617fea9e6c159","","null","","","","","","","","","","","","","null","","","fallScene","","","","","","","","","","","","false","29.580406000000714","604.4000000000001","575.4211431702997","266.76","12","41","","",""
"","","","","","html-keyboard-response","100","467767","0.0-13.0-1.4","6138de7da0cd911868bd8d03","64d3ef96556dbe1f0e02b5aa","64db812d56e617fea9e6c159","","","","","","","","","","","","","","","","","","","","","","","","581.0098382405707","381.0017913744648","1971.4000000953674","","","","","","","","","","","","",""
"","","","","","html-keyboard-response","100","467767","0.0-13.0-1.4","6138de7da0cd911868bd8d03","64d3ef96556dbe1f0e02b5aa","64db812d56e617fea9e6c159","","","","","","","","","","","","","","","","","","reconstruct","","","","","","581.0098382405707","381.0017913744648","1971.4000000953674","","","","","","","","","","41","6","625","350"
"","","","","","html-keyboard-response","101","470780","0.0-13.0-0.5","6138de7da0cd911868bd8d03","64d3ef96556dbe1f0e02b5aa","64db812d56e617fea9e6c159","","null","","","","","","","","","","","","","null","","","fallScene","","","","","","","","","","","","false","28.557619999999414","500","553.4711431702997","282.51","7","42","","",""
"","","","","","html-keyboard-response","102","473226","0.0-13.0-1.5","6138de7da0cd911868bd8d03","64d3ef96556dbe1f0e02b5aa","64db812d56e617fea9e6c159","","","","","","","","","","","","","","","","","","","","","","","","520.0099995009635","352.00009990234895","2444.5","","","","","","","","","","","","",""
"","","","","","html-keyboard-response","102","473226","0.0-13.0-1.5","6138de7da0cd911868bd8d03","64d3ef96556dbe1f0e02b5aa","64db812d56e617fea9e6c159","","","","","","","","","","","","","","","","","","reconstruct","","","","","","520.0099995009635","352.00009990234895","2444.5","","","","","","","","","","42","1","375","250"
"","","","","","html-keyboard-response","103","476238","0.0-13.0-0.6","6138de7da0cd911868bd8d03","64d3ef96556dbe1f0e02b5aa","64db812d56e617fea9e6c159","","null","","","","","","","","","","","","","null","","","fallScene","","","","","","","","","","","","false","28.088368000000482","322.3","308.07114317029976","253.89","2","43","","",""
"","","","","","html-keyboard-response","104","478454","0.0-13.0-1.6","6138de7da0cd911868bd8d03","64d3ef96556dbe1f0e02b5aa","64db812d56e617fea9e6c159","","","","","","","","","","","","","","","","","","","","","","","","329.0099999999841","252.000000564511","2215","","","","","","","","","","","","",""
"","","","","","html-keyboard-response","104","478454","0.0-13.0-1.6","6138de7da0cd911868bd8d03","64d3ef96556dbe1f0e02b5aa","64db812d56e617fea9e6c159","","","","","","","","","","","","","","","","","","reconstruct","","","","","","329.0099999999841","252.000000564511","2215","","","","","","","","","","43","1","375","250"
"","","","","","html-keyboard-response","105","481474","0.0-13.0-0.7","6138de7da0cd911868bd8d03","64d3ef96556dbe1f0e02b5aa","64db812d56e617fea9e6c159","","null","","","","","","","","","","","","","null","","","fallScene","","","","","","","","","","","","true","27.08826300000079","322.3","296.07114317029976","371.46","3","44","","",""
"","","","","","html-keyboard-response","106","484348","0.0-13.0-1.7","6138de7da0cd911868bd8d03","64d3ef96556dbe1f0e02b5aa","64db812d56e617fea9e6c159","","","","","","","","","","","","","","","","","","","","","","","","701.9919813139193","311.9940249959382","2872.1999999284744","","","","","","","","","","","","",""
"","","","","","html-keyboard-response","106","484348","0.0-13.0-1.7","6138de7da0cd911868bd8d03","64d3ef96556dbe1f0e02b5aa","64db812d56e617fea9e6c159","","","","","","","","","","","","","","","","","","reconstruct","","","","","","701.9919813139193","311.9940249959382","2872.1999999284744","","","","","","","","","","44","5","625","250"
"","","","","","html-keyboard-response","107","487366","0.0-13.0-0.8","6138de7da0cd911868bd8d03","64d3ef96556dbe1f0e02b5aa","64db812d56e617fea9e6c159","","null","","","","","","","","","","","","","null","","","fallScene","","","","","","","","","","","","false","26.086371999999628","500","453.67114317029973","210.33","5","45","","",""
"","","","","","html-keyboard-response","108","490024","0.0-13.0-1.8","6138de7da0cd911868bd8d03","64d3ef96556dbe1f0e02b5aa","64db812d56e617fea9e6c159","","","","","","","","","","","","","","","","","","","","","","","","497.9985554544125","295.01964765708533","2657.4000000953674","","","","","","","","","","","","",""
"","","","","","html-keyboard-response","108","490024","0.0-13.0-1.8","6138de7da0cd911868bd8d03","64d3ef96556dbe1f0e02b5aa","64db812d56e617fea9e6c159","","","","","","","","","","","","","","","","","","reconstruct","","","","","","497.9985554544125","295.01964765708533","2657.4000000953674","","","","","","","","","","45","4","500","350"
"","","","","","html-keyboard-response","109","493040","0.0-13.0-0.9","6138de7da0cd911868bd8d03","64d3ef96556dbe1f0e02b5aa","64db812d56e617fea9e6c159","","null","","","","","","","","","","","","","null","","","fallScene","","","","","","","","","","","","false","26.519506000000753","604.4000000000001","667.6211431702998","201.78","9","46","","",""
"","","","","","html-keyboard-response","110","495056","0.0-13.0-1.9","6138de7da0cd911868bd8d03","64d3ef96556dbe1f0e02b5aa","64db812d56e617fea9e6c159","","","","","","","","","","","","","","","","","","","","","","","","629.996691160138","297.9905632855947","2015","","","","","","","","","","","","",""
"","","","","","html-keyboard-response","110","495057","0.0-13.0-1.9","6138de7da0cd911868bd8d03","64d3ef96556dbe1f0e02b5aa","64db812d56e617fea9e6c159","","","","","","","","","","","","","","","","","","reconstruct","","","","","","629.996691160138","297.9905632855947","2015","","","","","","","","","","46","5","625","250"
"","","","","","html-keyboard-response","111","498070","0.0-13.0-0.10","6138de7da0cd911868bd8d03","64d3ef96556dbe1f0e02b5aa","64db812d56e617fea9e6c159","","null","","","","","","","","","","","","","null","","","fallScene","","","","","","","","","","","","false","25.078899999998978","322.3","379.3711431702997","245.25","1","47","","",""
"","","","","","html-keyboard-response","112","500508","0.0-13.0-1.10","6138de7da0cd911868bd8d03","64d3ef96556dbe1f0e02b5aa","64db812d56e617fea9e6c159","","","","","","","","","","","","","","","","","","","","","","","","373.9949035893738","292.00860387114784","2436.3000000715256","","","","","","","","","","","","",""
"","","","","","html-keyboard-response","112","500508","0.0-13.0-1.10","6138de7da0cd911868bd8d03","64d3ef96556dbe1f0e02b5aa","64db812d56e617fea9e6c159","","","","","","","","","","","","","","","","","","reconstruct","","","","","","373.9949035893738","292.00860387114784","2436.3000000715256","","","","","","","","","","47","2","375","350"
"","","","","","html-keyboard-response","113","503530","0.0-13.0-0.11","6138de7da0cd911868bd8d03","64d3ef96556dbe1f0e02b5aa","64db812d56e617fea9e6c159","","null","","","","","","","","","","","","","null","","","fallScene","","","","","","","","","","","","false","25.501925000001215","604.4000000000001","650.0211431702996","404.58000000000004","11","48","","",""
"","","","","","html-keyboard-response","114","505657","0.0-13.0-1.11","6138de7da0cd911868bd8d03","64d3ef96556dbe1f0e02b5aa","64db812d56e617fea9e6c159","","","","","","","","","","","","","","","","","","","","","","","","637.9900000000004","300.00000008953356","2126.3000000715256","","","","","","","","","","","","",""
"","","","","","html-keyboard-response","114","505657","0.0-13.0-1.11","6138de7da0cd911868bd8d03","64d3ef96556dbe1f0e02b5aa","64db812d56e617fea9e6c159","","","","","","","","","","","","","","","","","","reconstruct","","","","","","637.9900000000004","300.00000008953356","2126.3000000715256","","","","","","","","","","48","6","625","350"
"","","","","","html-keyboard-response","115","508667","0.0-13.0-0.12","6138de7da0cd911868bd8d03","64d3ef96556dbe1f0e02b5aa","64db812d56e617fea9e6c159","","null","","","","","","","","","","","","","null","","","fallScene","","","","","","","","","","","","false","25.084249999999887","500","479.92114317029973","330.87","6","49","","",""
"","","","","","html-keyboard-response","116","512366","0.0-13.0-1.12","6138de7da0cd911868bd8d03","64d3ef96556dbe1f0e02b5aa","64db812d56e617fea9e6c159","","","","","","","","","","","","","","","","","","","","","","","","495.00113133707913","301.01993514034183","3697.600000023842","","","","","","","","","","","","",""
"","","","","","html-keyboard-response","116","512366","0.0-13.0-1.12","6138de7da0cd911868bd8d03","64d3ef96556dbe1f0e02b5aa","64db812d56e617fea9e6c159","","","","","","","","","","","","","","","","","","reconstruct","","","","","","495.00113133707913","301.01993514034183","3697.600000023842","","","","","","","","","","49","4","500","350"
"","","","","","html-keyboard-response","117","515387","0.0-13.0-0.13","6138de7da0cd911868bd8d03","64d3ef96556dbe1f0e02b5aa","64db812d56e617fea9e6c159","","null","","","","","","","","","","","","","null","","","fallScene","","","","","","","","","","","","true","25.498425000000864","322.3","379.3711431702997","245.25","1","50","","",""
"","","","","","html-keyboard-response","118","518247","0.0-13.0-1.13","6138de7da0cd911868bd8d03","64d3ef96556dbe1f0e02b5aa","64db812d56e617fea9e6c159","","","","","","","","","","","","","","","","","","","","","","","","643.9913041412042","283.00493781731154","2858.7999999523163","","","","","","","","","","","","",""
"","","","","","html-keyboard-response","118","518247","0.0-13.0-1.13","6138de7da0cd911868bd8d03","64d3ef96556dbe1f0e02b5aa","64db812d56e617fea9e6c159","","","","","","","","","","","","","","","","","","reconstruct","","","","","","643.9913041412042","283.00493781731154","2858.7999999523163","","","","","","","","","","50","4","500","350"
"","","","","","html-keyboard-response","119","521263","0.0-13.0-0.14","6138de7da0cd911868bd8d03","64d3ef96556dbe1f0e02b5aa","64db812d56e617fea9e6c159","","null","","","","","","","","","","","","","null","","","fallScene","","","","","","","","","","","","false","24.079152000000235","500","453.67114317029973","210.33","5","51","","",""
"","","","","","html-keyboard-response","120","523298","0.0-13.0-1.14","6138de7da0cd911868bd8d03","64d3ef96556dbe1f0e02b5aa","64db812d56e617fea9e6c159","","","","","","","","","","","","","","","","","","","","","","","","469.00005973217657","269.99000017839825","2032.7999999523163","","","","","","","","","","","","",""
"","","","","","html-keyboard-response","120","523298","0.0-13.0-1.14","6138de7da0cd911868bd8d03","64d3ef96556dbe1f0e02b5aa","64db812d56e617fea9e6c159","","","","","","","","","","","","","","","","","","reconstruct","","","","","","469.00005973217657","269.99000017839825","2032.7999999523163","","","","","","","","","","51","3","500","250"
"","","","","","html-keyboard-response","121","526313","0.0-13.0-0.15","6138de7da0cd911868bd8d03","64d3ef96556dbe1f0e02b5aa","64db812d56e617fea9e6c159","","null","","","","","","","","","","","","","null","","","fallScene","","","","","","","","","","","","true","24.475944000000133","604.4000000000001","650.0211431702996","404.58000000000004","11","52","","",""
"","","","","","html-keyboard-response","122","529175","0.0-13.0-1.15","6138de7da0cd911868bd8d03","64d3ef96556dbe1f0e02b5aa","64db812d56e617fea9e6c159","","","","","","","","","","","","","","","","","","","","","","","","380.9985847564413","318.9901006522604","2860.3000000715256","","","","","","","","","","","","",""
"","","","","","html-keyboard-response","122","529175","0.0-13.0-1.15","6138de7da0cd911868bd8d03","64d3ef96556dbe1f0e02b5aa","64db812d56e617fea9e6c159","","","","","","","","","","","","","","","","","","reconstruct","","","","","","380.9985847564413","318.9901006522604","2860.3000000715256","","","","","","","","","","52","4","500","350"
"","","","","","html-keyboard-response","123","532192","0.0-13.0-0.16","6138de7da0cd911868bd8d03","64d3ef96556dbe1f0e02b5aa","64db812d56e617fea9e6c159","","null","","","","","","","","","","","","","null","","","fallScene","","","","","","","","","","","","true","23.076452000000515","322.3","296.07114317029976","371.46","3","53","","",""
"","","","","","html-keyboard-response","124","535988","0.0-13.0-1.16","6138de7da0cd911868bd8d03","64d3ef96556dbe1f0e02b5aa","64db812d56e617fea9e6c159","","","","","","","","","","","","","","","","","","","","","","","","680.9900000000464","304.0000009626815","3794.5","","","","","","","","","","","","",""
"","","","","","html-keyboard-response","124","535988","0.0-13.0-1.16","6138de7da0cd911868bd8d03","64d3ef96556dbe1f0e02b5aa","64db812d56e617fea9e6c159","","","","","","","","","","","","","","","","","","reconstruct","","","","","","680.9900000000464","304.0000009626815","3794.5","","","","","","","","","","53","3","500","250"
"","","","","","html-keyboard-response","125","539000","0.0-13.0-0.17","6138de7da0cd911868bd8d03","64d3ef96556dbe1f0e02b5aa","64db812d56e617fea9e6c159","","null","","","","","","","","","","","","","null","","","fallScene","","","","","","","","","","","","true","23.459907999998308","604.4000000000001","596.8711431702998","394.5","10","54","","",""
"","","","","","html-keyboard-response","126","541776","0.0-13.0-1.17","6138de7da0cd911868bd8d03","64d3ef96556dbe1f0e02b5aa","64db812d56e617fea9e6c159","","","","","","","","","","","","","","","","","","","","","","","","445.0043539001635","308.9909975806937","2773.7999999523163","","","","","","","","","","","","",""
"","","","","","html-keyboard-response","126","541776","0.0-13.0-1.17","6138de7da0cd911868bd8d03","64d3ef96556dbe1f0e02b5aa","64db812d56e617fea9e6c159","","","","","","","","","","","","","","","","","","reconstruct","","","","","","445.0043539001635","308.9909975806937","2773.7999999523163","","","","","","","","","","54","1","375","250"
"","","","","","html-button-response","127","567868","0.0-14.0","6138de7da0cd911868bd8d03","64d3ef96556dbe1f0e02b5aa","64db812d56e617fea9e6c159","","26082","","","","","","","","","","","","","0","","","","<p><span style = ""font-size:40px;"">BREAK</span></p><p>You are almost done! Click 'Next' when you are ready for the next set.</p>","","","","","","","","","","","","","","","","","","","",""
"","","","","","html-keyboard-response","128","570879","0.0-15.0-0.0","6138de7da0cd911868bd8d03","64d3ef96556dbe1f0e02b5aa","64db812d56e617fea9e6c159","","null","","","","","","","","","","","","","null","","","fallScene","","","","","","","","","","","","true","22.06894800000172","322.3","308.07114317029976","253.89","2","55","","",""
"","","","","","html-keyboard-response","129","592144","0.0-15.0-1.0","6138de7da0cd911868bd8d03","64d3ef96556dbe1f0e02b5aa","64db812d56e617fea9e6c159","","","","","","","","","","","","","","","","","","","","","","","","493.0089962026549","312.99563326921","21263.700000047684","","","","","","","","","","","","",""
"","","","","","html-keyboard-response","129","592144","0.0-15.0-1.0","6138de7da0cd911868bd8d03","64d3ef96556dbe1f0e02b5aa","64db812d56e617fea9e6c159","","","","","","","","","","","","","","","","","","reconstruct","","","","","","493.0089962026549","312.99563326921","21263.700000047684","","","","","","","","","","55","4","500","350"
"","","","","","html-keyboard-response","130","595161","0.0-15.0-0.1","6138de7da0cd911868bd8d03","64d3ef96556dbe1f0e02b5aa","64db812d56e617fea9e6c159","","null","","","","","","","","","","","","","null","","","fallScene","","","","","","","","","","","","false","22.07380999999959","322.3","379.3711431702997","245.25","1","56","","",""
"","","","","","html-keyboard-response","131","598031","0.0-15.0-1.1","6138de7da0cd911868bd8d03","64d3ef96556dbe1f0e02b5aa","64db812d56e617fea9e6c159","","","","","","","","","","","","","","","","","","","","","","","","387.9900000039099","268.99999115702184","2869.2000000476837","","","","","","","","","","","","",""
"","","","","","html-keyboard-response","131","598031","0.0-15.0-1.1","6138de7da0cd911868bd8d03","64d3ef96556dbe1f0e02b5aa","64db812d56e617fea9e6c159","","","","","","","","","","","","","","","","","","reconstruct","","","","","","387.9900000039099","268.99999115702184","2869.2000000476837","","","","","","","","","","56","5","625","250"
"","","","","","html-keyboard-response","132","601052","0.0-15.0-0.2","6138de7da0cd911868bd8d03","64d3ef96556dbe1f0e02b5aa","64db812d56e617fea9e6c159","","null","","","","","","","","","","","","","null","","","fallScene","","","","","","","","","","","","false","22.80726800000039","322.3","296.07114317029976","371.46","3","57","","",""
"","","","","","html-keyboard-response","133","603179","0.0-15.0-1.2","6138de7da0cd911868bd8d03","64d3ef96556dbe1f0e02b5aa","64db812d56e617fea9e6c159","","","","","","","","","","","","","","","","","","","","","","","","319.0089840306804","269.0043917186538","2125.7999999523163","","","","","","","","","","","","",""
"","","","","","html-keyboard-response","133","603179","0.0-15.0-1.2","6138de7da0cd911868bd8d03","64d3ef96556dbe1f0e02b5aa","64db812d56e617fea9e6c159","","","","","","","","","","","","","","","","","","reconstruct","","","","","","319.0089840306804","269.0043917186538","2125.7999999523163","","","","","","","","","","57","1","375","250"
"","","","","","html-keyboard-response","134","606197","0.0-15.0-0.3","6138de7da0cd911868bd8d03","64d3ef96556dbe1f0e02b5aa","64db812d56e617fea9e6c159","","null","","","","","","","","","","","","","null","","","fallScene","","","","","","","","","","","","false","21.76950300000084","604.4000000000001","667.6211431702998","201.78","9","58","","",""
"","","","","","html-keyboard-response","135","608959","0.0-15.0-1.3","6138de7da0cd911868bd8d03","64d3ef96556dbe1f0e02b5aa","64db812d56e617fea9e6c159","","","","","","","","","","","","","","","","","","","","","","","","625.9921606204068","294.99379160829244","2760.9000000953674","","","","","","","","","","","","",""
"","","","","","html-keyboard-response","135","608959","0.0-15.0-1.3","6138de7da0cd911868bd8d03","64d3ef96556dbe1f0e02b5aa","64db812d56e617fea9e6c159","","","","","","","","","","","","","","","","","","reconstruct","","","","","","625.9921606204068","294.99379160829244","2760.9000000953674","","","","","","","","","","58","3","500","250"
"","","","","","html-keyboard-response","136","611976","0.0-15.0-0.4","6138de7da0cd911868bd8d03","64d3ef96556dbe1f0e02b5aa","64db812d56e617fea9e6c159","","null","","","","","","","","","","","","","null","","","fallScene","","","","","","","","","","","","true","21.069887999999573","604.4000000000001","650.0211431702996","404.58000000000004","11","59","","",""
"","","","","","html-keyboard-response","137","615803","0.0-15.0-1.4","6138de7da0cd911868bd8d03","64d3ef96556dbe1f0e02b5aa","64db812d56e617fea9e6c159","","","","","","","","","","","","","","","","","","","","","","","","410.9998959804509","329.990000541018","3826.100000023842","","","","","","","","","","","","",""
"","","","","","html-keyboard-response","137","615803","0.0-15.0-1.4","6138de7da0cd911868bd8d03","64d3ef96556dbe1f0e02b5aa","64db812d56e617fea9e6c159","","","","","","","","","","","","","","","","","","reconstruct","","","","","","410.9998959804509","329.990000541018","3826.100000023842","","","","","","","","","","59","2","375","350"
"","","","","","html-keyboard-response","138","618824","0.0-15.0-0.5","6138de7da0cd911868bd8d03","64d3ef96556dbe1f0e02b5aa","64db812d56e617fea9e6c159","","null","","","","","","","","","","","","","null","","","fallScene","","","","","","","","","","","","true","20.402339999999384","500","510.8711431702997","369.03","8","60","","",""
"","","","","","html-keyboard-response","139","621913","0.0-15.0-1.5","6138de7da0cd911868bd8d03","64d3ef96556dbe1f0e02b5aa","64db812d56e617fea9e6c159","","","","","","","","","","","","","","","","","","","","","","","","527.9900000000015","225.00000017295685","3087.6999999284744","","","","","","","","","","","","",""
"","","","","","html-keyboard-response","139","621913","0.0-15.0-1.5","6138de7da0cd911868bd8d03","64d3ef96556dbe1f0e02b5aa","64db812d56e617fea9e6c159","","","","","","","","","","","","","","","","","","reconstruct","","","","","","527.9900000000015","225.00000017295685","3087.6999999284744","","","","","","","","","","60","1","375","250"
"","","","","","html-keyboard-response","140","624925","0.0-15.0-0.6","6138de7da0cd911868bd8d03","64d3ef96556dbe1f0e02b5aa","64db812d56e617fea9e6c159","","null","","","","","","","","","","","","","null","","","fallScene","","","","","","","","","","","","true","20.403000000000464","604.4000000000001","667.6211431702998","201.78","9","61","","",""
"","","","","","html-keyboard-response","141","628255","0.0-15.0-1.6","6138de7da0cd911868bd8d03","64d3ef96556dbe1f0e02b5aa","64db812d56e617fea9e6c159","","","","","","","","","","","","","","","","","","","","","","","","451.00879076900964","385.99523320021194","3329.5","","","","","","","","","","","","",""
"","","","","","html-keyboard-response","141","628255","0.0-15.0-1.6","6138de7da0cd911868bd8d03","64d3ef96556dbe1f0e02b5aa","64db812d56e617fea9e6c159","","","","","","","","","","","","","","","","","","reconstruct","","","","","","451.00879076900964","385.99523320021194","3329.5","","","","","","","","","","61","2","375","350"
"","","","","","html-keyboard-response","142","631280","0.0-15.0-0.7","6138de7da0cd911868bd8d03","64d3ef96556dbe1f0e02b5aa","64db812d56e617fea9e6c159","","null","","","","","","","","","","","","","null","","","fallScene","","","","","","","","","","","","true","19.06195899999887","322.3","379.3711431702997","245.25","1","62","","",""
"","","","","","html-keyboard-response","143","634427","0.0-15.0-1.7","6138de7da0cd911868bd8d03","64d3ef96556dbe1f0e02b5aa","64db812d56e617fea9e6c159","","","","","","","","","","","","","","","","","","","","","","","","659.9900000000034","228.99999973954027","3146.1999999284744","","","","","","","","","","","","",""
"","","","","","html-keyboard-response","143","634427","0.0-15.0-1.7","6138de7da0cd911868bd8d03","64d3ef96556dbe1f0e02b5aa","64db812d56e617fea9e6c159","","","","","","","","","","","","","","","","","","reconstruct","","","","","","659.9900000000034","228.99999973954027","3146.1999999284744","","","","","","","","","","62","3","500","250"
"","","","","","html-keyboard-response","144","637436","0.0-15.0-0.8","6138de7da0cd911868bd8d03","64d3ef96556dbe1f0e02b5aa","64db812d56e617fea9e6c159","","null","","","","","","","","","","","","","null","","","fallScene","","","","","","","","","","","","false","19.06201599999936","604.4000000000001","596.8711431702998","394.5","10","63","","",""
"","","","","","html-keyboard-response","145","640489","0.0-15.0-1.8","6138de7da0cd911868bd8d03","64d3ef96556dbe1f0e02b5aa","64db812d56e617fea9e6c159","","","","","","","","","","","","","","","","","","","","","","","","587.0098836280755","244.0015211495865","3051.399999976158","","","","","","","","","","","","",""
"","","","","","html-keyboard-response","145","640489","0.0-15.0-1.8","6138de7da0cd911868bd8d03","64d3ef96556dbe1f0e02b5aa","64db812d56e617fea9e6c159","","","","","","","","","","","","","","","","","","reconstruct","","","","","","587.0098836280755","244.0015211495865","3051.399999976158","","","","","","","","","","63","6","625","350"
"","","","","","html-keyboard-response","146","643502","0.0-15.0-0.9","6138de7da0cd911868bd8d03","64d3ef96556dbe1f0e02b5aa","64db812d56e617fea9e6c159","","null","","","","","","","","","","","","","null","","","fallScene","","","","","","","","","","","","false","17.62201299999864","500","453.67114317029973","210.33","5","64","","",""
"","","","","","html-keyboard-response","147","646166","0.0-15.0-1.9","6138de7da0cd911868bd8d03","64d3ef96556dbe1f0e02b5aa","64db812d56e617fea9e6c159","","","","","","","","","","","","","","","","","","","","","","","","486.0085486060397","299.99481142266336","2661.899999976158","","","","","","","","","","","","",""
"","","","","","html-keyboard-response","147","646166","0.0-15.0-1.9","6138de7da0cd911868bd8d03","64d3ef96556dbe1f0e02b5aa","64db812d56e617fea9e6c159","","","","","","","","","","","","","","","","","","reconstruct","","","","","","486.0085486060397","299.99481142266336","2661.899999976158","","","","","","","","","","64","1","375","250"
"","","","","","html-keyboard-response","148","649177","0.0-15.0-0.10","6138de7da0cd911868bd8d03","64d3ef96556dbe1f0e02b5aa","64db812d56e617fea9e6c159","","null","","","","","","","","","","","","","null","","","fallScene","","","","","","","","","","","","false","19.06195899999887","322.3","308.07114317029976","253.89","2","65","","",""
"","","","","","html-keyboard-response","149","651444","0.0-15.0-1.10","6138de7da0cd911868bd8d03","64d3ef96556dbe1f0e02b5aa","64db812d56e617fea9e6c159","","","","","","","","","","","","","","","","","","","","","","","","365.00569283874427","292.01873026136485","2264.899999976158","","","","","","","","","","","","",""
"","","","","","html-keyboard-response","149","651444","0.0-15.0-1.10","6138de7da0cd911868bd8d03","64d3ef96556dbe1f0e02b5aa","64db812d56e617fea9e6c159","","","","","","","","","","","","","","","","","","reconstruct","","","","","","365.00569283874427","292.01873026136485","2264.899999976158","","","","","","","","","","65","2","375","350"
"","","","","","html-keyboard-response","150","654490","0.0-15.0-0.11","6138de7da0cd911868bd8d03","64d3ef96556dbe1f0e02b5aa","64db812d56e617fea9e6c159","","null","","","","","","","","","","","","","null","","","fallScene","","","","","","","","","","","","false","19.377929000001167","500","553.4711431702997","282.51","7","66","","",""
"","","","","","html-keyboard-response","151","657537","0.0-15.0-1.11","6138de7da0cd911868bd8d03","64d3ef96556dbe1f0e02b5aa","64db812d56e617fea9e6c159","","","","","","","","","","","","","","","","","","","","","","","","515.0000000361738","292.99000000000007","3045.9000000953674","","","","","","","","","","","","",""
"","","","","","html-keyboard-response","151","657537","0.0-15.0-1.11","6138de7da0cd911868bd8d03","64d3ef96556dbe1f0e02b5aa","64db812d56e617fea9e6c159","","","","","","","","","","","","","","","","","","reconstruct","","","","","","515.0000000361738","292.99000000000007","3045.9000000953674","","","","","","","","","","66","2","375","350"
"","","","","","html-keyboard-response","152","660561","0.0-15.0-0.12","6138de7da0cd911868bd8d03","64d3ef96556dbe1f0e02b5aa","64db812d56e617fea9e6c159","","null","","","","","","","","","","","","","null","","","fallScene","","","","","","","","","","","","false","18.058877999999094","500","479.92114317029973","330.87","6","67","","",""
"","","","","","html-keyboard-response","153","663186","0.0-15.0-1.12","6138de7da0cd911868bd8d03","64d3ef96556dbe1f0e02b5aa","64db812d56e617fea9e6c159","","","","","","","","","","","","","","","","","","","","","","","","484.9925928729747","284.0067182192009","2623.600000023842","","","","","","","","","","","","",""
"","","","","","html-keyboard-response","153","663186","0.0-15.0-1.12","6138de7da0cd911868bd8d03","64d3ef96556dbe1f0e02b5aa","64db812d56e617fea9e6c159","","","","","","","","","","","","","","","","","","reconstruct","","","","","","484.9925928729747","284.0067182192009","2623.600000023842","","","","","","","","","","67","1","375","250"
"","","","","","html-keyboard-response","154","666213","0.0-15.0-0.13","6138de7da0cd911868bd8d03","64d3ef96556dbe1f0e02b5aa","64db812d56e617fea9e6c159","","null","","","","","","","","","","","","","null","","","fallScene","","","","","","","","","","","","false","18.6589980000006","604.4000000000001","596.8711431702998","394.5","10","68","","",""
"","","","","","html-keyboard-response","155","668948","0.0-15.0-1.13","6138de7da0cd911868bd8d03","64d3ef96556dbe1f0e02b5aa","64db812d56e617fea9e6c159","","","","","","","","","","","","","","","","","","","","","","","","572.9935255371086","281.00762111082895","2733.6999999284744","","","","","","","","","","","","",""
"","","","","","html-keyboard-response","155","668948","0.0-15.0-1.13","6138de7da0cd911868bd8d03","64d3ef96556dbe1f0e02b5aa","64db812d56e617fea9e6c159","","","","","","","","","","","","","","","","","","reconstruct","","","","","","572.9935255371086","281.00762111082895","2733.6999999284744","","","","","","","","","","68","3","500","250"
"","","","","","html-keyboard-response","156","671965","0.0-15.0-0.14","6138de7da0cd911868bd8d03","64d3ef96556dbe1f0e02b5aa","64db812d56e617fea9e6c159","","null","","","","","","","","","","","","","null","","","fallScene","","","","","","","","","","","","false","18.35953199999873","322.3","356.42114317029973","357.87","4","69","","",""
"","","","","","html-keyboard-response","157","675464","0.0-15.0-1.14","6138de7da0cd911868bd8d03","64d3ef96556dbe1f0e02b5aa","64db812d56e617fea9e6c159","","","","","","","","","","","","","","","","","","","","","","","","399.99","237.9999999997877","3496.7999999523163","","","","","","","","","","","","",""
"","","","","","html-keyboard-response","157","675464","0.0-15.0-1.14","6138de7da0cd911868bd8d03","64d3ef96556dbe1f0e02b5aa","64db812d56e617fea9e6c159","","","","","","","","","","","","","","","","","","reconstruct","","","","","","399.99","237.9999999997877","3496.7999999523163","","","","","","","","","","69","3","500","250"
"","","","","","html-keyboard-response","158","678486","0.0-15.0-0.15","6138de7da0cd911868bd8d03","64d3ef96556dbe1f0e02b5aa","64db812d56e617fea9e6c159","","null","","","","","","","","","","","","","null","","","fallScene","","","","","","","","","","","","false","18.65971799999918","604.4000000000001","596.8711431702998","394.5","10","70","","",""
"","","","","","html-keyboard-response","159","681094","0.0-15.0-1.15","6138de7da0cd911868bd8d03","64d3ef96556dbe1f0e02b5aa","64db812d56e617fea9e6c159","","","","","","","","","","","","","","","","","","","","","","","","585.0099998123761","309.0000612571842","2606.399999976158","","","","","","","","","","","","",""
"","","","","","html-keyboard-response","159","681094","0.0-15.0-1.15","6138de7da0cd911868bd8d03","64d3ef96556dbe1f0e02b5aa","64db812d56e617fea9e6c159","","","","","","","","","","","","","","","","","","reconstruct","","","","","","585.0099998123761","309.0000612571842","2606.399999976158","","","","","","","","","","70","5","625","250"
"","","","","","html-keyboard-response","160","684106","0.0-15.0-0.16","6138de7da0cd911868bd8d03","64d3ef96556dbe1f0e02b5aa","64db812d56e617fea9e6c159","","null","","","","","","","","","","","","","null","","","fallScene","","","","","","","","","","","","true","17.053702999999746","322.3","356.42114317029973","357.87","4","71","","",""
"","","","","","html-keyboard-response","161","686626","0.0-15.0-1.16","6138de7da0cd911868bd8d03","64d3ef96556dbe1f0e02b5aa","64db812d56e617fea9e6c159","","","","","","","","","","","","","","","","","","","","","","","","686.9901863611277","390.0019215858252","2518.5","","","","","","","","","","","","",""
"","","","","","html-keyboard-response","161","686626","0.0-15.0-1.16","6138de7da0cd911868bd8d03","64d3ef96556dbe1f0e02b5aa","64db812d56e617fea9e6c159","","","","","","","","","","","","","","","","","","reconstruct","","","","","","686.9901863611277","390.0019215858252","2518.5","","","","","","","","","","71","2","375","350"
"","","","","","html-keyboard-response","162","689643","0.0-15.0-0.17","6138de7da0cd911868bd8d03","64d3ef96556dbe1f0e02b5aa","64db812d56e617fea9e6c159","","null","","","","","","","","","","","","","null","","","fallScene","","","","","","","","","","","","false","17.055453999999795","500","553.4711431702997","282.51","7","72","","",""
"","","","","","html-keyboard-response","163","692408","0.0-15.0-1.17","6138de7da0cd911868bd8d03","64d3ef96556dbe1f0e02b5aa","64db812d56e617fea9e6c159","","","","","","","","","","","","","","","","","","","","","","","","508.99000000000245","306.00000022233485","2764","","","","","","","","","","","","",""
"","","","","","html-keyboard-response","163","692408","0.0-15.0-1.17","6138de7da0cd911868bd8d03","64d3ef96556dbe1f0e02b5aa","64db812d56e617fea9e6c159","","","","","","","","","","","","","","","","","","reconstruct","","","","","","508.99000000000245","306.00000022233485","2764","","","","","","","","","","72","6","625","350"
"","","","","","survey-text","164","749885","0.0-16.0","6138de7da0cd911868bd8d03","64d3ef96556dbe1f0e02b5aa","64db812d56e617fea9e6c159","","57461","","","","","","","","","","","","","{""Summary"":""A ball dropped behind a gray screen and hit a triangle which changed its trajectory, I was supposed to move the triangle to where I thought the ball hit it.""}","","","","","","","","","","","","","","","","","","","","","","","",""
"","","","","","survey-text","165","752422","0.0-17.0","6138de7da0cd911868bd8d03","64d3ef96556dbe1f0e02b5aa","64db812d56e617fea9e6c159","","2522","","","","","","","","","","","","","{""Comments"":""""}","","","","","","","","","","","","","","","","","","","","","","","",""
