"success","timeout","failed_images","failed_audio","failed_video","trial_type","trial_index","time_elapsed","internal_node_id","subject_id","study_id","session_id","view_history","rt","width","height","webaudio","browser","browser_version","mobile","os","fullscreen","vsync_rate","webcam","microphone","url","response","triangle_prac_final_x","triangle_prac_final_y","trial_name","stimulus","ball_X_prac_occ","ball_Y_prac_occ","obstacle_X_prac_occ","obstacle_Y_prac_occ","triangle_final_x","triangle_final_y","response_time","obstacle_X_prac_occ_init","obstacle_Y_prac_occ_init","question_order","comprehensionCheck","flipped","runnerFPS","ball_X","obstacle_groundTruth_x","obstacle_groundTruth_y","stimulus_idx","currentTrial","obstacle_idx","obstacle_initial_x","obstacle_initial_y"
"true","false","[]","[]","[]","preload","0","46","0.0-0.0","629531cb501e6d23d9797050","64d3ef96556dbe1f0e02b5aa","64db813192d3e6ed7ed5fc42","","","","","","","","","","","","","","","","","","","","","","","","","","","","","","","","","","","","","","","",""
"","","","","","instructions","1","2662","0.0-1.0","629531cb501e6d23d9797050","64d3ef96556dbe1f0e02b5aa","64db813192d3e6ed7ed5fc42","[{""page_index"":0,""viewing_time"":2615}]","2615","","","","","","","","","","","","","","","","","","","","","","","","","","","","","","","","","","","","","",""
"","","","","","browser-check","2","4653","0.0-2.0","629531cb501e6d23d9797050","64d3ef96556dbe1f0e02b5aa","64db813192d3e6ed7ed5fc42","","","2560","1283","true","chrome","115.0.0","false","Windows 10","true","30.17","false","true","","","","","","","","","","","","","","","","","","","","","","","","","","",""
"","","","","","external-html","3","8171","0.0-3.0","629531cb501e6d23d9797050","64d3ef96556dbe1f0e02b5aa","64db813192d3e6ed7ed5fc42","","3316","","","","","","","","","","","","consent.html","","","","","","","","","","","","","","","","","","","","","","","","","",""
"true","","","","","fullscreen","4","11646","0.0-4.0","629531cb501e6d23d9797050","64d3ef96556dbe1f0e02b5aa","64db813192d3e6ed7ed5fc42","","2961","","","","","","","","","","","","","","","","","","","","","","","","","","","","","","","","","","","","","",""
"","","","","","survey-text","5","15611","0.0-5.0","629531cb501e6d23d9797050","64d3ef96556dbe1f0e02b5aa","64db813192d3e6ed7ed5fc42","","3963","","","","","","","","","","","","","{""prolificID"":""629531cb501e6d23d9797050""}","","","","","","","","","","","","","","","","","","","","","","","","",""
"","","","","","browser-check","6","17633","0.0-6.0","629531cb501e6d23d9797050","64d3ef96556dbe1f0e02b5aa","64db813192d3e6ed7ed5fc42","","","2560","1440","true","chrome","115.0.0","false","Windows 10","true","29.97","false","true","","","","","","","","","","","","","","","","","","","","","","","","","","",""
"","","","","","instructions","7","53737","0.0-7.0-0.0-0.0","629531cb501e6d23d9797050","64d3ef96556dbe1f0e02b5aa","64db813192d3e6ed7ed5fc42","[{""page_index"":0,""viewing_time"":17081},{""page_index"":1,""viewing_time"":6453},{""page_index"":2,""viewing_time"":7509},{""page_index"":3,""viewing_time"":5061}]","36104","","","","","","","","","","","","","","","","","","","","","","","","","","","","","","","","","","","","","",""
"","","","","","html-keyboard-response","8","60623","0.0-7.0-0.0-1.0","629531cb501e6d23d9797050","64d3ef96556dbe1f0e02b5aa","64db813192d3e6ed7ed5fc42","","","","","","","","","","","","","","","","612.0129383172307","350.99396121347036","","","","","","","","","","","","","","","","","","","","","","",""
"","","","","","html-keyboard-response","8","60623","0.0-7.0-0.0-1.0","629531cb501e6d23d9797050","64d3ef96556dbe1f0e02b5aa","64db813192d3e6ed7ed5fc42","","","","","","","","","","","","","","","","","","practiceTrial_move","","","","","","","","","","","","","","","","","","","","","",""
"","","","","","html-button-response","9","65156","0.0-7.0-0.0-2.0","629531cb501e6d23d9797050","64d3ef96556dbe1f0e02b5aa","64db813192d3e6ed7ed5fc42","","4532","","","","","","","","","","","","","0","","","","<p>To help you get more comfortable with the task, let's begin with a practice trial first!</p><p>As described previously, you will first see a video of a ball falling, some of it behind a gray screen.</p><p>After the video, you will drag a triangle to the spot you think the ball hit the triangle behind the screen.</p><p>Click 'Next' to start your practice trial.</p>","","","","","","","","","","","","","","","","","","","","",""
"","","","","","html-keyboard-response","10","68170","0.0-7.0-0.0-3.0","629531cb501e6d23d9797050","64d3ef96556dbe1f0e02b5aa","64db813192d3e6ed7ed5fc42","","null","","","","","","","","","","","","","null","","","fallScene_practiceTrial_withOccluder","","400","50","420","415","","","","","","","","","","","","","","","","",""
"","","","","","html-keyboard-response","11","71546","0.0-7.0-0.0-4.0","629531cb501e6d23d9797050","64d3ef96556dbe1f0e02b5aa","64db813192d3e6ed7ed5fc42","","","","","","","","","","","","","","","","","","","","","","","","400.0095712323182","314.0028968106447","3376.300000011921","","","","","","","","","","","","","",""
"","","","","","html-keyboard-response","11","71546","0.0-7.0-0.0-4.0","629531cb501e6d23d9797050","64d3ef96556dbe1f0e02b5aa","64db813192d3e6ed7ed5fc42","","","","","","","","","","","","","","","","","","reconstruct_practiceTrial_withOccluder","","","","","","400.0095712323182","314.0028968106447","3376.300000011921","500","300","","","","","","","","","","","",""
"","","","","","html-button-response","12","74181","0.0-7.0-0.0-5.0","629531cb501e6d23d9797050","64d3ef96556dbe1f0e02b5aa","64db813192d3e6ed7ed5fc42","","2633","","","","","","","","","","","","","1","","","","<p>Ok! We're almost ready to get started.</p><p>We just have a <b>brief quiz</b>, to make sure you understood the task.</p><p>If you need to review the instructions, click 'Previous'.</p><p>It's important to understand the task to do the study, so you have to pass the quiz to move to the study.</p>","","","","","","","","","","","","","","","","","","","","",""
"","","","","","survey-multi-choice","13","82880","0.0-7.0-1.0-0.0","629531cb501e6d23d9797050","64d3ef96556dbe1f0e02b5aa","64db813192d3e6ed7ed5fc42","","8698","","","","","","","","","","","","","{""generalProcedure"":""Watch a video of a ball falling, some of it behind a gray screen. After each video, drag a triangle to where I think the ball hit the triangle behind the screen.""}","","","","","","","","","","","","","","[0]","","","","","","","","","","",""
"","","","","","survey-multi-choice","14","87553","0.0-7.0-1.0-1.0","629531cb501e6d23d9797050","64d3ef96556dbe1f0e02b5aa","64db813192d3e6ed7ed5fc42","","4670","","","","","","","","","","","","","{""checkBallHitObstacle"":""I am not sure.""}","","","","","","","","","","","","","","[0]","","","","","","","","","","",""
"","","","","","survey-multi-choice","15","91835","0.0-7.0-1.0-2.0","629531cb501e6d23d9797050","64d3ef96556dbe1f0e02b5aa","64db813192d3e6ed7ed5fc42","","4281","","","","","","","","","","","","","{""checkTriangleVisibility"":""No, the triangle is hidden behind the gray screen.""}","","","","","","","","","","","","","","[0]","","","","","","","","","","",""
"","","","","","html-button-response","16","94221","0.0-7.0-2.0-0.0","629531cb501e6d23d9797050","64d3ef96556dbe1f0e02b5aa","64db813192d3e6ed7ed5fc42","","2384","","","","","","","","","","","","","0","","","","<p>Oops! You did not pass the quiz.</p><p>You will now repeat the instructions and practice.</p>","","","","","","","","","","","failed","","","","","","","","","",""
"","","","","","instructions","17","106301","0.0-7.1-0.1-0.1","629531cb501e6d23d9797050","64d3ef96556dbe1f0e02b5aa","64db813192d3e6ed7ed5fc42","[{""page_index"":0,""viewing_time"":8644},{""page_index"":1,""viewing_time"":690},{""page_index"":2,""viewing_time"":1438},{""page_index"":3,""viewing_time"":1306}]","12079","","","","","","","","","","","","","","","","","","","","","","","","","","","","","","","","","","","","","",""
"","","","","","html-keyboard-response","18","110941","0.0-7.1-0.1-1.1","629531cb501e6d23d9797050","64d3ef96556dbe1f0e02b5aa","64db813192d3e6ed7ed5fc42","","","","","","","","","","","","","","","","384.0083507305155","244.00550139072035","","","","","","","","","","","","","","","","","","","","","","",""
"","","","","","html-keyboard-response","18","110941","0.0-7.1-0.1-1.1","629531cb501e6d23d9797050","64d3ef96556dbe1f0e02b5aa","64db813192d3e6ed7ed5fc42","","","","","","","","","","","","","","","","","","practiceTrial_move","","","","","","","","","","","","","","","","","","","","","",""
"","","","","","html-button-response","19","113002","0.0-7.1-0.1-2.1","629531cb501e6d23d9797050","64d3ef96556dbe1f0e02b5aa","64db813192d3e6ed7ed5fc42","","2060","","","","","","","","","","","","","0","","","","<p>To help you get more comfortable with the task, let's begin with a practice trial first!</p><p>As described previously, you will first see a video of a ball falling, some of it behind a gray screen.</p><p>After the video, you will drag a triangle to the spot you think the ball hit the triangle behind the screen.</p><p>Click 'Next' to start your practice trial.</p>","","","","","","","","","","","","","","","","","","","","",""
"","","","","","html-keyboard-response","20","116010","0.0-7.1-0.1-3.1","629531cb501e6d23d9797050","64d3ef96556dbe1f0e02b5aa","64db813192d3e6ed7ed5fc42","","null","","","","","","","","","","","","","null","","","fallScene_practiceTrial_withOccluder","","400","50","420","415","","","","","","","","","","","","","","","","",""
"","","","","","html-keyboard-response","21","118388","0.0-7.1-0.1-4.1","629531cb501e6d23d9797050","64d3ef96556dbe1f0e02b5aa","64db813192d3e6ed7ed5fc42","","","","","","","","","","","","","","","","","","","","","","","","385.9999614952404","326.9900000741311","2377.7000000029802","","","","","","","","","","","","","",""
"","","","","","html-keyboard-response","21","118388","0.0-7.1-0.1-4.1","629531cb501e6d23d9797050","64d3ef96556dbe1f0e02b5aa","64db813192d3e6ed7ed5fc42","","","","","","","","","","","","","","","","","","reconstruct_practiceTrial_withOccluder","","","","","","385.9999614952404","326.9900000741311","2377.7000000029802","500","300","","","","","","","","","","","",""
"","","","","","html-button-response","22","119694","0.0-7.1-0.1-5.1","629531cb501e6d23d9797050","64d3ef96556dbe1f0e02b5aa","64db813192d3e6ed7ed5fc42","","1306","","","","","","","","","","","","","1","","","","<p>Ok! We're almost ready to get started.</p><p>We just have a <b>brief quiz</b>, to make sure you understood the task.</p><p>If you need to review the instructions, click 'Previous'.</p><p>It's important to understand the task to do the study, so you have to pass the quiz to move to the study.</p>","","","","","","","","","","","","","","","","","","","","",""
"","","","","","survey-multi-choice","23","123519","0.0-7.1-1.1-0.1","629531cb501e6d23d9797050","64d3ef96556dbe1f0e02b5aa","64db813192d3e6ed7ed5fc42","","3824","","","","","","","","","","","","","{""generalProcedure"":""Watch a video of a ball falling, some of it behind a gray screen. After each video, drag a triangle to where I think the ball hit the triangle behind the screen.""}","","","","","","","","","","","","","","[0]","","","","","","","","","","",""
"","","","","","survey-multi-choice","24","125655","0.0-7.1-1.1-1.1","629531cb501e6d23d9797050","64d3ef96556dbe1f0e02b5aa","64db813192d3e6ed7ed5fc42","","2134","","","","","","","","","","","","","{""checkBallHitObstacle"":""Yes.""}","","","","","","","","","","","","","","[0]","","","","","","","","","","",""
"","","","","","survey-multi-choice","25","129472","0.0-7.1-1.1-2.1","629531cb501e6d23d9797050","64d3ef96556dbe1f0e02b5aa","64db813192d3e6ed7ed5fc42","","3815","","","","","","","","","","","","","{""checkTriangleVisibility"":""No, the triangle is hidden behind the gray screen.""}","","","","","","","","","","","","","","[0]","","","","","","","","","","",""
"","","","","","instructions","26","131540","0.0-8.0","629531cb501e6d23d9797050","64d3ef96556dbe1f0e02b5aa","64db813192d3e6ed7ed5fc42","[{""page_index"":0,""viewing_time"":2066}]","2066","","","","","","","","","","","","","","","","","","","","","","","","","","","","","","","","","","","","","",""
"","","","","","html-keyboard-response","27","134545","0.0-9.0-0.0","629531cb501e6d23d9797050","64d3ef96556dbe1f0e02b5aa","64db813192d3e6ed7ed5fc42","","null","","","","","","","","","","","","","null","","","fallScene","","","","","","","","","","","","","false","30.030209999999933","322.3","296.07114317029976","371.46","3","1","","",""
"","","","","","html-keyboard-response","28","137478","0.0-9.0-1.0","629531cb501e6d23d9797050","64d3ef96556dbe1f0e02b5aa","64db813192d3e6ed7ed5fc42","","","","","","","","","","","","","","","","","","","","","","","","289.00999999780913","324.99999338055954","2933","","","","","","","","","","","","","",""
"","","","","","html-keyboard-response","28","137478","0.0-9.0-1.0","629531cb501e6d23d9797050","64d3ef96556dbe1f0e02b5aa","64db813192d3e6ed7ed5fc42","","","","","","","","","","","","","","","","","","reconstruct","","","","","","289.00999999780913","324.99999338055954","2933","","","","","","","","","","","1","6","625","350"
"","","","","","html-keyboard-response","29","140481","0.0-9.0-0.1","629531cb501e6d23d9797050","64d3ef96556dbe1f0e02b5aa","64db813192d3e6ed7ed5fc42","","null","","","","","","","","","","","","","null","","","fallScene","","","","","","","","","","","","","true","30.03144000000029","500","553.4711431702997","282.51","7","2","","",""
"","","","","","html-keyboard-response","30","142967","0.0-9.0-1.1","629531cb501e6d23d9797050","64d3ef96556dbe1f0e02b5aa","64db813192d3e6ed7ed5fc42","","","","","","","","","","","","","","","","","","","","","","","","525.9900042298904","332.9997091737356","2485.7999999970198","","","","","","","","","","","","","",""
"","","","","","html-keyboard-response","30","142967","0.0-9.0-1.1","629531cb501e6d23d9797050","64d3ef96556dbe1f0e02b5aa","64db813192d3e6ed7ed5fc42","","","","","","","","","","","","","","","","","","reconstruct","","","","","","525.9900042298904","332.9997091737356","2485.7999999970198","","","","","","","","","","","2","2","375","350"
"","","","","","html-keyboard-response","31","145977","0.0-9.0-0.2","629531cb501e6d23d9797050","64d3ef96556dbe1f0e02b5aa","64db813192d3e6ed7ed5fc42","","null","","","","","","","","","","","","","null","","","fallScene","","","","","","","","","","","","","true","30.030269999999728","322.3","356.42114317029973","357.87","4","3","","",""
"","","","","","html-keyboard-response","32","149208","0.0-9.0-1.2","629531cb501e6d23d9797050","64d3ef96556dbe1f0e02b5aa","64db813192d3e6ed7ed5fc42","","","","","","","","","","","","","","","","","","","","","","","","681.0000010818607","348.0099999999415","3230.5999999940395","","","","","","","","","","","","","",""
"","","","","","html-keyboard-response","32","149208","0.0-9.0-1.2","629531cb501e6d23d9797050","64d3ef96556dbe1f0e02b5aa","64db813192d3e6ed7ed5fc42","","","","","","","","","","","","","","","","","","reconstruct","","","","","","681.0000010818607","348.0099999999415","3230.5999999940395","","","","","","","","","","","3","3","500","250"
"","","","","","html-keyboard-response","33","152217","0.0-9.0-0.3","629531cb501e6d23d9797050","64d3ef96556dbe1f0e02b5aa","64db813192d3e6ed7ed5fc42","","null","","","","","","","","","","","","","null","","","fallScene","","","","","","","","","","","","","false","30.0309600000002","500","453.67114317029973","210.33","5","4","","",""
"","","","","","html-keyboard-response","34","155100","0.0-9.0-1.3","629531cb501e6d23d9797050","64d3ef96556dbe1f0e02b5aa","64db813192d3e6ed7ed5fc42","","","","","","","","","","","","","","","","","","","","","","","","483.00147731541927","304.9901097250214","2882.7000000029802","","","","","","","","","","","","","",""
"","","","","","html-keyboard-response","34","155100","0.0-9.0-1.3","629531cb501e6d23d9797050","64d3ef96556dbe1f0e02b5aa","64db813192d3e6ed7ed5fc42","","","","","","","","","","","","","","","","","","reconstruct","","","","","","483.00147731541927","304.9901097250214","2882.7000000029802","","","","","","","","","","","4","2","375","350"
"","","","","","html-keyboard-response","35","158107","0.0-9.0-0.4","629531cb501e6d23d9797050","64d3ef96556dbe1f0e02b5aa","64db813192d3e6ed7ed5fc42","","null","","","","","","","","","","","","","null","","","fallScene","","","","","","","","","","","","","false","30.0287400000004","604.4000000000001","596.8711431702998","394.5","10","5","","",""
"","","","","","html-keyboard-response","36","161219","0.0-9.0-1.4","629531cb501e6d23d9797050","64d3ef96556dbe1f0e02b5aa","64db813192d3e6ed7ed5fc42","","","","","","","","","","","","","","","","","","","","","","","","666.0014664894678","293.9901081139998","3111.4000000059605","","","","","","","","","","","","","",""
"","","","","","html-keyboard-response","36","161219","0.0-9.0-1.4","629531cb501e6d23d9797050","64d3ef96556dbe1f0e02b5aa","64db813192d3e6ed7ed5fc42","","","","","","","","","","","","","","","","","","reconstruct","","","","","","666.0014664894678","293.9901081139998","3111.4000000059605","","","","","","","","","","","5","2","375","350"
"","","","","","html-keyboard-response","37","164221","0.0-9.0-0.5","629531cb501e6d23d9797050","64d3ef96556dbe1f0e02b5aa","64db813192d3e6ed7ed5fc42","","null","","","","","","","","","","","","","null","","","fallScene","","","","","","","","","","","","","false","30.030300000000278","604.4000000000001","596.8711431702998","394.5","10","6","","",""
"","","","","","html-keyboard-response","38","166534","0.0-9.0-1.5","629531cb501e6d23d9797050","64d3ef96556dbe1f0e02b5aa","64db813192d3e6ed7ed5fc42","","","","","","","","","","","","","","","","","","","","","","","","639.0000262857016","301.00999996545306","2311.9000000059605","","","","","","","","","","","","","",""
"","","","","","html-keyboard-response","38","166534","0.0-9.0-1.5","629531cb501e6d23d9797050","64d3ef96556dbe1f0e02b5aa","64db813192d3e6ed7ed5fc42","","","","","","","","","","","","","","","","","","reconstruct","","","","","","639.0000262857016","301.00999996545306","2311.9000000059605","","","","","","","","","","","6","6","625","350"
"","","","","","html-keyboard-response","39","169548","0.0-9.0-0.6","629531cb501e6d23d9797050","64d3ef96556dbe1f0e02b5aa","64db813192d3e6ed7ed5fc42","","null","","","","","","","","","","","","","null","","","fallScene","","","","","","","","","","","","","true","30.030210000000373","604.4000000000001","650.0211431702996","404.58000000000004","11","7","","",""
"","","","","","html-keyboard-response","40","172932","0.0-9.0-1.6","629531cb501e6d23d9797050","64d3ef96556dbe1f0e02b5aa","64db813192d3e6ed7ed5fc42","","","","","","","","","","","","","","","","","","","","","","","","402.99283935477325","268.9930196590387","3384.5","","","","","","","","","","","","","",""
"","","","","","html-keyboard-response","40","172933","0.0-9.0-1.6","629531cb501e6d23d9797050","64d3ef96556dbe1f0e02b5aa","64db813192d3e6ed7ed5fc42","","","","","","","","","","","","","","","","","","reconstruct","","","","","","402.99283935477325","268.9930196590387","3384.5","","","","","","","","","","","7","4","500","350"
"","","","","","html-keyboard-response","41","175947","0.0-9.0-0.7","629531cb501e6d23d9797050","64d3ef96556dbe1f0e02b5aa","64db813192d3e6ed7ed5fc42","","null","","","","","","","","","","","","","null","","","fallScene","","","","","","","","","","","","","true","30.031649999999786","604.4000000000001","575.4211431702997","266.76","12","8","","",""
"","","","","","html-keyboard-response","42","178655","0.0-9.0-1.7","629531cb501e6d23d9797050","64d3ef96556dbe1f0e02b5aa","64db813192d3e6ed7ed5fc42","","","","","","","","","","","","","","","","","","","","","","","","377.0088991053696","337.9954386489259","2708.199999988079","","","","","","","","","","","","","",""
"","","","","","html-keyboard-response","42","178655","0.0-9.0-1.7","629531cb501e6d23d9797050","64d3ef96556dbe1f0e02b5aa","64db813192d3e6ed7ed5fc42","","","","","","","","","","","","","","","","","","reconstruct","","","","","","377.0088991053696","337.9954386489259","2708.199999988079","","","","","","","","","","","8","1","375","250"
"","","","","","html-keyboard-response","43","181664","0.0-9.0-0.8","629531cb501e6d23d9797050","64d3ef96556dbe1f0e02b5aa","64db813192d3e6ed7ed5fc42","","null","","","","","","","","","","","","","null","","","fallScene","","","","","","","","","","","","","false","30.028859999999984","500","553.4711431702997","282.51","7","9","","",""
"","","","","","html-keyboard-response","44","184058","0.0-9.0-1.8","629531cb501e6d23d9797050","64d3ef96556dbe1f0e02b5aa","64db813192d3e6ed7ed5fc42","","","","","","","","","","","","","","","","","","","","","","","","530.990156348736","303.9982386000472","2393.0999999940395","","","","","","","","","","","","","",""
"","","","","","html-keyboard-response","44","184058","0.0-9.0-1.8","629531cb501e6d23d9797050","64d3ef96556dbe1f0e02b5aa","64db813192d3e6ed7ed5fc42","","","","","","","","","","","","","","","","","","reconstruct","","","","","","530.990156348736","303.9982386000472","2393.0999999940395","","","","","","","","","","","9","4","500","350"
"","","","","","html-keyboard-response","45","187060","0.0-9.0-0.9","629531cb501e6d23d9797050","64d3ef96556dbe1f0e02b5aa","64db813192d3e6ed7ed5fc42","","null","","","","","","","","","","","","","null","","","fallScene","","","","","","","","","","","","","true","30.030390000000192","322.3","308.07114317029976","253.89","2","10","","",""
"","","","","","html-keyboard-response","46","190230","0.0-9.0-1.9","629531cb501e6d23d9797050","64d3ef96556dbe1f0e02b5aa","64db813192d3e6ed7ed5fc42","","","","","","","","","","","","","","","","","","","","","","","","700.0000227269906","328.99000002582585","3170.2000000029802","","","","","","","","","","","","","",""
"","","","","","html-keyboard-response","46","190230","0.0-9.0-1.9","629531cb501e6d23d9797050","64d3ef96556dbe1f0e02b5aa","64db813192d3e6ed7ed5fc42","","","","","","","","","","","","","","","","","","reconstruct","","","","","","700.0000227269906","328.99000002582585","3170.2000000029802","","","","","","","","","","","10","6","625","350"
"","","","","","html-keyboard-response","47","193243","0.0-9.0-0.10","629531cb501e6d23d9797050","64d3ef96556dbe1f0e02b5aa","64db813192d3e6ed7ed5fc42","","null","","","","","","","","","","","","","null","","","fallScene","","","","","","","","","","","","","true","30.03024000000005","500","553.4711431702997","282.51","7","11","","",""
"","","","","","html-keyboard-response","48","195953","0.0-9.0-1.10","629531cb501e6d23d9797050","64d3ef96556dbe1f0e02b5aa","64db813192d3e6ed7ed5fc42","","","","","","","","","","","","","","","","","","","","","","","","488.9929260080152","317.99293185757085","2710.2999999970198","","","","","","","","","","","","","",""
"","","","","","html-keyboard-response","48","195953","0.0-9.0-1.10","629531cb501e6d23d9797050","64d3ef96556dbe1f0e02b5aa","64db813192d3e6ed7ed5fc42","","","","","","","","","","","","","","","","","","reconstruct","","","","","","488.9929260080152","317.99293185757085","2710.2999999970198","","","","","","","","","","","11","5","625","250"
"","","","","","html-keyboard-response","49","198955","0.0-9.0-0.11","629531cb501e6d23d9797050","64d3ef96556dbe1f0e02b5aa","64db813192d3e6ed7ed5fc42","","null","","","","","","","","","","","","","null","","","fallScene","","","","","","","","","","","","","false","30.031050000000103","500","510.8711431702997","369.03","8","12","","",""
"","","","","","html-keyboard-response","50","201798","0.0-9.0-1.11","629531cb501e6d23d9797050","64d3ef96556dbe1f0e02b5aa","64db813192d3e6ed7ed5fc42","","","","","","","","","","","","","","","","","","","","","","","","452.990134362297","304.99836623358055","2842.7000000029802","","","","","","","","","","","","","",""
"","","","","","html-keyboard-response","50","201798","0.0-9.0-1.11","629531cb501e6d23d9797050","64d3ef96556dbe1f0e02b5aa","64db813192d3e6ed7ed5fc42","","","","","","","","","","","","","","","","","","reconstruct","","","","","","452.990134362297","304.99836623358055","2842.7000000029802","","","","","","","","","","","12","5","625","250"
"","","","","","html-keyboard-response","51","204800","0.0-9.0-0.12","629531cb501e6d23d9797050","64d3ef96556dbe1f0e02b5aa","64db813192d3e6ed7ed5fc42","","null","","","","","","","","","","","","","null","","","fallScene","","","","","","","","","","","","","false","30.029010000000124","500","510.8711431702997","369.03","8","13","","",""
"","","","","","html-keyboard-response","52","207984","0.0-9.0-1.12","629531cb501e6d23d9797050","64d3ef96556dbe1f0e02b5aa","64db813192d3e6ed7ed5fc42","","","","","","","","","","","","","","","","","","","","","","","","492.00999999996213","300.9999991297428","3184.5999999940395","","","","","","","","","","","","","",""
"","","","","","html-keyboard-response","52","207984","0.0-9.0-1.12","629531cb501e6d23d9797050","64d3ef96556dbe1f0e02b5aa","64db813192d3e6ed7ed5fc42","","","","","","","","","","","","","","","","","","reconstruct","","","","","","492.00999999996213","300.9999991297428","3184.5999999940395","","","","","","","","","","","13","6","625","350"
"","","","","","html-keyboard-response","53","210994","0.0-9.0-0.13","629531cb501e6d23d9797050","64d3ef96556dbe1f0e02b5aa","64db813192d3e6ed7ed5fc42","","null","","","","","","","","","","","","","null","","","fallScene","","","","","","","","","","","","","true","30.030179999999817","604.4000000000001","596.8711431702998","394.5","10","14","","",""
"","","","","","html-keyboard-response","54","213815","0.0-9.0-1.13","629531cb501e6d23d9797050","64d3ef96556dbe1f0e02b5aa","64db813192d3e6ed7ed5fc42","","","","","","","","","","","","","","","","","","","","","","","","373.9997395588292","257.0099966079445","2821.0999999940395","","","","","","","","","","","","","",""
"","","","","","html-keyboard-response","54","213815","0.0-9.0-1.13","629531cb501e6d23d9797050","64d3ef96556dbe1f0e02b5aa","64db813192d3e6ed7ed5fc42","","","","","","","","","","","","","","","","","","reconstruct","","","","","","373.9997395588292","257.0099966079445","2821.0999999940395","","","","","","","","","","","14","3","500","250"
"","","","","","html-keyboard-response","55","216833","0.0-9.0-0.14","629531cb501e6d23d9797050","64d3ef96556dbe1f0e02b5aa","64db813192d3e6ed7ed5fc42","","null","","","","","","","","","","","","","null","","","fallScene","","","","","","","","","","","","","true","30.03146999999997","322.3","379.3711431702997","245.25","1","15","","",""
"","","","","","html-keyboard-response","56","219437","0.0-9.0-1.14","629531cb501e6d23d9797050","64d3ef96556dbe1f0e02b5aa","64db813192d3e6ed7ed5fc42","","","","","","","","","","","","","","","","","","","","","","","","700.9900000446783","237.00002989251118","2603.5","","","","","","","","","","","","","",""
"","","","","","html-keyboard-response","56","219437","0.0-9.0-1.14","629531cb501e6d23d9797050","64d3ef96556dbe1f0e02b5aa","64db813192d3e6ed7ed5fc42","","","","","","","","","","","","","","","","","","reconstruct","","","","","","700.9900000446783","237.00002989251118","2603.5","","","","","","","","","","","15","4","500","350"
"","","","","","html-keyboard-response","57","222438","0.0-9.0-0.15","629531cb501e6d23d9797050","64d3ef96556dbe1f0e02b5aa","64db813192d3e6ed7ed5fc42","","null","","","","","","","","","","","","","null","","","fallScene","","","","","","","","","","","","","true","30.03008999999991","322.3","308.07114317029976","253.89","2","16","","",""
"","","","","","html-keyboard-response","58","224660","0.0-9.0-1.15","629531cb501e6d23d9797050","64d3ef96556dbe1f0e02b5aa","64db813192d3e6ed7ed5fc42","","","","","","","","","","","","","","","","","","","","","","","","622.9900140484343","353.00052987859823","2221.5","","","","","","","","","","","","","",""
"","","","","","html-keyboard-response","58","224660","0.0-9.0-1.15","629531cb501e6d23d9797050","64d3ef96556dbe1f0e02b5aa","64db813192d3e6ed7ed5fc42","","","","","","","","","","","","","","","","","","reconstruct","","","","","","622.9900140484343","353.00052987859823","2221.5","","","","","","","","","","","16","4","500","350"
"","","","","","html-keyboard-response","59","227670","0.0-9.0-0.16","629531cb501e6d23d9797050","64d3ef96556dbe1f0e02b5aa","64db813192d3e6ed7ed5fc42","","null","","","","","","","","","","","","","null","","","fallScene","","","","","","","","","","","","","false","30.0287400000004","322.3","379.3711431702997","245.25","1","17","","",""
"","","","","","html-keyboard-response","60","230567","0.0-9.0-1.16","629531cb501e6d23d9797050","64d3ef96556dbe1f0e02b5aa","64db813192d3e6ed7ed5fc42","","","","","","","","","","","","","","","","","","","","","","","","307.00982495822063","218.00186284619946","2896.5999999940395","","","","","","","","","","","","","",""
"","","","","","html-keyboard-response","60","230567","0.0-9.0-1.16","629531cb501e6d23d9797050","64d3ef96556dbe1f0e02b5aa","64db813192d3e6ed7ed5fc42","","","","","","","","","","","","","","","","","","reconstruct","","","","","","307.00982495822063","218.00186284619946","2896.5999999940395","","","","","","","","","","","17","6","625","350"
"","","","","","html-keyboard-response","61","233571","0.0-9.0-0.17","629531cb501e6d23d9797050","64d3ef96556dbe1f0e02b5aa","64db813192d3e6ed7ed5fc42","","null","","","","","","","","","","","","","null","","","fallScene","","","","","","","","","","","","","false","30.02859000000026","322.3","296.07114317029976","371.46","3","18","","",""
"","","","","","html-keyboard-response","62","237922","0.0-9.0-1.17","629531cb501e6d23d9797050","64d3ef96556dbe1f0e02b5aa","64db813192d3e6ed7ed5fc42","","","","","","","","","","","","","","","","","","","","","","","","328.9946888294716","346.99152701542437","4351.0999999940395","","","","","","","","","","","","","",""
"","","","","","html-keyboard-response","62","237922","0.0-9.0-1.17","629531cb501e6d23d9797050","64d3ef96556dbe1f0e02b5aa","64db813192d3e6ed7ed5fc42","","","","","","","","","","","","","","","","","","reconstruct","","","","","","328.9946888294716","346.99152701542437","4351.0999999940395","","","","","","","","","","","18","5","625","250"
"","","","","","html-button-response","63","239811","0.0-10.0","629531cb501e6d23d9797050","64d3ef96556dbe1f0e02b5aa","64db813192d3e6ed7ed5fc42","","1887","","","","","","","","","","","","","0","","","","<p><span style = ""font-size:40px;"">BREAK</span></p><p>You are doing great! Click 'Next' when you are ready for the next set.</p>","","","","","","","","","","","","","","","","","","","","",""
"","","","","","html-keyboard-response","64","242824","0.0-11.0-0.0","629531cb501e6d23d9797050","64d3ef96556dbe1f0e02b5aa","64db813192d3e6ed7ed5fc42","","null","","","","","","","","","","","","","null","","","fallScene","","","","","","","","","","","","","true","30.030630000000237","500","510.8711431702997","369.03","8","19","","",""
"","","","","","html-keyboard-response","65","244734","0.0-11.0-1.0","629531cb501e6d23d9797050","64d3ef96556dbe1f0e02b5aa","64db813192d3e6ed7ed5fc42","","","","","","","","","","","","","","","","","","","","","","","","562.9926340673737","333.0067633598562","1908.9000000059605","","","","","","","","","","","","","",""
"","","","","","html-keyboard-response","65","244734","0.0-11.0-1.0","629531cb501e6d23d9797050","64d3ef96556dbe1f0e02b5aa","64db813192d3e6ed7ed5fc42","","","","","","","","","","","","","","","","","","reconstruct","","","","","","562.9926340673737","333.0067633598562","1908.9000000059605","","","","","","","","","","","19","4","500","350"
"","","","","","html-keyboard-response","66","247741","0.0-11.0-0.1","629531cb501e6d23d9797050","64d3ef96556dbe1f0e02b5aa","64db813192d3e6ed7ed5fc42","","null","","","","","","","","","","","","","null","","","fallScene","","","","","","","","","","","","","false","30.029219999999622","500","510.8711431702997","369.03","8","20","","",""
"","","","","","html-keyboard-response","67","249956","0.0-11.0-1.1","629531cb501e6d23d9797050","64d3ef96556dbe1f0e02b5aa","64db813192d3e6ed7ed5fc42","","","","","","","","","","","","","","","","","","","","","","","","456.0098888566393","335.0014867798651","2214.7999999970198","","","","","","","","","","","","","",""
"","","","","","html-keyboard-response","67","249956","0.0-11.0-1.1","629531cb501e6d23d9797050","64d3ef96556dbe1f0e02b5aa","64db813192d3e6ed7ed5fc42","","","","","","","","","","","","","","","","","","reconstruct","","","","","","456.0098888566393","335.0014867798651","2214.7999999970198","","","","","","","","","","","20","3","500","250"
"","","","","","html-keyboard-response","68","252970","0.0-11.0-0.2","629531cb501e6d23d9797050","64d3ef96556dbe1f0e02b5aa","64db813192d3e6ed7ed5fc42","","null","","","","","","","","","","","","","null","","","fallScene","","","","","","","","","","","","","true","30.030720000000144","322.3","308.07114317029976","253.89","2","21","","",""
"","","","","","html-keyboard-response","69","255715","0.0-11.0-1.2","629531cb501e6d23d9797050","64d3ef96556dbe1f0e02b5aa","64db813192d3e6ed7ed5fc42","","","","","","","","","","","","","","","","","","","","","","","","684.0095326212497","343.00302144536744","2744.7999999970198","","","","","","","","","","","","","",""
"","","","","","html-keyboard-response","69","255715","0.0-11.0-1.2","629531cb501e6d23d9797050","64d3ef96556dbe1f0e02b5aa","64db813192d3e6ed7ed5fc42","","","","","","","","","","","","","","","","","","reconstruct","","","","","","684.0095326212497","343.00302144536744","2744.7999999970198","","","","","","","","","","","21","5","625","250"
"","","","","","html-keyboard-response","70","258726","0.0-11.0-0.3","629531cb501e6d23d9797050","64d3ef96556dbe1f0e02b5aa","64db813192d3e6ed7ed5fc42","","null","","","","","","","","","","","","","null","","","fallScene","","","","","","","","","","","","","false","30.02865000000049","500","479.92114317029973","330.87","6","22","","",""
"","","","","","html-keyboard-response","71","261104","0.0-11.0-1.3","629531cb501e6d23d9797050","64d3ef96556dbe1f0e02b5aa","64db813192d3e6ed7ed5fc42","","","","","","","","","","","","","","","","","","","","","","","","528.9900000006655","304.9999963515994","2376.9000000059605","","","","","","","","","","","","","",""
"","","","","","html-keyboard-response","71","261104","0.0-11.0-1.3","629531cb501e6d23d9797050","64d3ef96556dbe1f0e02b5aa","64db813192d3e6ed7ed5fc42","","","","","","","","","","","","","","","","","","reconstruct","","","","","","528.9900000006655","304.9999963515994","2376.9000000059605","","","","","","","","","","","22","6","625","350"
"","","","","","html-keyboard-response","72","264108","0.0-11.0-0.4","629531cb501e6d23d9797050","64d3ef96556dbe1f0e02b5aa","64db813192d3e6ed7ed5fc42","","null","","","","","","","","","","","","","null","","","fallScene","","","","","","","","","","","","","false","30.030659999999916","604.4000000000001","596.8711431702998","394.5","10","23","","",""
"","","","","","html-keyboard-response","73","266498","0.0-11.0-1.4","629531cb501e6d23d9797050","64d3ef96556dbe1f0e02b5aa","64db813192d3e6ed7ed5fc42","","","","","","","","","","","","","","","","","","","","","","","","637.99016864479","296.9981712149572","2389.2999999970198","","","","","","","","","","","","","",""
"","","","","","html-keyboard-response","73","266498","0.0-11.0-1.4","629531cb501e6d23d9797050","64d3ef96556dbe1f0e02b5aa","64db813192d3e6ed7ed5fc42","","","","","","","","","","","","","","","","","","reconstruct","","","","","","637.99016864479","296.9981712149572","2389.2999999970198","","","","","","","","","","","23","4","500","350"
"","","","","","html-keyboard-response","74","269509","0.0-11.0-0.5","629531cb501e6d23d9797050","64d3ef96556dbe1f0e02b5aa","64db813192d3e6ed7ed5fc42","","null","","","","","","","","","","","","","null","","","fallScene","","","","","","","","","","","","","false","30.030179999999817","322.3","379.3711431702997","245.25","1","24","","",""
"","","","","","html-keyboard-response","75","271995","0.0-11.0-1.5","629531cb501e6d23d9797050","64d3ef96556dbe1f0e02b5aa","64db813192d3e6ed7ed5fc42","","","","","","","","","","","","","","","","","","","","","","","","358.0099999973344","250.00000730153434","2485.4000000059605","","","","","","","","","","","","","",""
"","","","","","html-keyboard-response","75","271995","0.0-11.0-1.5","629531cb501e6d23d9797050","64d3ef96556dbe1f0e02b5aa","64db813192d3e6ed7ed5fc42","","","","","","","","","","","","","","","","","","reconstruct","","","","","","358.0099999973344","250.00000730153434","2485.4000000059605","","","","","","","","","","","24","5","625","250"
"","","","","","html-keyboard-response","76","275009","0.0-11.0-0.6","629531cb501e6d23d9797050","64d3ef96556dbe1f0e02b5aa","64db813192d3e6ed7ed5fc42","","null","","","","","","","","","","","","","null","","","fallScene","","","","","","","","","","","","","false","30.031559999999008","500","553.4711431702997","282.51","7","25","","",""
"","","","","","html-keyboard-response","77","277701","0.0-11.0-1.6","629531cb501e6d23d9797050","64d3ef96556dbe1f0e02b5aa","64db813192d3e6ed7ed5fc42","","","","","","","","","","","","","","","","","","","","","","","","516.0002435282412","314.99000296574","2692.0999999940395","","","","","","","","","","","","","",""
"","","","","","html-keyboard-response","77","277702","0.0-11.0-1.6","629531cb501e6d23d9797050","64d3ef96556dbe1f0e02b5aa","64db813192d3e6ed7ed5fc42","","","","","","","","","","","","","","","","","","reconstruct","","","","","","516.0002435282412","314.99000296574","2692.0999999940395","","","","","","","","","","","25","1","375","250"
"","","","","","html-keyboard-response","78","280712","0.0-11.0-0.7","629531cb501e6d23d9797050","64d3ef96556dbe1f0e02b5aa","64db813192d3e6ed7ed5fc42","","null","","","","","","","","","","","","","null","","","fallScene","","","","","","","","","","","","","false","29.02995699999988","604.4000000000001","667.6211431702998","201.78","9","26","","",""
"","","","","","html-keyboard-response","79","283112","0.0-11.0-1.7","629531cb501e6d23d9797050","64d3ef96556dbe1f0e02b5aa","64db813192d3e6ed7ed5fc42","","","","","","","","","","","","","","","","","","","","","","","","634.0017276559048","274.00984962969227","2399.5999999940395","","","","","","","","","","","","","",""
"","","","","","html-keyboard-response","79","283112","0.0-11.0-1.7","629531cb501e6d23d9797050","64d3ef96556dbe1f0e02b5aa","64db813192d3e6ed7ed5fc42","","","","","","","","","","","","","","","","","","reconstruct","","","","","","634.0017276559048","274.00984962969227","2399.5999999940395","","","","","","","","","","","26","4","500","350"
"","","","","","html-keyboard-response","80","286114","0.0-11.0-0.8","629531cb501e6d23d9797050","64d3ef96556dbe1f0e02b5aa","64db813192d3e6ed7ed5fc42","","null","","","","","","","","","","","","","null","","","fallScene","","","","","","","","","","","","","true","30.029519999999902","322.3","296.07114317029976","371.46","3","27","","",""
"","","","","","html-keyboard-response","81","288213","0.0-11.0-1.8","629531cb501e6d23d9797050","64d3ef96556dbe1f0e02b5aa","64db813192d3e6ed7ed5fc42","","","","","","","","","","","","","","","","","","","","","","","","657.9901699566652","322.9981641764689","2098.9000000059605","","","","","","","","","","","","","",""
"","","","","","html-keyboard-response","81","288213","0.0-11.0-1.8","629531cb501e6d23d9797050","64d3ef96556dbe1f0e02b5aa","64db813192d3e6ed7ed5fc42","","","","","","","","","","","","","","","","","","reconstruct","","","","","","657.9901699566652","322.9981641764689","2098.9000000059605","","","","","","","","","","","27","4","500","350"
"","","","","","html-keyboard-response","82","291221","0.0-11.0-0.9","629531cb501e6d23d9797050","64d3ef96556dbe1f0e02b5aa","64db813192d3e6ed7ed5fc42","","null","","","","","","","","","","","","","null","","","fallScene","","","","","","","","","","","","","true","30.02913000000059","322.3","356.42114317029973","357.87","4","28","","",""
"","","","","","html-keyboard-response","83","293777","0.0-11.0-1.9","629531cb501e6d23d9797050","64d3ef96556dbe1f0e02b5aa","64db813192d3e6ed7ed5fc42","","","","","","","","","","","","","","","","","","","","","","","","689.9900726552492","262.00120325649686","2556.3999999910593","","","","","","","","","","","","","",""
"","","","","","html-keyboard-response","83","293777","0.0-11.0-1.9","629531cb501e6d23d9797050","64d3ef96556dbe1f0e02b5aa","64db813192d3e6ed7ed5fc42","","","","","","","","","","","","","","","","","","reconstruct","","","","","","689.9900726552492","262.00120325649686","2556.3999999910593","","","","","","","","","","","28","5","625","250"
"","","","","","html-keyboard-response","84","296781","0.0-11.0-0.10","629531cb501e6d23d9797050","64d3ef96556dbe1f0e02b5aa","64db813192d3e6ed7ed5fc42","","null","","","","","","","","","","","","","null","","","fallScene","","","","","","","","","","","","","true","30.028919999999346","604.4000000000001","667.6211431702998","201.78","9","29","","",""
"","","","","","html-keyboard-response","85","299468","0.0-11.0-1.10","629531cb501e6d23d9797050","64d3ef96556dbe1f0e02b5aa","64db813192d3e6ed7ed5fc42","","","","","","","","","","","","","","","","","","","","","","","","404.00445027789516","301.99104483240495","2687.0999999940395","","","","","","","","","","","","","",""
"","","","","","html-keyboard-response","85","299468","0.0-11.0-1.10","629531cb501e6d23d9797050","64d3ef96556dbe1f0e02b5aa","64db813192d3e6ed7ed5fc42","","","","","","","","","","","","","","","","","","reconstruct","","","","","","404.00445027789516","301.99104483240495","2687.0999999940395","","","","","","","","","","","29","1","375","250"
"","","","","","html-keyboard-response","86","302474","0.0-11.0-0.11","629531cb501e6d23d9797050","64d3ef96556dbe1f0e02b5aa","64db813192d3e6ed7ed5fc42","","null","","","","","","","","","","","","","null","","","fallScene","","","","","","","","","","","","","false","30.03002999999968","322.3","356.42114317029973","357.87","4","30","","",""
"","","","","","html-keyboard-response","87","304768","0.0-11.0-1.11","629531cb501e6d23d9797050","64d3ef96556dbe1f0e02b5aa","64db813192d3e6ed7ed5fc42","","","","","","","","","","","","","","","","","","","","","","","","334.0027756623661","253.0096070650268","2293.3999999910593","","","","","","","","","","","","","",""
"","","","","","html-keyboard-response","87","304768","0.0-11.0-1.11","629531cb501e6d23d9797050","64d3ef96556dbe1f0e02b5aa","64db813192d3e6ed7ed5fc42","","","","","","","","","","","","","","","","","","reconstruct","","","","","","334.0027756623661","253.0096070650268","2293.3999999910593","","","","","","","","","","","30","2","375","350"
"","","","","","html-keyboard-response","88","307769","0.0-11.0-0.12","629531cb501e6d23d9797050","64d3ef96556dbe1f0e02b5aa","64db813192d3e6ed7ed5fc42","","null","","","","","","","","","","","","","null","","","fallScene","","","","","","","","","","","","","true","30.029609999998936","604.4000000000001","596.8711431702998","394.5","10","31","","",""
"","","","","","html-keyboard-response","89","310219","0.0-11.0-1.12","629531cb501e6d23d9797050","64d3ef96556dbe1f0e02b5aa","64db813192d3e6ed7ed5fc42","","","","","","","","","","","","","","","","","","","","","","","","387.0016867507523","318.00985671709543","2448.8999999910593","","","","","","","","","","","","","",""
"","","","","","html-keyboard-response","89","310219","0.0-11.0-1.12","629531cb501e6d23d9797050","64d3ef96556dbe1f0e02b5aa","64db813192d3e6ed7ed5fc42","","","","","","","","","","","","","","","","","","reconstruct","","","","","","387.0016867507523","318.00985671709543","2448.8999999910593","","","","","","","","","","","31","1","375","250"
"","","","","","html-keyboard-response","90","313230","0.0-11.0-0.13","629531cb501e6d23d9797050","64d3ef96556dbe1f0e02b5aa","64db813192d3e6ed7ed5fc42","","null","","","","","","","","","","","","","null","","","fallScene","","","","","","","","","","","","","false","30.030210000001244","322.3","308.07114317029976","253.89","2","32","","",""
"","","","","","html-keyboard-response","91","315807","0.0-11.0-1.13","629531cb501e6d23d9797050","64d3ef96556dbe1f0e02b5aa","64db813192d3e6ed7ed5fc42","","","","","","","","","","","","","","","","","","","","","","","","325.0099047915873","300.0013766276228","2577.2000000029802","","","","","","","","","","","","","",""
"","","","","","html-keyboard-response","91","315807","0.0-11.0-1.13","629531cb501e6d23d9797050","64d3ef96556dbe1f0e02b5aa","64db813192d3e6ed7ed5fc42","","","","","","","","","","","","","","","","","","reconstruct","","","","","","325.0099047915873","300.0013766276228","2577.2000000029802","","","","","","","","","","","32","3","500","250"
"","","","","","html-keyboard-response","92","318817","0.0-11.0-0.14","629531cb501e6d23d9797050","64d3ef96556dbe1f0e02b5aa","64db813192d3e6ed7ed5fc42","","null","","","","","","","","","","","","","null","","","fallScene","","","","","","","","","","","","","true","30.030240000000923","604.4000000000001","667.6211431702998","201.78","9","33","","",""
"","","","","","html-keyboard-response","93","321138","0.0-11.0-1.14","629531cb501e6d23d9797050","64d3ef96556dbe1f0e02b5aa","64db813192d3e6ed7ed5fc42","","","","","","","","","","","","","","","","","","","","","","","","378.00328850129495","256.99055617878014","2320.5","","","","","","","","","","","","","",""
"","","","","","html-keyboard-response","93","321138","0.0-11.0-1.14","629531cb501e6d23d9797050","64d3ef96556dbe1f0e02b5aa","64db813192d3e6ed7ed5fc42","","","","","","","","","","","","","","","","","","reconstruct","","","","","","378.00328850129495","256.99055617878014","2320.5","","","","","","","","","","","33","3","500","250"
"","","","","","html-keyboard-response","94","324141","0.0-11.0-0.15","629531cb501e6d23d9797050","64d3ef96556dbe1f0e02b5aa","64db813192d3e6ed7ed5fc42","","null","","","","","","","","","","","","","null","","","fallScene","","","","","","","","","","","","","true","30.030569999999138","322.3","356.42114317029973","357.87","4","34","","",""
"","","","","","html-keyboard-response","95","327187","0.0-11.0-1.15","629531cb501e6d23d9797050","64d3ef96556dbe1f0e02b5aa","64db813192d3e6ed7ed5fc42","","","","","","","","","","","","","","","","","","","","","","","","661.9905949694077","246.99660214780246","3045.800000011921","","","","","","","","","","","","","",""
"","","","","","html-keyboard-response","95","327187","0.0-11.0-1.15","629531cb501e6d23d9797050","64d3ef96556dbe1f0e02b5aa","64db813192d3e6ed7ed5fc42","","","","","","","","","","","","","","","","","","reconstruct","","","","","","661.9905949694077","246.99660214780246","3045.800000011921","","","","","","","","","","","34","4","500","350"
"","","","","","html-keyboard-response","96","330190","0.0-11.0-0.16","629531cb501e6d23d9797050","64d3ef96556dbe1f0e02b5aa","64db813192d3e6ed7ed5fc42","","null","","","","","","","","","","","","","null","","","fallScene","","","","","","","","","","","","","true","30.029369999999762","322.3","308.07114317029976","253.89","2","35","","",""
"","","","","","html-keyboard-response","97","332371","0.0-11.0-1.16","629531cb501e6d23d9797050","64d3ef96556dbe1f0e02b5aa","64db813192d3e6ed7ed5fc42","","","","","","","","","","","","","","","","","","","","","","","","683.0046557976202","306.00885005923817","2180.800000011921","","","","","","","","","","","","","",""
"","","","","","html-keyboard-response","97","332371","0.0-11.0-1.16","629531cb501e6d23d9797050","64d3ef96556dbe1f0e02b5aa","64db813192d3e6ed7ed5fc42","","","","","","","","","","","","","","","","","","reconstruct","","","","","","683.0046557976202","306.00885005923817","2180.800000011921","","","","","","","","","","","35","2","375","350"
"","","","","","html-keyboard-response","98","335373","0.0-11.0-0.17","629531cb501e6d23d9797050","64d3ef96556dbe1f0e02b5aa","64db813192d3e6ed7ed5fc42","","null","","","","","","","","","","","","","null","","","fallScene","","","","","","","","","","","","","false","30.030480000000097","500","479.92114317029973","330.87","6","36","","",""
"","","","","","html-keyboard-response","99","337648","0.0-11.0-1.17","629531cb501e6d23d9797050","64d3ef96556dbe1f0e02b5aa","64db813192d3e6ed7ed5fc42","","","","","","","","","","","","","","","","","","","","","","","","521.0099997280784","307.9999262547673","2274.5999999940395","","","","","","","","","","","","","",""
"","","","","","html-keyboard-response","99","337648","0.0-11.0-1.17","629531cb501e6d23d9797050","64d3ef96556dbe1f0e02b5aa","64db813192d3e6ed7ed5fc42","","","","","","","","","","","","","","","","","","reconstruct","","","","","","521.0099997280784","307.9999262547673","2274.5999999940395","","","","","","","","","","","36","5","625","250"
"","","","","","html-button-response","100","338868","0.0-12.0","629531cb501e6d23d9797050","64d3ef96556dbe1f0e02b5aa","64db813192d3e6ed7ed5fc42","","1219","","","","","","","","","","","","","0","","","","<p><span style = ""font-size:40px;"">BREAK</span></p><p>You are halfway done! Click 'Next' when you are ready for the next set.</p>","","","","","","","","","","","","","","","","","","","","",""
"","","","","","html-keyboard-response","101","341884","0.0-13.0-0.0","629531cb501e6d23d9797050","64d3ef96556dbe1f0e02b5aa","64db813192d3e6ed7ed5fc42","","null","","","","","","","","","","","","","null","","","fallScene","","","","","","","","","","","","","true","30.030390000001063","322.3","379.3711431702997","245.25","1","37","","",""
"","","","","","html-keyboard-response","102","344093","0.0-13.0-1.0","629531cb501e6d23d9797050","64d3ef96556dbe1f0e02b5aa","64db813192d3e6ed7ed5fc42","","","","","","","","","","","","","","","","","","","","","","","","655.99","244.00000000967304","2208.7000000029802","","","","","","","","","","","","","",""
"","","","","","html-keyboard-response","102","344093","0.0-13.0-1.0","629531cb501e6d23d9797050","64d3ef96556dbe1f0e02b5aa","64db813192d3e6ed7ed5fc42","","","","","","","","","","","","","","","","","","reconstruct","","","","","","655.99","244.00000000967304","2208.7000000029802","","","","","","","","","","","37","3","500","250"
"","","","","","html-keyboard-response","103","347097","0.0-13.0-0.1","629531cb501e6d23d9797050","64d3ef96556dbe1f0e02b5aa","64db813192d3e6ed7ed5fc42","","null","","","","","","","","","","","","","null","","","fallScene","","","","","","","","","","","","","false","30.02990999999922","604.4000000000001","650.0211431702996","404.58000000000004","11","38","","",""
"","","","","","html-keyboard-response","104","349261","0.0-13.0-1.1","629531cb501e6d23d9797050","64d3ef96556dbe1f0e02b5aa","64db813192d3e6ed7ed5fc42","","","","","","","","","","","","","","","","","","","","","","","","602.0088384611838","341.0046777776669","2163.9000000059605","","","","","","","","","","","","","",""
"","","","","","html-keyboard-response","104","349261","0.0-13.0-1.1","629531cb501e6d23d9797050","64d3ef96556dbe1f0e02b5aa","64db813192d3e6ed7ed5fc42","","","","","","","","","","","","","","","","","","reconstruct","","","","","","602.0088384611838","341.0046777776669","2163.9000000059605","","","","","","","","","","","38","6","625","350"
"","","","","","html-keyboard-response","105","352265","0.0-13.0-0.2","629531cb501e6d23d9797050","64d3ef96556dbe1f0e02b5aa","64db813192d3e6ed7ed5fc42","","null","","","","","","","","","","","","","null","","","fallScene","","","","","","","","","","","","","true","30.029820000000186","500","479.92114317029973","330.87","6","39","","",""
"","","","","","html-keyboard-response","106","354976","0.0-13.0-1.2","629531cb501e6d23d9797050","64d3ef96556dbe1f0e02b5aa","64db813192d3e6ed7ed5fc42","","","","","","","","","","","","","","","","","","","","","","","","498.0069498202739","267.007190271077","2710.7999999970198","","","","","","","","","","","","","",""
"","","","","","html-keyboard-response","106","354976","0.0-13.0-1.2","629531cb501e6d23d9797050","64d3ef96556dbe1f0e02b5aa","64db813192d3e6ed7ed5fc42","","","","","","","","","","","","","","","","","","reconstruct","","","","","","498.0069498202739","267.007190271077","2710.7999999970198","","","","","","","","","","","39","2","375","350"
"","","","","","html-keyboard-response","107","357990","0.0-13.0-0.3","629531cb501e6d23d9797050","64d3ef96556dbe1f0e02b5aa","64db813192d3e6ed7ed5fc42","","null","","","","","","","","","","","","","null","","","fallScene","","","","","","","","","","","","","false","30.0302099999995","322.3","296.07114317029976","371.46","3","40","","",""
"","","","","","html-keyboard-response","108","360059","0.0-13.0-1.3","629531cb501e6d23d9797050","64d3ef96556dbe1f0e02b5aa","64db813192d3e6ed7ed5fc42","","","","","","","","","","","","","","","","","","","","","","","","322.00782738527494","303.99377649296963","2067.9000000059605","","","","","","","","","","","","","",""
"","","","","","html-keyboard-response","108","360059","0.0-13.0-1.3","629531cb501e6d23d9797050","64d3ef96556dbe1f0e02b5aa","64db813192d3e6ed7ed5fc42","","","","","","","","","","","","","","","","","","reconstruct","","","","","","322.00782738527494","303.99377649296963","2067.9000000059605","","","","","","","","","","","40","1","375","250"
"","","","","","html-keyboard-response","109","363061","0.0-13.0-0.4","629531cb501e6d23d9797050","64d3ef96556dbe1f0e02b5aa","64db813192d3e6ed7ed5fc42","","null","","","","","","","","","","","","","null","","","fallScene","","","","","","","","","","","","","false","30.031260000000472","500","453.67114317029973","210.33","5","41","","",""
"","","","","","html-keyboard-response","110","365052","0.0-13.0-1.4","629531cb501e6d23d9797050","64d3ef96556dbe1f0e02b5aa","64db813192d3e6ed7ed5fc42","","","","","","","","","","","","","","","","","","","","","","","","508.9999898458681","261.9900000051553","1990.2000000029802","","","","","","","","","","","","","",""
"","","","","","html-keyboard-response","110","365052","0.0-13.0-1.4","629531cb501e6d23d9797050","64d3ef96556dbe1f0e02b5aa","64db813192d3e6ed7ed5fc42","","","","","","","","","","","","","","","","","","reconstruct","","","","","","508.9999898458681","261.9900000051553","1990.2000000029802","","","","","","","","","","","41","3","500","250"
"","","","","","html-keyboard-response","111","368053","0.0-13.0-0.5","629531cb501e6d23d9797050","64d3ef96556dbe1f0e02b5aa","64db813192d3e6ed7ed5fc42","","null","","","","","","","","","","","","","null","","","fallScene","","","","","","","","","","","","","false","30.028859999999984","500","553.4711431702997","282.51","7","42","","",""
"","","","","","html-keyboard-response","112","370384","0.0-13.0-1.5","629531cb501e6d23d9797050","64d3ef96556dbe1f0e02b5aa","64db813192d3e6ed7ed5fc42","","","","","","","","","","","","","","","","","","","","","","","","497.99832345731494","305.0098584585319","2331","","","","","","","","","","","","","",""
"","","","","","html-keyboard-response","112","370384","0.0-13.0-1.5","629531cb501e6d23d9797050","64d3ef96556dbe1f0e02b5aa","64db813192d3e6ed7ed5fc42","","","","","","","","","","","","","","","","","","reconstruct","","","","","","497.99832345731494","305.0098584585319","2331","","","","","","","","","","","42","6","625","350"
"","","","","","html-keyboard-response","113","373391","0.0-13.0-0.6","629531cb501e6d23d9797050","64d3ef96556dbe1f0e02b5aa","64db813192d3e6ed7ed5fc42","","null","","","","","","","","","","","","","null","","","fallScene","","","","","","","","","","","","","true","30.030269999998854","604.4000000000001","575.4211431702997","266.76","12","43","","",""
"","","","","","html-keyboard-response","114","375857","0.0-13.0-1.6","629531cb501e6d23d9797050","64d3ef96556dbe1f0e02b5aa","64db813192d3e6ed7ed5fc42","","","","","","","","","","","","","","","","","","","","","","","","371.00008400348077","325.99000035283547","2466.0999999940395","","","","","","","","","","","","","",""
"","","","","","html-keyboard-response","114","375857","0.0-13.0-1.6","629531cb501e6d23d9797050","64d3ef96556dbe1f0e02b5aa","64db813192d3e6ed7ed5fc42","","","","","","","","","","","","","","","","","","reconstruct","","","","","","371.00008400348077","325.99000035283547","2466.0999999940395","","","","","","","","","","","43","6","625","350"
"","","","","","html-keyboard-response","115","378861","0.0-13.0-0.7","629531cb501e6d23d9797050","64d3ef96556dbe1f0e02b5aa","64db813192d3e6ed7ed5fc42","","null","","","","","","","","","","","","","null","","","fallScene","","","","","","","","","","","","","false","30.03146999999997","604.4000000000001","667.6211431702998","201.78","9","44","","",""
"","","","","","html-keyboard-response","116","381018","0.0-13.0-1.7","629531cb501e6d23d9797050","64d3ef96556dbe1f0e02b5aa","64db813192d3e6ed7ed5fc42","","","","","","","","","","","","","","","","","","","","","","","","627.0071758106744","285.0069647498997","2156.5999999940395","","","","","","","","","","","","","",""
"","","","","","html-keyboard-response","116","381018","0.0-13.0-1.7","629531cb501e6d23d9797050","64d3ef96556dbe1f0e02b5aa","64db813192d3e6ed7ed5fc42","","","","","","","","","","","","","","","","","","reconstruct","","","","","","627.0071758106744","285.0069647498997","2156.5999999940395","","","","","","","","","","","44","6","625","350"
"","","","","","html-keyboard-response","117","384023","0.0-13.0-0.8","629531cb501e6d23d9797050","64d3ef96556dbe1f0e02b5aa","64db813192d3e6ed7ed5fc42","","null","","","","","","","","","","","","","null","","","fallScene","","","","","","","","","","","","","false","30.029640000000366","500","453.67114317029973","210.33","5","45","","",""
"","","","","","html-keyboard-response","118","386272","0.0-13.0-1.8","629531cb501e6d23d9797050","64d3ef96556dbe1f0e02b5aa","64db813192d3e6ed7ed5fc42","","","","","","","","","","","","","","","","","","","","","","","","524.9900002798855","317.0000748173261","2248.6000000089407","","","","","","","","","","","","","",""
"","","","","","html-keyboard-response","118","386272","0.0-13.0-1.8","629531cb501e6d23d9797050","64d3ef96556dbe1f0e02b5aa","64db813192d3e6ed7ed5fc42","","","","","","","","","","","","","","","","","","reconstruct","","","","","","524.9900002798855","317.0000748173261","2248.6000000089407","","","","","","","","","","","45","4","500","350"
"","","","","","html-keyboard-response","119","389275","0.0-13.0-0.9","629531cb501e6d23d9797050","64d3ef96556dbe1f0e02b5aa","64db813192d3e6ed7ed5fc42","","null","","","","","","","","","","","","","null","","","fallScene","","","","","","","","","","","","","true","30.02990999999922","500","479.92114317029973","330.87","6","46","","",""
"","","","","","html-keyboard-response","120","391823","0.0-13.0-1.9","629531cb501e6d23d9797050","64d3ef96556dbe1f0e02b5aa","64db813192d3e6ed7ed5fc42","","","","","","","","","","","","","","","","","","","","","","","","501.99000011828673","294.0000486386764","2548.1000000089407","","","","","","","","","","","","","",""
"","","","","","html-keyboard-response","120","391823","0.0-13.0-1.9","629531cb501e6d23d9797050","64d3ef96556dbe1f0e02b5aa","64db813192d3e6ed7ed5fc42","","","","","","","","","","","","","","","","","","reconstruct","","","","","","501.99000011828673","294.0000486386764","2548.1000000089407","","","","","","","","","","","46","3","500","250"
"","","","","","html-keyboard-response","121","394825","0.0-13.0-0.10","629531cb501e6d23d9797050","64d3ef96556dbe1f0e02b5aa","64db813192d3e6ed7ed5fc42","","null","","","","","","","","","","","","","null","","","fallScene","","","","","","","","","","","","","true","30.031410000000612","604.4000000000001","650.0211431702996","404.58000000000004","11","47","","",""
"","","","","","html-keyboard-response","122","397016","0.0-13.0-1.10","629531cb501e6d23d9797050","64d3ef96556dbe1f0e02b5aa","64db813192d3e6ed7ed5fc42","","","","","","","","","","","","","","","","","","","","","","","","397.0083544045734","316.0054958096968","2190.2999999970198","","","","","","","","","","","","","",""
"","","","","","html-keyboard-response","122","397016","0.0-13.0-1.10","629531cb501e6d23d9797050","64d3ef96556dbe1f0e02b5aa","64db813192d3e6ed7ed5fc42","","","","","","","","","","","","","","","","","","reconstruct","","","","","","397.0083544045734","316.0054958096968","2190.2999999970198","","","","","","","","","","","47","2","375","350"
"","","","","","html-keyboard-response","123","400019","0.0-13.0-0.11","629531cb501e6d23d9797050","64d3ef96556dbe1f0e02b5aa","64db813192d3e6ed7ed5fc42","","null","","","","","","","","","","","","","null","","","fallScene","","","","","","","","","","","","","true","30.03012000000046","500","479.92114317029973","330.87","6","48","","",""
"","","","","","html-keyboard-response","124","402404","0.0-13.0-1.11","629531cb501e6d23d9797050","64d3ef96556dbe1f0e02b5aa","64db813192d3e6ed7ed5fc42","","","","","","","","","","","","","","","","","","","","","","","","499.00775017493623","320.99368060220763","2385","","","","","","","","","","","","","",""
"","","","","","html-keyboard-response","124","402404","0.0-13.0-1.11","629531cb501e6d23d9797050","64d3ef96556dbe1f0e02b5aa","64db813192d3e6ed7ed5fc42","","","","","","","","","","","","","","","","","","reconstruct","","","","","","499.00775017493623","320.99368060220763","2385","","","","","","","","","","","48","1","375","250"
"","","","","","html-keyboard-response","125","405410","0.0-13.0-0.12","629531cb501e6d23d9797050","64d3ef96556dbe1f0e02b5aa","64db813192d3e6ed7ed5fc42","","null","","","","","","","","","","","","","null","","","fallScene","","","","","","","","","","","","","false","30.030150000000138","500","553.4711431702997","282.51","7","49","","",""
"","","","","","html-keyboard-response","126","407371","0.0-13.0-1.12","629531cb501e6d23d9797050","64d3ef96556dbe1f0e02b5aa","64db813192d3e6ed7ed5fc42","","","","","","","","","","","","","","","","","","","","","","","","499.9953900385146","295.99112597863973","1960.5","","","","","","","","","","","","","",""
"","","","","","html-keyboard-response","126","407371","0.0-13.0-1.12","629531cb501e6d23d9797050","64d3ef96556dbe1f0e02b5aa","64db813192d3e6ed7ed5fc42","","","","","","","","","","","","","","","","","","reconstruct","","","","","","499.9953900385146","295.99112597863973","1960.5","","","","","","","","","","","49","3","500","250"
"","","","","","html-keyboard-response","127","410388","0.0-13.0-0.13","629531cb501e6d23d9797050","64d3ef96556dbe1f0e02b5aa","64db813192d3e6ed7ed5fc42","","null","","","","","","","","","","","","","null","","","fallScene","","","","","","","","","","","","","true","30.030090000000783","322.3","379.3711431702997","245.25","1","50","","",""
"","","","","","html-keyboard-response","128","412935","0.0-13.0-1.13","629531cb501e6d23d9797050","64d3ef96556dbe1f0e02b5aa","64db813192d3e6ed7ed5fc42","","","","","","","","","","","","","","","","","","","","","","","","701.0000980371806","265.009999519424","2547.0999999940395","","","","","","","","","","","","","",""
"","","","","","html-keyboard-response","128","412935","0.0-13.0-1.13","629531cb501e6d23d9797050","64d3ef96556dbe1f0e02b5aa","64db813192d3e6ed7ed5fc42","","","","","","","","","","","","","","","","","","reconstruct","","","","","","701.0000980371806","265.009999519424","2547.0999999940395","","","","","","","","","","","50","2","375","350"
"","","","","","html-keyboard-response","129","415945","0.0-13.0-0.14","629531cb501e6d23d9797050","64d3ef96556dbe1f0e02b5aa","64db813192d3e6ed7ed5fc42","","null","","","","","","","","","","","","","null","","","fallScene","","","","","","","","","","","","","true","30.02969999999972","500","510.8711431702997","369.03","8","51","","",""
"","","","","","html-keyboard-response","130","417942","0.0-13.0-1.14","629531cb501e6d23d9797050","64d3ef96556dbe1f0e02b5aa","64db813192d3e6ed7ed5fc42","","","","","","","","","","","","","","","","","","","","","","","","552.0031593187593","290.00948781876815","1997.4000000059605","","","","","","","","","","","","","",""
"","","","","","html-keyboard-response","130","417942","0.0-13.0-1.14","629531cb501e6d23d9797050","64d3ef96556dbe1f0e02b5aa","64db813192d3e6ed7ed5fc42","","","","","","","","","","","","","","","","","","reconstruct","","","","","","552.0031593187593","290.00948781876815","1997.4000000059605","","","","","","","","","","","51","2","375","350"
"","","","","","html-keyboard-response","131","420945","0.0-13.0-0.15","629531cb501e6d23d9797050","64d3ef96556dbe1f0e02b5aa","64db813192d3e6ed7ed5fc42","","null","","","","","","","","","","","","","null","","","fallScene","","","","","","","","","","","","","true","30.031530000001077","604.4000000000001","650.0211431702996","404.58000000000004","11","52","","",""
"","","","","","html-keyboard-response","132","423678","0.0-13.0-1.15","629531cb501e6d23d9797050","64d3ef96556dbe1f0e02b5aa","64db813192d3e6ed7ed5fc42","","","","","","","","","","","","","","","","","","","","","","","","346.9900059263026","277.99965577488257","2732.5999999940395","","","","","","","","","","","","","",""
"","","","","","html-keyboard-response","132","423678","0.0-13.0-1.15","629531cb501e6d23d9797050","64d3ef96556dbe1f0e02b5aa","64db813192d3e6ed7ed5fc42","","","","","","","","","","","","","","","","","","reconstruct","","","","","","346.9900059263026","277.99965577488257","2732.5999999940395","","","","","","","","","","","52","1","375","250"
"","","","","","html-keyboard-response","133","426692","0.0-13.0-0.16","629531cb501e6d23d9797050","64d3ef96556dbe1f0e02b5aa","64db813192d3e6ed7ed5fc42","","null","","","","","","","","","","","","","null","","","fallScene","","","","","","","","","","","","","false","30.0289799999987","322.3","296.07114317029976","371.46","3","53","","",""
"","","","","","html-keyboard-response","134","429105","0.0-13.0-1.16","629531cb501e6d23d9797050","64d3ef96556dbe1f0e02b5aa","64db813192d3e6ed7ed5fc42","","","","","","","","","","","","","","","","","","","","","","","","335.00999999949624","302.99999682588043","2412.2999999970198","","","","","","","","","","","","","",""
"","","","","","html-keyboard-response","134","429105","0.0-13.0-1.16","629531cb501e6d23d9797050","64d3ef96556dbe1f0e02b5aa","64db813192d3e6ed7ed5fc42","","","","","","","","","","","","","","","","","","reconstruct","","","","","","335.00999999949624","302.99999682588043","2412.2999999970198","","","","","","","","","","","53","3","500","250"
"","","","","","html-keyboard-response","135","432116","0.0-13.0-0.17","629531cb501e6d23d9797050","64d3ef96556dbe1f0e02b5aa","64db813192d3e6ed7ed5fc42","","null","","","","","","","","","","","","","null","","","fallScene","","","","","","","","","","","","","false","30.031319999999834","604.4000000000001","667.6211431702998","201.78","9","54","","",""
"","","","","","html-keyboard-response","136","433932","0.0-13.0-1.17","629531cb501e6d23d9797050","64d3ef96556dbe1f0e02b5aa","64db813192d3e6ed7ed5fc42","","","","","","","","","","","","","","","","","","","","","","","","652.9911554563558","298.99533373299886","1815.2000000029802","","","","","","","","","","","","","",""
"","","","","","html-keyboard-response","136","433932","0.0-13.0-1.17","629531cb501e6d23d9797050","64d3ef96556dbe1f0e02b5aa","64db813192d3e6ed7ed5fc42","","","","","","","","","","","","","","","","","","reconstruct","","","","","","652.9911554563558","298.99533373299886","1815.2000000029802","","","","","","","","","","","54","5","625","250"
"","","","","","html-button-response","137","434990","0.0-14.0","629531cb501e6d23d9797050","64d3ef96556dbe1f0e02b5aa","64db813192d3e6ed7ed5fc42","","1057","","","","","","","","","","","","","0","","","","<p><span style = ""font-size:40px;"">BREAK</span></p><p>You are almost done! Click 'Next' when you are ready for the next set.</p>","","","","","","","","","","","","","","","","","","","","",""
"","","","","","html-keyboard-response","138","437997","0.0-15.0-0.0","629531cb501e6d23d9797050","64d3ef96556dbe1f0e02b5aa","64db813192d3e6ed7ed5fc42","","null","","","","","","","","","","","","","null","","","fallScene","","","","","","","","","","","","","false","30.028889999999663","604.4000000000001","575.4211431702997","266.76","12","55","","",""
"","","","","","html-keyboard-response","139","440220","0.0-15.0-1.0","629531cb501e6d23d9797050","64d3ef96556dbe1f0e02b5aa","64db813192d3e6ed7ed5fc42","","","","","","","","","","","","","","","","","","","","","","","","594.990000019975","275.99998001250987","2222.7999999970198","","","","","","","","","","","","","",""
"","","","","","html-keyboard-response","139","440220","0.0-15.0-1.0","629531cb501e6d23d9797050","64d3ef96556dbe1f0e02b5aa","64db813192d3e6ed7ed5fc42","","","","","","","","","","","","","","","","","","reconstruct","","","","","","594.990000019975","275.99998001250987","2222.7999999970198","","","","","","","","","","","55","2","375","350"
"","","","","","html-keyboard-response","140","443227","0.0-15.0-0.1","629531cb501e6d23d9797050","64d3ef96556dbe1f0e02b5aa","64db813192d3e6ed7ed5fc42","","null","","","","","","","","","","","","","null","","","fallScene","","","","","","","","","","","","","false","30.031500000001397","322.3","379.3711431702997","245.25","1","56","","",""
"","","","","","html-keyboard-response","141","445351","0.0-15.0-1.1","629531cb501e6d23d9797050","64d3ef96556dbe1f0e02b5aa","64db813192d3e6ed7ed5fc42","","","","","","","","","","","","","","","","","","","","","","","","355.0070467742988","288.0070952781469","2123.4000000059605","","","","","","","","","","","","","",""
"","","","","","html-keyboard-response","141","445351","0.0-15.0-1.1","629531cb501e6d23d9797050","64d3ef96556dbe1f0e02b5aa","64db813192d3e6ed7ed5fc42","","","","","","","","","","","","","","","","","","reconstruct","","","","","","355.0070467742988","288.0070952781469","2123.4000000059605","","","","","","","","","","","56","1","375","250"
"","","","","","html-keyboard-response","142","448366","0.0-15.0-0.2","629531cb501e6d23d9797050","64d3ef96556dbe1f0e02b5aa","64db813192d3e6ed7ed5fc42","","null","","","","","","","","","","","","","null","","","fallScene","","","","","","","","","","","","","false","30.03086999999941","322.3","296.07114317029976","371.46","3","57","","",""
"","","","","","html-keyboard-response","143","450349","0.0-15.0-1.2","629531cb501e6d23d9797050","64d3ef96556dbe1f0e02b5aa","64db813192d3e6ed7ed5fc42","","","","","","","","","","","","","","","","","","","","","","","","325.0071793181621","324.0069611342989","1983.5999999940395","","","","","","","","","","","","","",""
"","","","","","html-keyboard-response","143","450350","0.0-15.0-1.2","629531cb501e6d23d9797050","64d3ef96556dbe1f0e02b5aa","64db813192d3e6ed7ed5fc42","","","","","","","","","","","","","","","","","","reconstruct","","","","","","325.0071793181621","324.0069611342989","1983.5999999940395","","","","","","","","","","","57","2","375","350"
"","","","","","html-keyboard-response","144","453363","0.0-15.0-0.3","629531cb501e6d23d9797050","64d3ef96556dbe1f0e02b5aa","64db813192d3e6ed7ed5fc42","","null","","","","","","","","","","","","","null","","","fallScene","","","","","","","","","","","","","false","30.030240000000923","500","479.92114317029973","330.87","6","58","","",""
"","","","","","html-keyboard-response","145","455332","0.0-15.0-1.3","629531cb501e6d23d9797050","64d3ef96556dbe1f0e02b5aa","64db813192d3e6ed7ed5fc42","","","","","","","","","","","","","","","","","","","","","","","","510.99184517207834","308.00578781319405","1969.2999999970198","","","","","","","","","","","","","",""
"","","","","","html-keyboard-response","145","455332","0.0-15.0-1.3","629531cb501e6d23d9797050","64d3ef96556dbe1f0e02b5aa","64db813192d3e6ed7ed5fc42","","","","","","","","","","","","","","","","","","reconstruct","","","","","","510.99184517207834","308.00578781319405","1969.2999999970198","","","","","","","","","","","58","4","500","350"
"","","","","","html-keyboard-response","146","458342","0.0-15.0-0.4","629531cb501e6d23d9797050","64d3ef96556dbe1f0e02b5aa","64db813192d3e6ed7ed5fc42","","null","","","","","","","","","","","","","null","","","fallScene","","","","","","","","","","","","","false","30.030570000000882","604.4000000000001","575.4211431702997","266.76","12","59","","",""
"","","","","","html-keyboard-response","147","460843","0.0-15.0-1.4","629531cb501e6d23d9797050","64d3ef96556dbe1f0e02b5aa","64db813192d3e6ed7ed5fc42","","","","","","","","","","","","","","","","","","","","","","","","615.9901347913045","277.9983636450892","2500.4000000059605","","","","","","","","","","","","","",""
"","","","","","html-keyboard-response","147","460843","0.0-15.0-1.4","629531cb501e6d23d9797050","64d3ef96556dbe1f0e02b5aa","64db813192d3e6ed7ed5fc42","","","","","","","","","","","","","","","","","","reconstruct","","","","","","615.9901347913045","277.9983636450892","2500.4000000059605","","","","","","","","","","","59","4","500","350"
"","","","","","html-keyboard-response","148","463848","0.0-15.0-0.5","629531cb501e6d23d9797050","64d3ef96556dbe1f0e02b5aa","64db813192d3e6ed7ed5fc42","","null","","","","","","","","","","","","","null","","","fallScene","","","","","","","","","","","","","true","30.031499999999653","604.4000000000001","596.8711431702998","394.5","10","60","","",""
"","","","","","html-keyboard-response","149","465879","0.0-15.0-1.5","629531cb501e6d23d9797050","64d3ef96556dbe1f0e02b5aa","64db813192d3e6ed7ed5fc42","","","","","","","","","","","","","","","","","","","","","","","","357.9930349494811","324.99282448111495","2031.2000000029802","","","","","","","","","","","","","",""
"","","","","","html-keyboard-response","149","465879","0.0-15.0-1.5","629531cb501e6d23d9797050","64d3ef96556dbe1f0e02b5aa","64db813192d3e6ed7ed5fc42","","","","","","","","","","","","","","","","","","reconstruct","","","","","","357.9930349494811","324.99282448111495","2031.2000000029802","","","","","","","","","","","60","5","625","250"
"","","","","","html-keyboard-response","150","468886","0.0-15.0-0.6","629531cb501e6d23d9797050","64d3ef96556dbe1f0e02b5aa","64db813192d3e6ed7ed5fc42","","null","","","","","","","","","","","","","null","","","fallScene","","","","","","","","","","","","","false","30.028739999999527","322.3","308.07114317029976","253.89","2","61","","",""
"","","","","","html-keyboard-response","151","470902","0.0-15.0-1.6","629531cb501e6d23d9797050","64d3ef96556dbe1f0e02b5aa","64db813192d3e6ed7ed5fc42","","","","","","","","","","","","","","","","","","","","","","","","326.00006916194883","302.9900002391716","2015.4000000059605","","","","","","","","","","","","","",""
"","","","","","html-keyboard-response","151","470902","0.0-15.0-1.6","629531cb501e6d23d9797050","64d3ef96556dbe1f0e02b5aa","64db813192d3e6ed7ed5fc42","","","","","","","","","","","","","","","","","","reconstruct","","","","","","326.00006916194883","302.9900002391716","2015.4000000059605","","","","","","","","","","","61","1","375","250"
"","","","","","html-keyboard-response","152","473904","0.0-15.0-0.7","629531cb501e6d23d9797050","64d3ef96556dbe1f0e02b5aa","64db813192d3e6ed7ed5fc42","","null","","","","","","","","","","","","","null","","","fallScene","","","","","","","","","","","","","false","30.030359999999632","500","453.67114317029973","210.33","5","62","","",""
"","","","","","html-keyboard-response","153","476179","0.0-15.0-1.7","629531cb501e6d23d9797050","64d3ef96556dbe1f0e02b5aa","64db813192d3e6ed7ed5fc42","","","","","","","","","","","","","","","","","","","","","","","","476.0025120280583","284.0096793447627","2274.1000000089407","","","","","","","","","","","","","",""
"","","","","","html-keyboard-response","153","476179","0.0-15.0-1.7","629531cb501e6d23d9797050","64d3ef96556dbe1f0e02b5aa","64db813192d3e6ed7ed5fc42","","","","","","","","","","","","","","","","","","reconstruct","","","","","","476.0025120280583","284.0096793447627","2274.1000000089407","","","","","","","","","","","62","6","625","350"
"","","","","","html-keyboard-response","154","479188","0.0-15.0-0.8","629531cb501e6d23d9797050","64d3ef96556dbe1f0e02b5aa","64db813192d3e6ed7ed5fc42","","null","","","","","","","","","","","","","null","","","fallScene","","","","","","","","","","","","","false","30.031019999999554","500","453.67114317029973","210.33","5","63","","",""
"","","","","","html-keyboard-response","155","481169","0.0-15.0-1.8","629531cb501e6d23d9797050","64d3ef96556dbe1f0e02b5aa","64db813192d3e6ed7ed5fc42","","","","","","","","","","","","","","","","","","","","","","","","519.9904274039804","293.0028923010641","1980.3999999910593","","","","","","","","","","","","","",""
"","","","","","html-keyboard-response","155","481169","0.0-15.0-1.8","629531cb501e6d23d9797050","64d3ef96556dbe1f0e02b5aa","64db813192d3e6ed7ed5fc42","","","","","","","","","","","","","","","","","","reconstruct","","","","","","519.9904274039804","293.0028923010641","1980.3999999910593","","","","","","","","","","","63","1","375","250"
"","","","","","html-keyboard-response","156","484180","0.0-15.0-0.9","629531cb501e6d23d9797050","64d3ef96556dbe1f0e02b5aa","64db813192d3e6ed7ed5fc42","","null","","","","","","","","","","","","","null","","","fallScene","","","","","","","","","","","","","true","30.031499999999653","604.4000000000001","667.6211431702998","201.78","9","64","","",""
"","","","","","html-keyboard-response","157","486726","0.0-15.0-1.9","629531cb501e6d23d9797050","64d3ef96556dbe1f0e02b5aa","64db813192d3e6ed7ed5fc42","","","","","","","","","","","","","","","","","","","","","","","","363.00978551146864","281.99793995987983","2546.2000000029802","","","","","","","","","","","","","",""
"","","","","","html-keyboard-response","157","486726","0.0-15.0-1.9","629531cb501e6d23d9797050","64d3ef96556dbe1f0e02b5aa","64db813192d3e6ed7ed5fc42","","","","","","","","","","","","","","","","","","reconstruct","","","","","","363.00978551146864","281.99793995987983","2546.2000000029802","","","","","","","","","","","64","2","375","350"
"","","","","","html-keyboard-response","158","489738","0.0-15.0-0.10","629531cb501e6d23d9797050","64d3ef96556dbe1f0e02b5aa","64db813192d3e6ed7ed5fc42","","null","","","","","","","","","","","","","null","","","fallScene","","","","","","","","","","","","","true","30.03146999999997","322.3","356.42114317029973","357.87","4","65","","",""
"","","","","","html-keyboard-response","159","491812","0.0-15.0-1.10","629531cb501e6d23d9797050","64d3ef96556dbe1f0e02b5aa","64db813192d3e6ed7ed5fc42","","","","","","","","","","","","","","","","","","","","","","","","665.9910262653094","332.99558728137043","2072.7999999970198","","","","","","","","","","","","","",""
"","","","","","html-keyboard-response","159","491812","0.0-15.0-1.10","629531cb501e6d23d9797050","64d3ef96556dbe1f0e02b5aa","64db813192d3e6ed7ed5fc42","","","","","","","","","","","","","","","","","","reconstruct","","","","","","665.9910262653094","332.99558728137043","2072.7999999970198","","","","","","","","","","","65","1","375","250"
"","","","","","html-keyboard-response","160","494814","0.0-15.0-0.11","629531cb501e6d23d9797050","64d3ef96556dbe1f0e02b5aa","64db813192d3e6ed7ed5fc42","","null","","","","","","","","","","","","","null","","","fallScene","","","","","","","","","","","","","false","30.03086999999941","500","453.67114317029973","210.33","5","66","","",""
"","","","","","html-keyboard-response","161","497019","0.0-15.0-1.11","629531cb501e6d23d9797050","64d3ef96556dbe1f0e02b5aa","64db813192d3e6ed7ed5fc42","","","","","","","","","","","","","","","","","","","","","","","","510.0000839868815","294.99000035269603","2204.7999999970198","","","","","","","","","","","","","",""
"","","","","","html-keyboard-response","161","497019","0.0-15.0-1.11","629531cb501e6d23d9797050","64d3ef96556dbe1f0e02b5aa","64db813192d3e6ed7ed5fc42","","","","","","","","","","","","","","","","","","reconstruct","","","","","","510.0000839868815","294.99000035269603","2204.7999999970198","","","","","","","","","","","66","5","625","250"
"","","","","","html-keyboard-response","162","500023","0.0-15.0-0.12","629531cb501e6d23d9797050","64d3ef96556dbe1f0e02b5aa","64db813192d3e6ed7ed5fc42","","null","","","","","","","","","","","","","null","","","fallScene","","","","","","","","","","","","","true","30.030150000000138","604.4000000000001","650.0211431702996","404.58000000000004","11","67","","",""
"","","","","","html-keyboard-response","163","502296","0.0-15.0-1.12","629531cb501e6d23d9797050","64d3ef96556dbe1f0e02b5aa","64db813192d3e6ed7ed5fc42","","","","","","","","","","","","","","","","","","","","","","","","366.00000000004775","349.99","2273.2000000029802","","","","","","","","","","","","","",""
"","","","","","html-keyboard-response","163","502296","0.0-15.0-1.12","629531cb501e6d23d9797050","64d3ef96556dbe1f0e02b5aa","64db813192d3e6ed7ed5fc42","","","","","","","","","","","","","","","","","","reconstruct","","","","","","366.00000000004775","349.99","2273.2000000029802","","","","","","","","","","","67","5","625","250"
"","","","","","html-keyboard-response","164","505309","0.0-15.0-0.13","629531cb501e6d23d9797050","64d3ef96556dbe1f0e02b5aa","64db813192d3e6ed7ed5fc42","","null","","","","","","","","","","","","","null","","","fallScene","","","","","","","","","","","","","true","30.028859999999984","604.4000000000001","575.4211431702997","266.76","12","68","","",""
"","","","","","html-keyboard-response","165","507901","0.0-15.0-1.13","629531cb501e6d23d9797050","64d3ef96556dbe1f0e02b5aa","64db813192d3e6ed7ed5fc42","","","","","","","","","","","","","","","","","","","","","","","","365.00999949997026","373.0001000017251","2591.800000011921","","","","","","","","","","","","","",""
"","","","","","html-keyboard-response","165","507901","0.0-15.0-1.13","629531cb501e6d23d9797050","64d3ef96556dbe1f0e02b5aa","64db813192d3e6ed7ed5fc42","","","","","","","","","","","","","","","","","","reconstruct","","","","","","365.00999949997026","373.0001000017251","2591.800000011921","","","","","","","","","","","68","3","500","250"
"","","","","","html-keyboard-response","166","510906","0.0-15.0-0.14","629531cb501e6d23d9797050","64d3ef96556dbe1f0e02b5aa","64db813192d3e6ed7ed5fc42","","null","","","","","","","","","","","","","null","","","fallScene","","","","","","","","","","","","","true","30.030179999999817","604.4000000000001","575.4211431702997","266.76","12","69","","",""
"","","","","","html-keyboard-response","167","512845","0.0-15.0-1.14","629531cb501e6d23d9797050","64d3ef96556dbe1f0e02b5aa","64db813192d3e6ed7ed5fc42","","","","","","","","","","","","","","","","","","","","","","","","387.9999999978469","344.99","1938.2999999970198","","","","","","","","","","","","","",""
"","","","","","html-keyboard-response","167","512845","0.0-15.0-1.14","629531cb501e6d23d9797050","64d3ef96556dbe1f0e02b5aa","64db813192d3e6ed7ed5fc42","","","","","","","","","","","","","","","","","","reconstruct","","","","","","387.9999999978469","344.99","1938.2999999970198","","","","","","","","","","","69","5","625","250"
"","","","","","html-keyboard-response","168","515855","0.0-15.0-0.15","629531cb501e6d23d9797050","64d3ef96556dbe1f0e02b5aa","64db813192d3e6ed7ed5fc42","","null","","","","","","","","","","","","","null","","","fallScene","","","","","","","","","","","","","true","30.030300000000278","322.3","356.42114317029973","357.87","4","70","","",""
"","","","","","html-keyboard-response","169","518076","0.0-15.0-1.15","629531cb501e6d23d9797050","64d3ef96556dbe1f0e02b5aa","64db813192d3e6ed7ed5fc42","","","","","","","","","","","","","","","","","","","","","","","","696.990128836485","337.9983999591067","2221.2000000029802","","","","","","","","","","","","","",""
"","","","","","html-keyboard-response","169","518076","0.0-15.0-1.15","629531cb501e6d23d9797050","64d3ef96556dbe1f0e02b5aa","64db813192d3e6ed7ed5fc42","","","","","","","","","","","","","","","","","","reconstruct","","","","","","696.990128836485","337.9983999591067","2221.2000000029802","","","","","","","","","","","70","6","625","350"
"","","","","","html-keyboard-response","170","521079","0.0-15.0-0.16","629531cb501e6d23d9797050","64d3ef96556dbe1f0e02b5aa","64db813192d3e6ed7ed5fc42","","null","","","","","","","","","","","","","null","","","fallScene","","","","","","","","","","","","","false","30.028530000000032","604.4000000000001","650.0211431702996","404.58000000000004","11","71","","",""
"","","","","","html-keyboard-response","171","523144","0.0-15.0-1.16","629531cb501e6d23d9797050","64d3ef96556dbe1f0e02b5aa","64db813192d3e6ed7ed5fc42","","","","","","","","","","","","","","","","","","","","","","","","620.9900004999085","373.9999000103971","2064.5999999940395","","","","","","","","","","","","","",""
"","","","","","html-keyboard-response","171","523144","0.0-15.0-1.16","629531cb501e6d23d9797050","64d3ef96556dbe1f0e02b5aa","64db813192d3e6ed7ed5fc42","","","","","","","","","","","","","","","","","","reconstruct","","","","","","620.9900004999085","373.9999000103971","2064.5999999940395","","","","","","","","","","","71","3","500","250"
"","","","","","html-keyboard-response","172","526146","0.0-15.0-0.17","629531cb501e6d23d9797050","64d3ef96556dbe1f0e02b5aa","64db813192d3e6ed7ed5fc42","","null","","","","","","","","","","","","","null","","","fallScene","","","","","","","","","","","","","true","30.030300000000278","500","510.8711431702997","369.03","8","72","","",""
"","","","","","html-keyboard-response","173","528143","0.0-15.0-1.17","629531cb501e6d23d9797050","64d3ef96556dbe1f0e02b5aa","64db813192d3e6ed7ed5fc42","","","","","","","","","","","","","","","","","","","","","","","","507.00935383006976","343.99646363703397","1996.7000000029802","","","","","","","","","","","","","",""
"","","","","","html-keyboard-response","173","528143","0.0-15.0-1.17","629531cb501e6d23d9797050","64d3ef96556dbe1f0e02b5aa","64db813192d3e6ed7ed5fc42","","","","","","","","","","","","","","","","","","reconstruct","","","","","","507.00935383006976","343.99646363703397","1996.7000000029802","","","","","","","","","","","72","1","375","250"
"","","","","","survey-text","174","556182","0.0-16.0","629531cb501e6d23d9797050","64d3ef96556dbe1f0e02b5aa","64db813192d3e6ed7ed5fc42","","28035","","","","","","","","","","","","","{""Summary"":""I moved the triangle to the spot that I beleived the ball hit it when falling behind the grey box""}","","","","","","","","","","","","","","","","","","","","","","","","",""
"","","","","","survey-text","175","558220","0.0-17.0","629531cb501e6d23d9797050","64d3ef96556dbe1f0e02b5aa","64db813192d3e6ed7ed5fc42","","2036","","","","","","","","","","","","","{""Comments"":""""}","","","","","","","","","","","","","","","","","","","","","","","","",""
