"success","timeout","failed_images","failed_audio","failed_video","trial_type","trial_index","time_elapsed","internal_node_id","subject_id","study_id","session_id","view_history","rt","width","height","webaudio","browser","browser_version","mobile","os","fullscreen","vsync_rate","webcam","microphone","url","response","triangle_prac_final_x","triangle_prac_final_y","trial_name","stimulus","ball_X_prac_occ","ball_Y_prac_occ","obstacle_X_prac_occ","obstacle_Y_prac_occ","triangle_final_x","triangle_final_y","response_time","obstacle_X_prac_occ_init","obstacle_Y_prac_occ_init","question_order","flipped","runnerFPS","ball_X","obstacle_groundTruth_x","obstacle_groundTruth_y","stimulus_idx","currentTrial","obstacle_idx","obstacle_initial_x","obstacle_initial_y"
"true","false","[]","[]","[]","preload","0","817","0.0-0.0","62c97585c81636f2f16fbbb0","64d3ef96556dbe1f0e02b5aa","64db8191c4b5aba85647b20a","","","","","","","","","","","","","","","","","","","","","","","","","","","","","","","","","","","","","","",""
"","","","","","instructions","1","8091","0.0-1.0","62c97585c81636f2f16fbbb0","64d3ef96556dbe1f0e02b5aa","64db8191c4b5aba85647b20a","[{""page_index"":0,""viewing_time"":7271}]","7271","","","","","","","","","","","","","","","","","","","","","","","","","","","","","","","","","","","","",""
"","","","","","browser-check","2","9084","0.0-2.0","62c97585c81636f2f16fbbb0","64d3ef96556dbe1f0e02b5aa","64db8191c4b5aba85647b20a","","","1280","609","true","chrome","114.0.0","false","Windows 10","true","60.79","false","true","","","","","","","","","","","","","","","","","","","","","","","","","",""
"","","","","","external-html","3","13761","0.0-3.0","62c97585c81636f2f16fbbb0","64d3ef96556dbe1f0e02b5aa","64db8191c4b5aba85647b20a","","4425","","","","","","","","","","","","consent.html","","","","","","","","","","","","","","","","","","","","","","","","",""
"true","","","","","fullscreen","4","16830","0.0-4.0","62c97585c81636f2f16fbbb0","64d3ef96556dbe1f0e02b5aa","64db8191c4b5aba85647b20a","","2562","","","","","","","","","","","","","","","","","","","","","","","","","","","","","","","","","","","","",""
"","","","","","survey-text","5","19503","0.0-5.0","62c97585c81636f2f16fbbb0","64d3ef96556dbe1f0e02b5aa","64db8191c4b5aba85647b20a","","2659","","","","","","","","","","","","","{""prolificID"":""62c97585c81636f2f16fbbb0""}","","","","","","","","","","","","","","","","","","","","","","","",""
"","","","","","browser-check","6","20496","0.0-6.0","62c97585c81636f2f16fbbb0","64d3ef96556dbe1f0e02b5aa","64db8191c4b5aba85647b20a","","","1280","720","true","chrome","114.0.0","false","Windows 10","true","60.56","false","true","","","","","","","","","","","","","","","","","","","","","","","","","",""
"","","","","","instructions","7","68589","0.0-7.0-0.0-0.0","62c97585c81636f2f16fbbb0","64d3ef96556dbe1f0e02b5aa","64db8191c4b5aba85647b20a","[{""page_index"":0,""viewing_time"":22044},{""page_index"":1,""viewing_time"":8130},{""page_index"":2,""viewing_time"":9118},{""page_index"":3,""viewing_time"":8800}]","48092","","","","","","","","","","","","","","","","","","","","","","","","","","","","","","","","","","","","",""
"","","","","","html-keyboard-response","8","84679","0.0-7.0-0.0-1.0","62c97585c81636f2f16fbbb0","64d3ef96556dbe1f0e02b5aa","64db8191c4b5aba85647b20a","","","","","","","","","","","","","","","","504.0037443084103","566.0092725485263","","","","","","","","","","","","","","","","","","","","","",""
"","","","","","html-keyboard-response","8","84679","0.0-7.0-0.0-1.0","62c97585c81636f2f16fbbb0","64d3ef96556dbe1f0e02b5aa","64db8191c4b5aba85647b20a","","","","","","","","","","","","","","","","","","practiceTrial_move","","","","","","","","","","","","","","","","","","","","",""
"","","","","","html-button-response","9","89383","0.0-7.0-0.0-2.0","62c97585c81636f2f16fbbb0","64d3ef96556dbe1f0e02b5aa","64db8191c4b5aba85647b20a","","4700","","","","","","","","","","","","","0","","","","<p>To help you get more comfortable with the task, let's begin with a practice trial first!</p><p>As described previously, you will first see a video of a ball falling, some of it behind a gray screen.</p><p>After the video, you will drag a triangle to the spot you think the ball hit the triangle behind the screen.</p><p>Click 'Next' to start your practice trial.</p>","","","","","","","","","","","","","","","","","","","",""
"","","","","","html-keyboard-response","10","92397","0.0-7.0-0.0-3.0","62c97585c81636f2f16fbbb0","64d3ef96556dbe1f0e02b5aa","64db8191c4b5aba85647b20a","","null","","","","","","","","","","","","","null","","","fallScene_practiceTrial_withOccluder","","400","50","420","415","","","","","","","","","","","","","","","",""
"","","","","","html-keyboard-response","11","96197","0.0-7.0-0.0-4.0","62c97585c81636f2f16fbbb0","64d3ef96556dbe1f0e02b5aa","64db8191c4b5aba85647b20a","","","","","","","","","","","","","","","","","","","","","","","","368.0099999997865","390.0000020665475","3798","","","","","","","","","","","","",""
"","","","","","html-keyboard-response","11","96197","0.0-7.0-0.0-4.0","62c97585c81636f2f16fbbb0","64d3ef96556dbe1f0e02b5aa","64db8191c4b5aba85647b20a","","","","","","","","","","","","","","","","","","reconstruct_practiceTrial_withOccluder","","","","","","368.0099999997865","390.0000020665475","3798","500","300","","","","","","","","","","",""
"","","","","","html-button-response","12","102073","0.0-7.0-0.0-5.0","62c97585c81636f2f16fbbb0","64d3ef96556dbe1f0e02b5aa","64db8191c4b5aba85647b20a","","5873","","","","","","","","","","","","","1","","","","<p>Ok! We're almost ready to get started.</p><p>We just have a <b>brief quiz</b>, to make sure you understood the task.</p><p>If you need to review the instructions, click 'Previous'.</p><p>It's important to understand the task to do the study, so you have to pass the quiz to move to the study.</p>","","","","","","","","","","","","","","","","","","","",""
"","","","","","survey-multi-choice","13","114719","0.0-7.0-1.0-0.0","62c97585c81636f2f16fbbb0","64d3ef96556dbe1f0e02b5aa","64db8191c4b5aba85647b20a","","12643","","","","","","","","","","","","","{""generalProcedure"":""Watch a video of a ball falling, some of it behind a gray screen. After each video, drag a triangle to where I think the ball hit the triangle behind the screen.""}","","","","","","","","","","","","","","[0]","","","","","","","","","",""
"","","","","","survey-multi-choice","14","119302","0.0-7.0-1.0-1.0","62c97585c81636f2f16fbbb0","64d3ef96556dbe1f0e02b5aa","64db8191c4b5aba85647b20a","","4580","","","","","","","","","","","","","{""checkBallHitObstacle"":""Yes.""}","","","","","","","","","","","","","","[0]","","","","","","","","","",""
"","","","","","survey-multi-choice","15","123656","0.0-7.0-1.0-2.0","62c97585c81636f2f16fbbb0","64d3ef96556dbe1f0e02b5aa","64db8191c4b5aba85647b20a","","4351","","","","","","","","","","","","","{""checkTriangleVisibility"":""No, the triangle is hidden behind the gray screen.""}","","","","","","","","","","","","","","[0]","","","","","","","","","",""
"","","","","","instructions","16","130085","0.0-8.0","62c97585c81636f2f16fbbb0","64d3ef96556dbe1f0e02b5aa","64db8191c4b5aba85647b20a","[{""page_index"":0,""viewing_time"":6424}]","6424","","","","","","","","","","","","","","","","","","","","","","","","","","","","","","","","","","","","",""
"","","","","","html-keyboard-response","17","133100","0.0-9.0-0.0","62c97585c81636f2f16fbbb0","64d3ef96556dbe1f0e02b5aa","64db8191c4b5aba85647b20a","","null","","","","","","","","","","","","","null","","","fallScene","","","","","","","","","","","","false","61.95867600000002","500","453.67114317029973","210.33","5","1","","",""
"","","","","","html-keyboard-response","18","136151","0.0-9.0-1.0","62c97585c81636f2f16fbbb0","64d3ef96556dbe1f0e02b5aa","64db8191c4b5aba85647b20a","","","","","","","","","","","","","","","","","","","","","","","","540.9910469618754","312.9955454396019","3049.800000011921","","","","","","","","","","","","",""
"","","","","","html-keyboard-response","18","136151","0.0-9.0-1.0","62c97585c81636f2f16fbbb0","64d3ef96556dbe1f0e02b5aa","64db8191c4b5aba85647b20a","","","","","","","","","","","","","","","","","","reconstruct","","","","","","540.9910469618754","312.9955454396019","3049.800000011921","","","","","","","","","","1","3","500","250"
"","","","","","html-keyboard-response","19","139157","0.0-9.0-0.1","62c97585c81636f2f16fbbb0","64d3ef96556dbe1f0e02b5aa","64db8191c4b5aba85647b20a","","null","","","","","","","","","","","","","null","","","fallScene","","","","","","","","","","","","false","61.97520699999962","322.3","308.07114317029976","253.89","2","2","","",""
"","","","","","html-keyboard-response","20","143474","0.0-9.0-1.1","62c97585c81636f2f16fbbb0","64d3ef96556dbe1f0e02b5aa","64db8191c4b5aba85647b20a","","","","","","","","","","","","","","","","","","","","","","","","313.0024256440932","245.9902986469638","4316.600000008941","","","","","","","","","","","","",""
"","","","","","html-keyboard-response","20","143474","0.0-9.0-1.1","62c97585c81636f2f16fbbb0","64d3ef96556dbe1f0e02b5aa","64db8191c4b5aba85647b20a","","","","","","","","","","","","","","","","","","reconstruct","","","","","","313.0024256440932","245.9902986469638","4316.600000008941","","","","","","","","","","2","2","375","350"
"","","","","","html-keyboard-response","21","146484","0.0-9.0-0.2","62c97585c81636f2f16fbbb0","64d3ef96556dbe1f0e02b5aa","64db8191c4b5aba85647b20a","","null","","","","","","","","","","","","","null","","","fallScene","","","","","","","","","","","","true","61.962214000000294","322.3","308.07114317029976","253.89","2","3","","",""
"","","","","","html-keyboard-response","22","150962","0.0-9.0-1.2","62c97585c81636f2f16fbbb0","64d3ef96556dbe1f0e02b5aa","64db8191c4b5aba85647b20a","","","","","","","","","","","","","","","","","","","","","","","","650.9999000145435","266.99000049986705","4476.4000000059605","","","","","","","","","","","","",""
"","","","","","html-keyboard-response","22","150962","0.0-9.0-1.2","62c97585c81636f2f16fbbb0","64d3ef96556dbe1f0e02b5aa","64db8191c4b5aba85647b20a","","","","","","","","","","","","","","","","","","reconstruct","","","","","","650.9999000145435","266.99000049986705","4476.4000000059605","","","","","","","","","","3","6","625","350"
"","","","","","html-keyboard-response","23","153965","0.0-9.0-0.3","62c97585c81636f2f16fbbb0","64d3ef96556dbe1f0e02b5aa","64db8191c4b5aba85647b20a","","null","","","","","","","","","","","","","null","","","fallScene","","","","","","","","","","","","false","61.96477599999949","322.3","296.07114317029976","371.46","3","4","","",""
"","","","","","html-keyboard-response","24","157381","0.0-9.0-1.3","62c97585c81636f2f16fbbb0","64d3ef96556dbe1f0e02b5aa","64db8191c4b5aba85647b20a","","","","","","","","","","","","","","","","","","","","","","","","326.99956543701205","315.99000944671155","3415.7000000029802","","","","","","","","","","","","",""
"","","","","","html-keyboard-response","24","157381","0.0-9.0-1.3","62c97585c81636f2f16fbbb0","64d3ef96556dbe1f0e02b5aa","64db8191c4b5aba85647b20a","","","","","","","","","","","","","","","","","","reconstruct","","","","","","326.99956543701205","315.99000944671155","3415.7000000029802","","","","","","","","","","4","1","375","250"
"","","","","","html-keyboard-response","25","160386","0.0-9.0-0.4","62c97585c81636f2f16fbbb0","64d3ef96556dbe1f0e02b5aa","64db8191c4b5aba85647b20a","","null","","","","","","","","","","","","","null","","","fallScene","","","","","","","","","","","","true","61.96538600000006","500","479.92114317029973","330.87","6","5","","",""
"","","","","","html-keyboard-response","26","163352","0.0-9.0-1.4","62c97585c81636f2f16fbbb0","64d3ef96556dbe1f0e02b5aa","64db8191c4b5aba85647b20a","","","","","","","","","","","","","","","","","","","","","","","","487.00009600484003","297.99000046085706","2965.1000000089407","","","","","","","","","","","","",""
"","","","","","html-keyboard-response","26","163352","0.0-9.0-1.4","62c97585c81636f2f16fbbb0","64d3ef96556dbe1f0e02b5aa","64db8191c4b5aba85647b20a","","","","","","","","","","","","","","","","","","reconstruct","","","","","","487.00009600484003","297.99000046085706","2965.1000000089407","","","","","","","","","","5","6","625","350"
"","","","","","html-keyboard-response","27","166355","0.0-9.0-0.5","62c97585c81636f2f16fbbb0","64d3ef96556dbe1f0e02b5aa","64db8191c4b5aba85647b20a","","null","","","","","","","","","","","","","null","","","fallScene","","","","","","","","","","","","true","61.96288500000021","604.4000000000001","575.4211431702997","266.76","12","6","","",""
"","","","","","html-keyboard-response","28","169400","0.0-9.0-1.5","62c97585c81636f2f16fbbb0","64d3ef96556dbe1f0e02b5aa","64db8191c4b5aba85647b20a","","","","","","","","","","","","","","","","","","","","","","","","400.0097530679693","297.9977914563201","3043.5","","","","","","","","","","","","",""
"","","","","","html-keyboard-response","28","169400","0.0-9.0-1.5","62c97585c81636f2f16fbbb0","64d3ef96556dbe1f0e02b5aa","64db8191c4b5aba85647b20a","","","","","","","","","","","","","","","","","","reconstruct","","","","","","400.0097530679693","297.9977914563201","3043.5","","","","","","","","","","6","4","500","350"
"","","","","","html-keyboard-response","29","172417","0.0-9.0-0.6","62c97585c81636f2f16fbbb0","64d3ef96556dbe1f0e02b5aa","64db8191c4b5aba85647b20a","","null","","","","","","","","","","","","","null","","","fallScene","","","","","","","","","","","","false","61.98014799999996","500","510.8711431702997","369.03","8","7","","",""
"","","","","","html-keyboard-response","30","176104","0.0-9.0-1.6","62c97585c81636f2f16fbbb0","64d3ef96556dbe1f0e02b5aa","64db8191c4b5aba85647b20a","","","","","","","","","","","","","","","","","","","","","","","","491.99","249","3686","","","","","","","","","","","","",""
"","","","","","html-keyboard-response","30","176104","0.0-9.0-1.6","62c97585c81636f2f16fbbb0","64d3ef96556dbe1f0e02b5aa","64db8191c4b5aba85647b20a","","","","","","","","","","","","","","","","","","reconstruct","","","","","","491.99","249","3686","","","","","","","","","","7","1","375","250"
"","","","","","html-keyboard-response","31","179110","0.0-9.0-0.7","62c97585c81636f2f16fbbb0","64d3ef96556dbe1f0e02b5aa","64db8191c4b5aba85647b20a","","null","","","","","","","","","","","","","null","","","fallScene","","","","","","","","","","","","true","61.96331200000096","604.4000000000001","575.4211431702997","266.76","12","8","","",""
"","","","","","html-keyboard-response","32","182216","0.0-9.0-1.7","62c97585c81636f2f16fbbb0","64d3ef96556dbe1f0e02b5aa","64db8191c4b5aba85647b20a","","","","","","","","","","","","","","","","","","","","","","","","363.0099999999832","238.99999942073748","3104.5999999940395","","","","","","","","","","","","",""
"","","","","","html-keyboard-response","32","182216","0.0-9.0-1.7","62c97585c81636f2f16fbbb0","64d3ef96556dbe1f0e02b5aa","64db8191c4b5aba85647b20a","","","","","","","","","","","","","","","","","","reconstruct","","","","","","363.0099999999832","238.99999942073748","3104.5999999940395","","","","","","","","","","8","2","375","350"
"","","","","","html-keyboard-response","33","185222","0.0-9.0-0.8","62c97585c81636f2f16fbbb0","64d3ef96556dbe1f0e02b5aa","64db8191c4b5aba85647b20a","","null","","","","","","","","","","","","","null","","","fallScene","","","","","","","","","","","","false","61.96117699999897","322.3","296.07114317029976","371.46","3","9","","",""
"","","","","","html-keyboard-response","34","187995","0.0-9.0-1.8","62c97585c81636f2f16fbbb0","64d3ef96556dbe1f0e02b5aa","64db8191c4b5aba85647b20a","","","","","","","","","","","","","","","","","","","","","","","","335.007666174946","266.0064210405463","2771.800000011921","","","","","","","","","","","","",""
"","","","","","html-keyboard-response","34","187995","0.0-9.0-1.8","62c97585c81636f2f16fbbb0","64d3ef96556dbe1f0e02b5aa","64db8191c4b5aba85647b20a","","","","","","","","","","","","","","","","","","reconstruct","","","","","","335.007666174946","266.0064210405463","2771.800000011921","","","","","","","","","","9","4","500","350"
"","","","","","html-keyboard-response","35","191001","0.0-9.0-0.9","62c97585c81636f2f16fbbb0","64d3ef96556dbe1f0e02b5aa","64db8191c4b5aba85647b20a","","null","","","","","","","","","","","","","null","","","fallScene","","","","","","","","","","","","false","61.970082999999455","500","453.67114317029973","210.33","5","10","","",""
"","","","","","html-keyboard-response","36","195163","0.0-9.0-1.9","62c97585c81636f2f16fbbb0","64d3ef96556dbe1f0e02b5aa","64db8191c4b5aba85647b20a","","","","","","","","","","","","","","","","","","","","","","","","498.0062912993381","268.0093870413855","4161","","","","","","","","","","","","",""
"","","","","","html-keyboard-response","36","195163","0.0-9.0-1.9","62c97585c81636f2f16fbbb0","64d3ef96556dbe1f0e02b5aa","64db8191c4b5aba85647b20a","","","","","","","","","","","","","","","","","","reconstruct","","","","","","498.0062912993381","268.0093870413855","4161","","","","","","","","","","10","4","500","350"
"","","","","","html-keyboard-response","37","198168","0.0-9.0-0.10","62c97585c81636f2f16fbbb0","64d3ef96556dbe1f0e02b5aa","64db8191c4b5aba85647b20a","","null","","","","","","","","","","","","","null","","","fallScene","","","","","","","","","","","","true","61.97593900000066","604.4000000000001","667.6211431702998","201.78","9","11","","",""
"","","","","","html-keyboard-response","38","202010","0.0-9.0-1.10","62c97585c81636f2f16fbbb0","64d3ef96556dbe1f0e02b5aa","64db8191c4b5aba85647b20a","","","","","","","","","","","","","","","","","","","","","","","","358.00718353958325","251.006956777922","3840.7000000029802","","","","","","","","","","","","",""
"","","","","","html-keyboard-response","38","202010","0.0-9.0-1.10","62c97585c81636f2f16fbbb0","64d3ef96556dbe1f0e02b5aa","64db8191c4b5aba85647b20a","","","","","","","","","","","","","","","","","","reconstruct","","","","","","358.00718353958325","251.006956777922","3840.7000000029802","","","","","","","","","","11","4","500","350"
"","","","","","html-keyboard-response","39","205024","0.0-9.0-0.11","62c97585c81636f2f16fbbb0","64d3ef96556dbe1f0e02b5aa","64db8191c4b5aba85647b20a","","null","","","","","","","","","","","","","null","","","fallScene","","","","","","","","","","","","false","61.96935099999842","500","453.67114317029973","210.33","5","12","","",""
"","","","","","html-keyboard-response","40","208856","0.0-9.0-1.11","62c97585c81636f2f16fbbb0","64d3ef96556dbe1f0e02b5aa","64db8191c4b5aba85647b20a","","","","","","","","","","","","","","","","","","","","","","","","480.9999999892911","273.01","3831.2000000029802","","","","","","","","","","","","",""
"","","","","","html-keyboard-response","40","208856","0.0-9.0-1.11","62c97585c81636f2f16fbbb0","64d3ef96556dbe1f0e02b5aa","64db8191c4b5aba85647b20a","","","","","","","","","","","","","","","","","","reconstruct","","","","","","480.9999999892911","273.01","3831.2000000029802","","","","","","","","","","12","1","375","250"
"","","","","","html-keyboard-response","41","211862","0.0-9.0-0.12","62c97585c81636f2f16fbbb0","64d3ef96556dbe1f0e02b5aa","64db8191c4b5aba85647b20a","","null","","","","","","","","","","","","","null","","","fallScene","","","","","","","","","","","","false","61.954894000000586","322.3","379.3711431702997","245.25","1","13","","",""
"","","","","","html-keyboard-response","42","215260","0.0-9.0-1.12","62c97585c81636f2f16fbbb0","64d3ef96556dbe1f0e02b5aa","64db8191c4b5aba85647b20a","","","","","","","","","","","","","","","","","","","","","","","","353.00448474789675","234.99106204518347","3397.5","","","","","","","","","","","","",""
"","","","","","html-keyboard-response","42","215260","0.0-9.0-1.12","62c97585c81636f2f16fbbb0","64d3ef96556dbe1f0e02b5aa","64db8191c4b5aba85647b20a","","","","","","","","","","","","","","","","","","reconstruct","","","","","","353.00448474789675","234.99106204518347","3397.5","","","","","","","","","","13","5","625","250"
"","","","","","html-keyboard-response","43","218263","0.0-9.0-0.13","62c97585c81636f2f16fbbb0","64d3ef96556dbe1f0e02b5aa","64db8191c4b5aba85647b20a","","null","","","","","","","","","","","","","null","","","fallScene","","","","","","","","","","","","true","61.96386100000042","604.4000000000001","650.0211431702996","404.58000000000004","11","14","","",""
"","","","","","html-keyboard-response","44","221396","0.0-9.0-1.13","62c97585c81636f2f16fbbb0","64d3ef96556dbe1f0e02b5aa","64db8191c4b5aba85647b20a","","","","","","","","","","","","","","","","","","","","","","","","395.000188918616","331.00999821532855","3131.3999999910593","","","","","","","","","","","","",""
"","","","","","html-keyboard-response","44","221396","0.0-9.0-1.13","62c97585c81636f2f16fbbb0","64d3ef96556dbe1f0e02b5aa","64db8191c4b5aba85647b20a","","","","","","","","","","","","","","","","","","reconstruct","","","","","","395.000188918616","331.00999821532855","3131.3999999910593","","","","","","","","","","14","2","375","350"
"","","","","","html-keyboard-response","45","224408","0.0-9.0-0.14","62c97585c81636f2f16fbbb0","64d3ef96556dbe1f0e02b5aa","64db8191c4b5aba85647b20a","","null","","","","","","","","","","","","","null","","","fallScene","","","","","","","","","","","","true","61.980696999999395","604.4000000000001","650.0211431702996","404.58000000000004","11","15","","",""
"","","","","","html-keyboard-response","46","226678","0.0-9.0-1.14","62c97585c81636f2f16fbbb0","64d3ef96556dbe1f0e02b5aa","64db8191c4b5aba85647b20a","","","","","","","","","","","","","","","","","","","","","","","","381.99679165039043","342.0094713511593","2269.5999999940395","","","","","","","","","","","","",""
"","","","","","html-keyboard-response","46","226678","0.0-9.0-1.14","62c97585c81636f2f16fbbb0","64d3ef96556dbe1f0e02b5aa","64db8191c4b5aba85647b20a","","","","","","","","","","","","","","","","","","reconstruct","","","","","","381.99679165039043","342.0094713511593","2269.5999999940395","","","","","","","","","","15","4","500","350"
"","","","","","html-keyboard-response","47","229685","0.0-9.0-0.15","62c97585c81636f2f16fbbb0","64d3ef96556dbe1f0e02b5aa","64db8191c4b5aba85647b20a","","null","","","","","","","","","","","","","null","","","fallScene","","","","","","","","","","","","true","61.95037999999922","322.3","356.42114317029973","357.87","4","16","","",""
"","","","","","html-keyboard-response","48","232342","0.0-9.0-1.15","62c97585c81636f2f16fbbb0","64d3ef96556dbe1f0e02b5aa","64db8191c4b5aba85647b20a","","","","","","","","","","","","","","","","","","","","","","","","675.9900000000036","324.0000002697271","2655.6000000089407","","","","","","","","","","","","",""
"","","","","","html-keyboard-response","48","232342","0.0-9.0-1.15","62c97585c81636f2f16fbbb0","64d3ef96556dbe1f0e02b5aa","64db8191c4b5aba85647b20a","","","","","","","","","","","","","","","","","","reconstruct","","","","","","675.9900000000036","324.0000002697271","2655.6000000089407","","","","","","","","","","16","3","500","250"
"","","","","","html-keyboard-response","49","235347","0.0-9.0-0.16","62c97585c81636f2f16fbbb0","64d3ef96556dbe1f0e02b5aa","64db8191c4b5aba85647b20a","","null","","","","","","","","","","","","","null","","","fallScene","","","","","","","","","","","","true","61.951051000000916","322.3","379.3711431702997","245.25","1","17","","",""
"","","","","","html-keyboard-response","50","238917","0.0-9.0-1.16","62c97585c81636f2f16fbbb0","64d3ef96556dbe1f0e02b5aa","64db8191c4b5aba85647b20a","","","","","","","","","","","","","","","","","","","","","","","","680.990000244065","291.0000698658667","3570","","","","","","","","","","","","",""
"","","","","","html-keyboard-response","50","238917","0.0-9.0-1.16","62c97585c81636f2f16fbbb0","64d3ef96556dbe1f0e02b5aa","64db8191c4b5aba85647b20a","","","","","","","","","","","","","","","","","","reconstruct","","","","","","680.990000244065","291.0000698658667","3570","","","","","","","","","","17","2","375","350"
"","","","","","html-keyboard-response","51","241927","0.0-9.0-0.17","62c97585c81636f2f16fbbb0","64d3ef96556dbe1f0e02b5aa","64db8191c4b5aba85647b20a","","null","","","","","","","","","","","","","null","","","fallScene","","","","","","","","","","","","false","61.965934999999504","500","479.92114317029973","330.87","6","18","","",""
"","","","","","html-keyboard-response","52","245597","0.0-9.0-1.17","62c97585c81636f2f16fbbb0","64d3ef96556dbe1f0e02b5aa","64db8191c4b5aba85647b20a","","","","","","","","","","","","","","","","","","","","","","","","500.99605507451264","249.00918899139728","3670.1000000089407","","","","","","","","","","","","",""
"","","","","","html-keyboard-response","52","245597","0.0-9.0-1.17","62c97585c81636f2f16fbbb0","64d3ef96556dbe1f0e02b5aa","64db8191c4b5aba85647b20a","","","","","","","","","","","","","","","","","","reconstruct","","","","","","500.99605507451264","249.00918899139728","3670.1000000089407","","","","","","","","","","18","3","500","250"
"","","","","","html-button-response","53","276015","0.0-10.0","62c97585c81636f2f16fbbb0","64d3ef96556dbe1f0e02b5aa","64db8191c4b5aba85647b20a","","30414","","","","","","","","","","","","","0","","","","<p><span style = ""font-size:40px;"">BREAK</span></p><p>You are doing great! Click 'Next' when you are ready for the next set.</p>","","","","","","","","","","","","","","","","","","","",""
"","","","","","html-keyboard-response","54","279024","0.0-11.0-0.0","62c97585c81636f2f16fbbb0","64d3ef96556dbe1f0e02b5aa","64db8191c4b5aba85647b20a","","null","","","","","","","","","","","","","null","","","fallScene","","","","","","","","","","","","true","61.96038399999859","322.3","296.07114317029976","371.46","3","19","","",""
"","","","","","html-keyboard-response","55","283865","0.0-11.0-1.0","62c97585c81636f2f16fbbb0","64d3ef96556dbe1f0e02b5aa","64db8191c4b5aba85647b20a","","","","","","","","","","","","","","","","","","","","","","","","662.99","276","4840.29999999702","","","","","","","","","","","","",""
"","","","","","html-keyboard-response","55","283865","0.0-11.0-1.0","62c97585c81636f2f16fbbb0","64d3ef96556dbe1f0e02b5aa","64db8191c4b5aba85647b20a","","","","","","","","","","","","","","","","","","reconstruct","","","","","","662.99","276","4840.29999999702","","","","","","","","","","19","6","625","350"
"","","","","","html-keyboard-response","56","286871","0.0-11.0-0.1","62c97585c81636f2f16fbbb0","64d3ef96556dbe1f0e02b5aa","64db8191c4b5aba85647b20a","","null","","","","","","","","","","","","","null","","","fallScene","","","","","","","","","","","","false","61.96520299999847","604.4000000000001","596.8711431702998","394.5","10","20","","",""
"","","","","","html-keyboard-response","57","291788","0.0-11.0-1.1","62c97585c81636f2f16fbbb0","64d3ef96556dbe1f0e02b5aa","64db8191c4b5aba85647b20a","","","","","","","","","","","","","","","","","","","","","","","","621.9999315729036","287.014138189034","4916.5","","","","","","","","","","","","",""
"","","","","","html-keyboard-response","57","291788","0.0-11.0-1.1","62c97585c81636f2f16fbbb0","64d3ef96556dbe1f0e02b5aa","64db8191c4b5aba85647b20a","","","","","","","","","","","","","","","","","","reconstruct","","","","","","621.9999315729036","287.014138189034","4916.5","","","","","","","","","","20","6","625","350"
"","","","","","html-keyboard-response","58","295171","0.0-11.0-0.2","62c97585c81636f2f16fbbb0","64d3ef96556dbe1f0e02b5aa","64db8191c4b5aba85647b20a","","null","","","","","","","","","","","","","null","","","fallScene","","","","","","","","","","","","true","61.962031000000486","604.4000000000001","575.4211431702997","266.76","12","21","","",""
"","","","","","html-keyboard-response","59","298446","0.0-11.0-1.2","62c97585c81636f2f16fbbb0","64d3ef96556dbe1f0e02b5aa","64db8191c4b5aba85647b20a","","","","","","","","","","","","","","","","","","","","","","","","394.0000999562381","247.99000049957496","3272.9000000059605","","","","","","","","","","","","",""
"","","","","","html-keyboard-response","59","298446","0.0-11.0-1.2","62c97585c81636f2f16fbbb0","64d3ef96556dbe1f0e02b5aa","64db8191c4b5aba85647b20a","","","","","","","","","","","","","","","","","","reconstruct","","","","","","394.0000999562381","247.99000049957496","3272.9000000059605","","","","","","","","","","21","3","500","250"
"","","","","","html-keyboard-response","60","301450","0.0-11.0-0.3","62c97585c81636f2f16fbbb0","64d3ef96556dbe1f0e02b5aa","64db8191c4b5aba85647b20a","","null","","","","","","","","","","","","","null","","","fallScene","","","","","","","","","","","","false","61.96489799999818","604.4000000000001","596.8711431702998","394.5","10","22","","",""
"","","","","","html-keyboard-response","61","304249","0.0-11.0-1.3","62c97585c81636f2f16fbbb0","64d3ef96556dbe1f0e02b5aa","64db8191c4b5aba85647b20a","","","","","","","","","","","","","","","","","","","","","","","","616.0089264372006","243.00450762896705","2797.3999999910593","","","","","","","","","","","","",""
"","","","","","html-keyboard-response","61","304249","0.0-11.0-1.3","62c97585c81636f2f16fbbb0","64d3ef96556dbe1f0e02b5aa","64db8191c4b5aba85647b20a","","","","","","","","","","","","","","","","","","reconstruct","","","","","","616.0089264372006","243.00450762896705","2797.3999999910593","","","","","","","","","","22","5","625","250"
"","","","","","html-keyboard-response","62","307252","0.0-11.0-0.4","62c97585c81636f2f16fbbb0","64d3ef96556dbe1f0e02b5aa","64db8191c4b5aba85647b20a","","null","","","","","","","","","","","","","null","","","fallScene","","","","","","","","","","","","true","61.96599600000062","500","553.4711431702997","282.51","7","23","","",""
"","","","","","html-keyboard-response","63","310440","0.0-11.0-1.4","62c97585c81636f2f16fbbb0","64d3ef96556dbe1f0e02b5aa","64db8191c4b5aba85647b20a","","","","","","","","","","","","","","","","","","","","","","","","496.9909686205785","270.00429350506516","3187.9000000059605","","","","","","","","","","","","",""
"","","","","","html-keyboard-response","63","310441","0.0-11.0-1.4","62c97585c81636f2f16fbbb0","64d3ef96556dbe1f0e02b5aa","64db8191c4b5aba85647b20a","","","","","","","","","","","","","","","","","","reconstruct","","","","","","496.9909686205785","270.00429350506516","3187.9000000059605","","","","","","","","","","23","1","375","250"
"","","","","","html-keyboard-response","64","313447","0.0-11.0-0.5","62c97585c81636f2f16fbbb0","64d3ef96556dbe1f0e02b5aa","64db8191c4b5aba85647b20a","","null","","","","","","","","","","","","","null","","","fallScene","","","","","","","","","","","","false","61.96562999999744","604.4000000000001","575.4211431702997","266.76","12","24","","",""
"","","","","","html-keyboard-response","65","316449","0.0-11.0-1.5","62c97585c81636f2f16fbbb0","64d3ef96556dbe1f0e02b5aa","64db8191c4b5aba85647b20a","","","","","","","","","","","","","","","","","","","","","","","","605.0089404375647","244.004479796441","3001.2000000029802","","","","","","","","","","","","",""
"","","","","","html-keyboard-response","65","316449","0.0-11.0-1.5","62c97585c81636f2f16fbbb0","64d3ef96556dbe1f0e02b5aa","64db8191c4b5aba85647b20a","","","","","","","","","","","","","","","","","","reconstruct","","","","","","605.0089404375647","244.004479796441","3001.2000000029802","","","","","","","","","","24","5","625","250"
"","","","","","html-keyboard-response","66","319456","0.0-11.0-0.6","62c97585c81636f2f16fbbb0","64d3ef96556dbe1f0e02b5aa","64db8191c4b5aba85647b20a","","null","","","","","","","","","","","","","null","","","fallScene","","","","","","","","","","","","true","61.96880199999898","322.3","296.07114317029976","371.46","3","25","","",""
"","","","","","html-keyboard-response","67","323940","0.0-11.0-1.6","62c97585c81636f2f16fbbb0","64d3ef96556dbe1f0e02b5aa","64db8191c4b5aba85647b20a","","","","","","","","","","","","","","","","","","","","","","","","680.993949007544","266.00796150050536","4484.0999999940395","","","","","","","","","","","","",""
"","","","","","html-keyboard-response","67","323941","0.0-11.0-1.6","62c97585c81636f2f16fbbb0","64d3ef96556dbe1f0e02b5aa","64db8191c4b5aba85647b20a","","","","","","","","","","","","","","","","","","reconstruct","","","","","","680.993949007544","266.00796150050536","4484.0999999940395","","","","","","","","","","25","2","375","350"
"","","","","","html-keyboard-response","68","326952","0.0-11.0-0.7","62c97585c81636f2f16fbbb0","64d3ef96556dbe1f0e02b5aa","64db8191c4b5aba85647b20a","","null","","","","","","","","","","","","","null","","","fallScene","","","","","","","","","","","","true","61.96538600000006","500","453.67114317029973","210.33","5","26","","",""
"","","","","","html-keyboard-response","69","330793","0.0-11.0-1.7","62c97585c81636f2f16fbbb0","64d3ef96556dbe1f0e02b5aa","64db8191c4b5aba85647b20a","","","","","","","","","","","","","","","","","","","","","","","","498.99990643063285","233.0099995622291","3839.6000000089407","","","","","","","","","","","","",""
"","","","","","html-keyboard-response","69","330793","0.0-11.0-1.7","62c97585c81636f2f16fbbb0","64d3ef96556dbe1f0e02b5aa","64db8191c4b5aba85647b20a","","","","","","","","","","","","","","","","","","reconstruct","","","","","","498.99990643063285","233.0099995622291","3839.6000000089407","","","","","","","","","","26","6","625","350"
"","","","","","html-keyboard-response","70","333797","0.0-11.0-0.8","62c97585c81636f2f16fbbb0","64d3ef96556dbe1f0e02b5aa","64db8191c4b5aba85647b20a","","null","","","","","","","","","","","","","null","","","fallScene","","","","","","","","","","","","false","61.96544699999941","500","479.92114317029973","330.87","6","27","","",""
"","","","","","html-keyboard-response","71","336576","0.0-11.0-1.8","62c97585c81636f2f16fbbb0","64d3ef96556dbe1f0e02b5aa","64db8191c4b5aba85647b20a","","","","","","","","","","","","","","","","","","","","","","","","515.9900000018532","244.00000608812934","2778.7999999970198","","","","","","","","","","","","",""
"","","","","","html-keyboard-response","71","336576","0.0-11.0-1.8","62c97585c81636f2f16fbbb0","64d3ef96556dbe1f0e02b5aa","64db8191c4b5aba85647b20a","","","","","","","","","","","","","","","","","","reconstruct","","","","","","515.9900000018532","244.00000608812934","2778.7999999970198","","","","","","","","","","27","4","500","350"
"","","","","","html-keyboard-response","72","339589","0.0-11.0-0.9","62c97585c81636f2f16fbbb0","64d3ef96556dbe1f0e02b5aa","64db8191c4b5aba85647b20a","","null","","","","","","","","","","","","","null","","","fallScene","","","","","","","","","","","","false","61.9655689999981","604.4000000000001","667.6211431702998","201.78","9","28","","",""
"","","","","","html-keyboard-response","73","343191","0.0-11.0-1.9","62c97585c81636f2f16fbbb0","64d3ef96556dbe1f0e02b5aa","64db8191c4b5aba85647b20a","","","","","","","","","","","","","","","","","","","","","","","","604.9970121622545","241.99045679165027","3602.2999999970198","","","","","","","","","","","","",""
"","","","","","html-keyboard-response","73","343191","0.0-11.0-1.9","62c97585c81636f2f16fbbb0","64d3ef96556dbe1f0e02b5aa","64db8191c4b5aba85647b20a","","","","","","","","","","","","","","","","","","reconstruct","","","","","","604.9970121622545","241.99045679165027","3602.2999999970198","","","","","","","","","","28","1","375","250"
"","","","","","html-keyboard-response","74","346203","0.0-11.0-0.10","62c97585c81636f2f16fbbb0","64d3ef96556dbe1f0e02b5aa","64db8191c4b5aba85647b20a","","null","","","","","","","","","","","","","null","","","fallScene","","","","","","","","","","","","false","61.96593499999773","604.4000000000001","575.4211431702997","266.76","12","29","","",""
"","","","","","html-keyboard-response","75","349442","0.0-11.0-1.10","62c97585c81636f2f16fbbb0","64d3ef96556dbe1f0e02b5aa","64db8191c4b5aba85647b20a","","","","","","","","","","","","","","","","","","","","","","","","614.0069112680143","249.99277266477637","3238.4000000059605","","","","","","","","","","","","",""
"","","","","","html-keyboard-response","75","349442","0.0-11.0-1.10","62c97585c81636f2f16fbbb0","64d3ef96556dbe1f0e02b5aa","64db8191c4b5aba85647b20a","","","","","","","","","","","","","","","","","","reconstruct","","","","","","614.0069112680143","249.99277266477637","3238.4000000059605","","","","","","","","","","29","1","375","250"
"","","","","","html-keyboard-response","76","352448","0.0-11.0-0.11","62c97585c81636f2f16fbbb0","64d3ef96556dbe1f0e02b5aa","64db8191c4b5aba85647b20a","","null","","","","","","","","","","","","","null","","","fallScene","","","","","","","","","","","","false","61.96514199999912","322.3","356.42114317029973","357.87","4","30","","",""
"","","","","","html-keyboard-response","77","355865","0.0-11.0-1.11","62c97585c81636f2f16fbbb0","64d3ef96556dbe1f0e02b5aa","64db8191c4b5aba85647b20a","","","","","","","","","","","","","","","","","","","","","","","","339.00999999999885","324.99999984859113","3415.9000000059605","","","","","","","","","","","","",""
"","","","","","html-keyboard-response","77","355865","0.0-11.0-1.11","62c97585c81636f2f16fbbb0","64d3ef96556dbe1f0e02b5aa","64db8191c4b5aba85647b20a","","","","","","","","","","","","","","","","","","reconstruct","","","","","","339.00999999999885","324.99999984859113","3415.9000000059605","","","","","","","","","","30","5","625","250"
"","","","","","html-keyboard-response","78","358877","0.0-11.0-0.12","62c97585c81636f2f16fbbb0","64d3ef96556dbe1f0e02b5aa","64db8191c4b5aba85647b20a","","null","","","","","","","","","","","","","null","","","fallScene","","","","","","","","","","","","false","61.9665449999983","604.4000000000001","650.0211431702996","404.58000000000004","11","31","","",""
"","","","","","html-keyboard-response","79","361312","0.0-11.0-1.12","62c97585c81636f2f16fbbb0","64d3ef96556dbe1f0e02b5aa","64db8191c4b5aba85647b20a","","","","","","","","","","","","","","","","","","","","","","","","621.0099871584815","268.9994933783817","2434.2000000029802","","","","","","","","","","","","",""
"","","","","","html-keyboard-response","79","361312","0.0-11.0-1.12","62c97585c81636f2f16fbbb0","64d3ef96556dbe1f0e02b5aa","64db8191c4b5aba85647b20a","","","","","","","","","","","","","","","","","","reconstruct","","","","","","621.0099871584815","268.9994933783817","2434.2000000029802","","","","","","","","","","31","5","625","250"
"","","","","","html-keyboard-response","80","364322","0.0-11.0-0.13","62c97585c81636f2f16fbbb0","64d3ef96556dbe1f0e02b5aa","64db8191c4b5aba85647b20a","","null","","","","","","","","","","","","","null","","","fallScene","","","","","","","","","","","","true","61.96550799999875","500","479.92114317029973","330.87","6","32","","",""
"","","","","","html-keyboard-response","81","367385","0.0-11.0-1.13","62c97585c81636f2f16fbbb0","64d3ef96556dbe1f0e02b5aa","64db8191c4b5aba85647b20a","","","","","","","","","","","","","","","","","","","","","","","","511.98999999999995","240","3061.7000000029802","","","","","","","","","","","","",""
"","","","","","html-keyboard-response","81","367385","0.0-11.0-1.13","62c97585c81636f2f16fbbb0","64d3ef96556dbe1f0e02b5aa","64db8191c4b5aba85647b20a","","","","","","","","","","","","","","","","","","reconstruct","","","","","","511.98999999999995","240","3061.7000000029802","","","","","","","","","","32","5","625","250"
"","","","","","html-keyboard-response","82","370399","0.0-11.0-0.14","62c97585c81636f2f16fbbb0","64d3ef96556dbe1f0e02b5aa","64db8191c4b5aba85647b20a","","null","","","","","","","","","","","","","null","","","fallScene","","","","","","","","","","","","false","61.963860999998644","604.4000000000001","596.8711431702998","394.5","10","33","","",""
"","","","","","html-keyboard-response","83","373275","0.0-11.0-1.14","62c97585c81636f2f16fbbb0","64d3ef96556dbe1f0e02b5aa","64db8191c4b5aba85647b20a","","","","","","","","","","","","","","","","","","","","","","","","602.99","250.99999999999997","2875.199999988079","","","","","","","","","","","","",""
"","","","","","html-keyboard-response","83","373275","0.0-11.0-1.14","62c97585c81636f2f16fbbb0","64d3ef96556dbe1f0e02b5aa","64db8191c4b5aba85647b20a","","","","","","","","","","","","","","","","","","reconstruct","","","","","","602.99","250.99999999999997","2875.199999988079","","","","","","","","","","33","3","500","250"
"","","","","","html-keyboard-response","84","376280","0.0-11.0-0.15","62c97585c81636f2f16fbbb0","64d3ef96556dbe1f0e02b5aa","64db8191c4b5aba85647b20a","","null","","","","","","","","","","","","","null","","","fallScene","","","","","","","","","","","","false","61.96325099999807","604.4000000000001","650.0211431702996","404.58000000000004","11","34","","",""
"","","","","","html-keyboard-response","85","378947","0.0-11.0-1.15","62c97585c81636f2f16fbbb0","64d3ef96556dbe1f0e02b5aa","64db8191c4b5aba85647b20a","","","","","","","","","","","","","","","","","","","","","","","","607.01","272.00000000538773","2667.0999999940395","","","","","","","","","","","","",""
"","","","","","html-keyboard-response","85","378947","0.0-11.0-1.15","62c97585c81636f2f16fbbb0","64d3ef96556dbe1f0e02b5aa","64db8191c4b5aba85647b20a","","","","","","","","","","","","","","","","","","reconstruct","","","","","","607.01","272.00000000538773","2667.0999999940395","","","","","","","","","","34","6","625","350"
"","","","","","html-keyboard-response","86","381958","0.0-11.0-0.16","62c97585c81636f2f16fbbb0","64d3ef96556dbe1f0e02b5aa","64db8191c4b5aba85647b20a","","null","","","","","","","","","","","","","null","","","fallScene","","","","","","","","","","","","true","61.97154700000153","604.4000000000001","667.6211431702998","201.78","9","35","","",""
"","","","","","html-keyboard-response","87","385751","0.0-11.0-1.16","62c97585c81636f2f16fbbb0","64d3ef96556dbe1f0e02b5aa","64db8191c4b5aba85647b20a","","","","","","","","","","","","","","","","","","","","","","","","398.99","271.00000001444226","3792.5","","","","","","","","","","","","",""
"","","","","","html-keyboard-response","87","385751","0.0-11.0-1.16","62c97585c81636f2f16fbbb0","64d3ef96556dbe1f0e02b5aa","64db8191c4b5aba85647b20a","","","","","","","","","","","","","","","","","","reconstruct","","","","","","398.99","271.00000001444226","3792.5","","","","","","","","","","35","5","625","250"
"","","","","","html-keyboard-response","88","388755","0.0-11.0-0.17","62c97585c81636f2f16fbbb0","64d3ef96556dbe1f0e02b5aa","64db8191c4b5aba85647b20a","","null","","","","","","","","","","","","","null","","","fallScene","","","","","","","","","","","","true","61.96617899999867","500","510.8711431702997","369.03","8","36","","",""
"","","","","","html-keyboard-response","89","391064","0.0-11.0-1.17","62c97585c81636f2f16fbbb0","64d3ef96556dbe1f0e02b5aa","64db8191c4b5aba85647b20a","","","","","","","","","","","","","","","","","","","","","","","","500","261.99","2307.7999999970198","","","","","","","","","","","","",""
"","","","","","html-keyboard-response","89","391064","0.0-11.0-1.17","62c97585c81636f2f16fbbb0","64d3ef96556dbe1f0e02b5aa","64db8191c4b5aba85647b20a","","","","","","","","","","","","","","","","","","reconstruct","","","","","","500","261.99","2307.7999999970198","","","","","","","","","","36","3","500","250"
"","","","","","html-button-response","90","395965","0.0-12.0","62c97585c81636f2f16fbbb0","64d3ef96556dbe1f0e02b5aa","64db8191c4b5aba85647b20a","","4898","","","","","","","","","","","","","0","","","","<p><span style = ""font-size:40px;"">BREAK</span></p><p>You are halfway done! Click 'Next' when you are ready for the next set.</p>","","","","","","","","","","","","","","","","","","","",""
"","","","","","html-keyboard-response","91","398976","0.0-13.0-0.0","62c97585c81636f2f16fbbb0","64d3ef96556dbe1f0e02b5aa","64db8191c4b5aba85647b20a","","null","","","","","","","","","","","","","null","","","fallScene","","","","","","","","","","","","false","61.96691100000148","500","553.4711431702997","282.51","7","37","","",""
"","","","","","html-keyboard-response","92","401684","0.0-13.0-1.0","62c97585c81636f2f16fbbb0","64d3ef96556dbe1f0e02b5aa","64db8191c4b5aba85647b20a","","","","","","","","","","","","","","","","","","","","","","","","479.01","250","2707.7000000029802","","","","","","","","","","","","",""
"","","","","","html-keyboard-response","92","401684","0.0-13.0-1.0","62c97585c81636f2f16fbbb0","64d3ef96556dbe1f0e02b5aa","64db8191c4b5aba85647b20a","","","","","","","","","","","","","","","","","","reconstruct","","","","","","479.01","250","2707.7000000029802","","","","","","","","","","37","5","625","250"
"","","","","","html-keyboard-response","93","404689","0.0-13.0-0.1","62c97585c81636f2f16fbbb0","64d3ef96556dbe1f0e02b5aa","64db8191c4b5aba85647b20a","","null","","","","","","","","","","","","","null","","","fallScene","","","","","","","","","","","","false","61.990823000001015","322.3","308.07114317029976","253.89","2","38","","",""
"","","","","","html-keyboard-response","94","407519","0.0-13.0-1.1","62c97585c81636f2f16fbbb0","64d3ef96556dbe1f0e02b5aa","64db8191c4b5aba85647b20a","","","","","","","","","","","","","","","","","","","","","","","","340.00707102797327","236.00707110765026","2829.0999999940395","","","","","","","","","","","","",""
"","","","","","html-keyboard-response","94","407519","0.0-13.0-1.1","62c97585c81636f2f16fbbb0","64d3ef96556dbe1f0e02b5aa","64db8191c4b5aba85647b20a","","","","","","","","","","","","","","","","","","reconstruct","","","","","","340.00707102797327","236.00707110765026","2829.0999999940395","","","","","","","","","","38","4","500","350"
"","","","","","html-keyboard-response","95","410534","0.0-13.0-0.2","62c97585c81636f2f16fbbb0","64d3ef96556dbe1f0e02b5aa","64db8191c4b5aba85647b20a","","null","","","","","","","","","","","","","null","","","fallScene","","","","","","","","","","","","false","61.964226999998274","500","453.67114317029973","210.33","5","39","","",""
"","","","","","html-keyboard-response","96","413385","0.0-13.0-1.2","62c97585c81636f2f16fbbb0","64d3ef96556dbe1f0e02b5aa","64db8191c4b5aba85647b20a","","","","","","","","","","","","","","","","","","","","","","","","500.01","239.99999999997124","2850","","","","","","","","","","","","",""
"","","","","","html-keyboard-response","96","413385","0.0-13.0-1.2","62c97585c81636f2f16fbbb0","64d3ef96556dbe1f0e02b5aa","64db8191c4b5aba85647b20a","","","","","","","","","","","","","","","","","","reconstruct","","","","","","500.01","239.99999999997124","2850","","","","","","","","","","39","5","625","250"
"","","","","","html-keyboard-response","97","416396","0.0-13.0-0.3","62c97585c81636f2f16fbbb0","64d3ef96556dbe1f0e02b5aa","64db8191c4b5aba85647b20a","","null","","","","","","","","","","","","","null","","","fallScene","","","","","","","","","","","","false","61.970143999998804","322.3","379.3711431702997","245.25","1","40","","",""
"","","","","","html-keyboard-response","98","419413","0.0-13.0-1.3","62c97585c81636f2f16fbbb0","64d3ef96556dbe1f0e02b5aa","64db8191c4b5aba85647b20a","","","","","","","","","","","","","","","","","","","","","","","","325.00715037923754","226.0069908566542","3015.7999999970198","","","","","","","","","","","","",""
"","","","","","html-keyboard-response","98","419413","0.0-13.0-1.3","62c97585c81636f2f16fbbb0","64d3ef96556dbe1f0e02b5aa","64db8191c4b5aba85647b20a","","","","","","","","","","","","","","","","","","reconstruct","","","","","","325.00715037923754","226.0069908566542","3015.7999999970198","","","","","","","","","","40","4","500","350"
"","","","","","html-keyboard-response","99","422425","0.0-13.0-0.4","62c97585c81636f2f16fbbb0","64d3ef96556dbe1f0e02b5aa","64db8191c4b5aba85647b20a","","null","","","","","","","","","","","","","null","","","fallScene","","","","","","","","","","","","false","61.96483700000238","500","510.8711431702997","369.03","8","41","","",""
"","","","","","html-keyboard-response","100","425644","0.0-13.0-1.4","62c97585c81636f2f16fbbb0","64d3ef96556dbe1f0e02b5aa","64db8191c4b5aba85647b20a","","","","","","","","","","","","","","","","","","","","","","","","395.9999339306686","264.9800002248662","3218","","","","","","","","","","","","",""
"","","","","","html-keyboard-response","100","425644","0.0-13.0-1.4","62c97585c81636f2f16fbbb0","64d3ef96556dbe1f0e02b5aa","64db8191c4b5aba85647b20a","","","","","","","","","","","","","","","","","","reconstruct","","","","","","395.9999339306686","264.9800002248662","3218","","","","","","","","","","41","4","500","350"
"","","","","","html-keyboard-response","101","428654","0.0-13.0-0.5","62c97585c81636f2f16fbbb0","64d3ef96556dbe1f0e02b5aa","64db8191c4b5aba85647b20a","","null","","","","","","","","","","","","","null","","","fallScene","","","","","","","","","","","","false","61.97679299999861","500","553.4711431702997","282.51","7","42","","",""
"","","","","","html-keyboard-response","102","432025","0.0-13.0-1.5","62c97585c81636f2f16fbbb0","64d3ef96556dbe1f0e02b5aa","64db8191c4b5aba85647b20a","","","","","","","","","","","","","","","","","","","","","","","","494.00999999999993","228.00000003939192","3370.9000000059605","","","","","","","","","","","","",""
"","","","","","html-keyboard-response","102","432025","0.0-13.0-1.5","62c97585c81636f2f16fbbb0","64d3ef96556dbe1f0e02b5aa","64db8191c4b5aba85647b20a","","","","","","","","","","","","","","","","","","reconstruct","","","","","","494.00999999999993","228.00000003939192","3370.9000000059605","","","","","","","","","","42","2","375","350"
"","","","","","html-keyboard-response","103","435032","0.0-13.0-0.6","62c97585c81636f2f16fbbb0","64d3ef96556dbe1f0e02b5aa","64db8191c4b5aba85647b20a","","null","","","","","","","","","","","","","null","","","fallScene","","","","","","","","","","","","true","61.963311999997416","500","510.8711431702997","369.03","8","43","","",""
"","","","","","html-keyboard-response","104","438484","0.0-13.0-1.6","62c97585c81636f2f16fbbb0","64d3ef96556dbe1f0e02b5aa","64db8191c4b5aba85647b20a","","","","","","","","","","","","","","","","","","","","","","","","515.9900000373525","205.99997266781807","3452.2000000029802","","","","","","","","","","","","",""
"","","","","","html-keyboard-response","104","438484","0.0-13.0-1.6","62c97585c81636f2f16fbbb0","64d3ef96556dbe1f0e02b5aa","64db8191c4b5aba85647b20a","","","","","","","","","","","","","","","","","","reconstruct","","","","","","515.9900000373525","205.99997266781807","3452.2000000029802","","","","","","","","","","43","6","625","350"
"","","","","","html-keyboard-response","105","441490","0.0-13.0-0.7","62c97585c81636f2f16fbbb0","64d3ef96556dbe1f0e02b5aa","64db8191c4b5aba85647b20a","","null","","","","","","","","","","","","","null","","","fallScene","","","","","","","","","","","","true","61.97441400000279","322.3","379.3711431702997","245.25","1","44","","",""
"","","","","","html-keyboard-response","106","444603","0.0-13.0-1.7","62c97585c81636f2f16fbbb0","64d3ef96556dbe1f0e02b5aa","64db8191c4b5aba85647b20a","","","","","","","","","","","","","","","","","","","","","","","","678.9921923332903","240.99375177300746","3111.5","","","","","","","","","","","","",""
"","","","","","html-keyboard-response","106","444603","0.0-13.0-1.7","62c97585c81636f2f16fbbb0","64d3ef96556dbe1f0e02b5aa","64db8191c4b5aba85647b20a","","","","","","","","","","","","","","","","","","reconstruct","","","","","","678.9921923332903","240.99375177300746","3111.5","","","","","","","","","","44","1","375","250"
"","","","","","html-keyboard-response","107","447608","0.0-13.0-0.8","62c97585c81636f2f16fbbb0","64d3ef96556dbe1f0e02b5aa","64db8191c4b5aba85647b20a","","null","","","","","","","","","","","","","null","","","fallScene","","","","","","","","","","","","false","61.9664840000025","604.4000000000001","596.8711431702998","394.5","10","45","","",""
"","","","","","html-keyboard-response","108","452245","0.0-13.0-1.8","62c97585c81636f2f16fbbb0","64d3ef96556dbe1f0e02b5aa","64db8191c4b5aba85647b20a","","","","","","","","","","","","","","","","","","","","","","","","618.9927507160613","249.0068882423285","4635.79999999702","","","","","","","","","","","","",""
"","","","","","html-keyboard-response","108","452245","0.0-13.0-1.8","62c97585c81636f2f16fbbb0","64d3ef96556dbe1f0e02b5aa","64db8191c4b5aba85647b20a","","","","","","","","","","","","","","","","","","reconstruct","","","","","","618.9927507160613","249.0068882423285","4635.79999999702","","","","","","","","","","45","4","500","350"
"","","","","","html-keyboard-response","109","455253","0.0-13.0-0.9","62c97585c81636f2f16fbbb0","64d3ef96556dbe1f0e02b5aa","64db8191c4b5aba85647b20a","","null","","","","","","","","","","","","","null","","","fallScene","","","","","","","","","","","","false","61.96459299999789","322.3","308.07114317029976","253.89","2","46","","",""
"","","","","","html-keyboard-response","110","458413","0.0-13.0-1.9","62c97585c81636f2f16fbbb0","64d3ef96556dbe1f0e02b5aa","64db8191c4b5aba85647b20a","","","","","","","","","","","","","","","","","","","","","","","","338.99999943887053","231.00999999998425","3159.7000000029802","","","","","","","","","","","","",""
"","","","","","html-keyboard-response","110","458413","0.0-13.0-1.9","62c97585c81636f2f16fbbb0","64d3ef96556dbe1f0e02b5aa","64db8191c4b5aba85647b20a","","","","","","","","","","","","","","","","","","reconstruct","","","","","","338.99999943887053","231.00999999998425","3159.7000000029802","","","","","","","","","","46","5","625","250"
"","","","","","html-keyboard-response","111","461430","0.0-13.0-0.10","62c97585c81636f2f16fbbb0","64d3ef96556dbe1f0e02b5aa","64db8191c4b5aba85647b20a","","null","","","","","","","","","","","","","null","","","fallScene","","","","","","","","","","","","false","61.96733800000045","322.3","296.07114317029976","371.46","3","47","","",""
"","","","","","html-keyboard-response","112","465630","0.0-13.0-1.10","62c97585c81636f2f16fbbb0","64d3ef96556dbe1f0e02b5aa","64db8191c4b5aba85647b20a","","","","","","","","","","","","","","","","","","","","","","","","327.9899504129376","293.00973599067055","4199.70000000298","","","","","","","","","","","","",""
"","","","","","html-keyboard-response","112","465630","0.0-13.0-1.10","62c97585c81636f2f16fbbb0","64d3ef96556dbe1f0e02b5aa","64db8191c4b5aba85647b20a","","","","","","","","","","","","","","","","","","reconstruct","","","","","","327.9899504129376","293.00973599067055","4199.70000000298","","","","","","","","","","47","5","625","250"
"","","","","","html-keyboard-response","113","468637","0.0-13.0-0.11","62c97585c81636f2f16fbbb0","64d3ef96556dbe1f0e02b5aa","64db8191c4b5aba85647b20a","","null","","","","","","","","","","","","","null","","","fallScene","","","","","","","","","","","","false","61.96471500000014","500","510.8711431702997","369.03","8","48","","",""
"","","","","","html-keyboard-response","114","473538","0.0-13.0-1.11","62c97585c81636f2f16fbbb0","64d3ef96556dbe1f0e02b5aa","64db8191c4b5aba85647b20a","","","","","","","","","","","","","","","","","","","","","","","","488.00000000936365","198.01","4900.4000000059605","","","","","","","","","","","","",""
"","","","","","html-keyboard-response","114","473538","0.0-13.0-1.11","62c97585c81636f2f16fbbb0","64d3ef96556dbe1f0e02b5aa","64db8191c4b5aba85647b20a","","","","","","","","","","","","","","","","","","reconstruct","","","","","","488.00000000936365","198.01","4900.4000000059605","","","","","","","","","","48","2","375","350"
"","","","","","html-keyboard-response","115","476547","0.0-13.0-0.12","62c97585c81636f2f16fbbb0","64d3ef96556dbe1f0e02b5aa","64db8191c4b5aba85647b20a","","null","","","","","","","","","","","","","null","","","fallScene","","","","","","","","","","","","true","62.17357900000008","604.4000000000001","650.0211431702996","404.58000000000004","11","49","","",""
"","","","","","html-keyboard-response","116","480805","0.0-13.0-1.12","62c97585c81636f2f16fbbb0","64d3ef96556dbe1f0e02b5aa","64db8191c4b5aba85647b20a","","","","","","","","","","","","","","","","","","","","","","","","391.9999821430224","293.0099999840564","4256.800000011921","","","","","","","","","","","","",""
"","","","","","html-keyboard-response","116","480805","0.0-13.0-1.12","62c97585c81636f2f16fbbb0","64d3ef96556dbe1f0e02b5aa","64db8191c4b5aba85647b20a","","","","","","","","","","","","","","","","","","reconstruct","","","","","","391.9999821430224","293.0099999840564","4256.800000011921","","","","","","","","","","49","1","375","250"
"","","","","","html-keyboard-response","117","483812","0.0-13.0-0.13","62c97585c81636f2f16fbbb0","64d3ef96556dbe1f0e02b5aa","64db8191c4b5aba85647b20a","","null","","","","","","","","","","","","","null","","","fallScene","","","","","","","","","","","","true","62.97945000000071","322.3","356.42114317029973","357.87","4","50","","",""
"","","","","","html-keyboard-response","118","486852","0.0-13.0-1.13","62c97585c81636f2f16fbbb0","64d3ef96556dbe1f0e02b5aa","64db8191c4b5aba85647b20a","","","","","","","","","","","","","","","","","","","","","","","","663.990000244023","278.99993014013626","3038.2000000029802","","","","","","","","","","","","",""
"","","","","","html-keyboard-response","118","486852","0.0-13.0-1.13","62c97585c81636f2f16fbbb0","64d3ef96556dbe1f0e02b5aa","64db8191c4b5aba85647b20a","","","","","","","","","","","","","","","","","","reconstruct","","","","","","663.990000244023","278.99993014013626","3038.2000000029802","","","","","","","","","","50","2","375","350"
"","","","","","html-keyboard-response","119","489856","0.0-13.0-0.14","62c97585c81636f2f16fbbb0","64d3ef96556dbe1f0e02b5aa","64db8191c4b5aba85647b20a","","null","","","","","","","","","","","","","null","","","fallScene","","","","","","","","","","","","true","61.96038400000037","604.4000000000001","667.6211431702998","201.78","9","51","","",""
"","","","","","html-keyboard-response","120","493249","0.0-13.0-1.14","62c97585c81636f2f16fbbb0","64d3ef96556dbe1f0e02b5aa","64db8191c4b5aba85647b20a","","","","","","","","","","","","","","","","","","","","","","","","375.0000999854566","281.00999950013295","3392.5","","","","","","","","","","","","",""
"","","","","","html-keyboard-response","120","493249","0.0-13.0-1.14","62c97585c81636f2f16fbbb0","64d3ef96556dbe1f0e02b5aa","64db8191c4b5aba85647b20a","","","","","","","","","","","","","","","","","","reconstruct","","","","","","375.0000999854566","281.00999950013295","3392.5","","","","","","","","","","51","2","375","350"
"","","","","","html-keyboard-response","121","496254","0.0-13.0-0.15","62c97585c81636f2f16fbbb0","64d3ef96556dbe1f0e02b5aa","64db8191c4b5aba85647b20a","","null","","","","","","","","","","","","","null","","","fallScene","","","","","","","","","","","","true","61.968253000001305","322.3","379.3711431702997","245.25","1","52","","",""
"","","","","","html-keyboard-response","122","499820","0.0-13.0-1.15","62c97585c81636f2f16fbbb0","64d3ef96556dbe1f0e02b5aa","64db8191c4b5aba85647b20a","","","","","","","","","","","","","","","","","","","","","","","","662.9900000909035","257.9999573612494","3565.2000000029802","","","","","","","","","","","","",""
"","","","","","html-keyboard-response","122","499820","0.0-13.0-1.15","62c97585c81636f2f16fbbb0","64d3ef96556dbe1f0e02b5aa","64db8191c4b5aba85647b20a","","","","","","","","","","","","","","","","","","reconstruct","","","","","","662.9900000909035","257.9999573612494","3565.2000000029802","","","","","","","","","","52","6","625","350"
"","","","","","html-keyboard-response","123","502824","0.0-13.0-0.16","62c97585c81636f2f16fbbb0","64d3ef96556dbe1f0e02b5aa","64db8191c4b5aba85647b20a","","null","","","","","","","","","","","","","null","","","fallScene","","","","","","","","","","","","false","60.952919999999","322.3","308.07114317029976","253.89","2","53","","",""
"","","","","","html-keyboard-response","124","506373","0.0-13.0-1.16","62c97585c81636f2f16fbbb0","64d3ef96556dbe1f0e02b5aa","64db8191c4b5aba85647b20a","","","","","","","","","","","","","","","","","","","","","","","","319.0000000614567","241.00999999999982","3548","","","","","","","","","","","","",""
"","","","","","html-keyboard-response","124","506373","0.0-13.0-1.16","62c97585c81636f2f16fbbb0","64d3ef96556dbe1f0e02b5aa","64db8191c4b5aba85647b20a","","","","","","","","","","","","","","","","","","reconstruct","","","","","","319.0000000614567","241.00999999999982","3548","","","","","","","","","","53","1","375","250"
"","","","","","html-keyboard-response","125","509378","0.0-13.0-0.17","62c97585c81636f2f16fbbb0","64d3ef96556dbe1f0e02b5aa","64db8191c4b5aba85647b20a","","null","","","","","","","","","","","","","null","","","fallScene","","","","","","","","","","","","false","58.917444000001645","322.3","356.42114317029973","357.87","4","54","","",""
"","","","","","html-keyboard-response","126","512748","0.0-13.0-1.17","62c97585c81636f2f16fbbb0","64d3ef96556dbe1f0e02b5aa","64db8191c4b5aba85647b20a","","","","","","","","","","","","","","","","","","","","","","","","340.0099937268792","243.9996458488122","3369.2999999970198","","","","","","","","","","","","",""
"","","","","","html-keyboard-response","126","512748","0.0-13.0-1.17","62c97585c81636f2f16fbbb0","64d3ef96556dbe1f0e02b5aa","64db8191c4b5aba85647b20a","","","","","","","","","","","","","","","","","","reconstruct","","","","","","340.0099937268792","243.9996458488122","3369.2999999970198","","","","","","","","","","54","1","375","250"
"","","","","","html-button-response","127","516940","0.0-14.0","62c97585c81636f2f16fbbb0","64d3ef96556dbe1f0e02b5aa","64db8191c4b5aba85647b20a","","4189","","","","","","","","","","","","","0","","","","<p><span style = ""font-size:40px;"">BREAK</span></p><p>You are almost done! Click 'Next' when you are ready for the next set.</p>","","","","","","","","","","","","","","","","","","","",""
"","","","","","html-keyboard-response","128","519946","0.0-15.0-0.0","62c97585c81636f2f16fbbb0","64d3ef96556dbe1f0e02b5aa","64db8191c4b5aba85647b20a","","null","","","","","","","","","","","","","null","","","fallScene","","","","","","","","","","","","true","59.93314399999951","500","453.67114317029973","210.33","5","55","","",""
"","","","","","html-keyboard-response","129","523533","0.0-15.0-1.0","62c97585c81636f2f16fbbb0","64d3ef96556dbe1f0e02b5aa","64db8191c4b5aba85647b20a","","","","","","","","","","","","","","","","","","","","","","","","482.0045105324314","250.00892497043048","3585.5","","","","","","","","","","","","",""
"","","","","","html-keyboard-response","129","523533","0.0-15.0-1.0","62c97585c81636f2f16fbbb0","64d3ef96556dbe1f0e02b5aa","64db8191c4b5aba85647b20a","","","","","","","","","","","","","","","","","","reconstruct","","","","","","482.0045105324314","250.00892497043048","3585.5","","","","","","","","","","55","2","375","350"
"","","","","","html-keyboard-response","130","526537","0.0-15.0-0.1","62c97585c81636f2f16fbbb0","64d3ef96556dbe1f0e02b5aa","64db8191c4b5aba85647b20a","","null","","","","","","","","","","","","","null","","","fallScene","","","","","","","","","","","","false","59.92895499999972","604.4000000000001","596.8711431702998","394.5","10","56","","",""
"","","","","","html-keyboard-response","131","529892","0.0-15.0-1.1","62c97585c81636f2f16fbbb0","64d3ef96556dbe1f0e02b5aa","64db8191c4b5aba85647b20a","","","","","","","","","","","","","","","","","","","","","","","","608.9917866056348","294.0057043976898","3353.699999988079","","","","","","","","","","","","",""
"","","","","","html-keyboard-response","131","529892","0.0-15.0-1.1","62c97585c81636f2f16fbbb0","64d3ef96556dbe1f0e02b5aa","64db8191c4b5aba85647b20a","","","","","","","","","","","","","","","","","","reconstruct","","","","","","608.9917866056348","294.0057043976898","3353.699999988079","","","","","","","","","","56","1","375","250"
"","","","","","html-keyboard-response","132","532897","0.0-15.0-0.2","62c97585c81636f2f16fbbb0","64d3ef96556dbe1f0e02b5aa","64db8191c4b5aba85647b20a","","null","","","","","","","","","","","","","null","","","fallScene","","","","","","","","","","","","false","58.91808200000156","500","553.4711431702997","282.51","7","57","","",""
"","","","","","html-keyboard-response","133","535848","0.0-15.0-1.2","62c97585c81636f2f16fbbb0","64d3ef96556dbe1f0e02b5aa","64db8191c4b5aba85647b20a","","","","","","","","","","","","","","","","","","","","","","","","493.99999999891946","222.01","2950.2000000029802","","","","","","","","","","","","",""
"","","","","","html-keyboard-response","133","535848","0.0-15.0-1.2","62c97585c81636f2f16fbbb0","64d3ef96556dbe1f0e02b5aa","64db8191c4b5aba85647b20a","","","","","","","","","","","","","","","","","","reconstruct","","","","","","493.99999999891946","222.01","2950.2000000029802","","","","","","","","","","57","4","500","350"
"","","","","","html-keyboard-response","134","538865","0.0-15.0-0.3","62c97585c81636f2f16fbbb0","64d3ef96556dbe1f0e02b5aa","64db8191c4b5aba85647b20a","","null","","","","","","","","","","","","","null","","","fallScene","","","","","","","","","","","","true","54.85665599999694","604.4000000000001","650.0211431702996","404.58000000000004","11","58","","",""
"","","","","","html-keyboard-response","135","541336","0.0-15.0-1.3","62c97585c81636f2f16fbbb0","64d3ef96556dbe1f0e02b5aa","64db8191c4b5aba85647b20a","","","","","","","","","","","","","","","","","","","","","","","","370.99918183142546","303.9900335261911","2470","","","","","","","","","","","","",""
"","","","","","html-keyboard-response","135","541336","0.0-15.0-1.3","62c97585c81636f2f16fbbb0","64d3ef96556dbe1f0e02b5aa","64db8191c4b5aba85647b20a","","","","","","","","","","","","","","","","","","reconstruct","","","","","","370.99918183142546","303.9900335261911","2470","","","","","","","","","","58","3","500","250"
"","","","","","html-keyboard-response","136","544342","0.0-15.0-0.4","62c97585c81636f2f16fbbb0","64d3ef96556dbe1f0e02b5aa","64db8191c4b5aba85647b20a","","null","","","","","","","","","","","","","null","","","fallScene","","","","","","","","","","","","true","53.84100399999472","604.4000000000001","575.4211431702997","266.76","12","59","","",""
"","","","","","html-keyboard-response","137","548046","0.0-15.0-1.4","62c97585c81636f2f16fbbb0","64d3ef96556dbe1f0e02b5aa","64db8191c4b5aba85647b20a","","","","","","","","","","","","","","","","","","","","","","","","399.00008869849637","220.0099996066211","3703.8999999910593","","","","","","","","","","","","",""
"","","","","","html-keyboard-response","137","548046","0.0-15.0-1.4","62c97585c81636f2f16fbbb0","64d3ef96556dbe1f0e02b5aa","64db8191c4b5aba85647b20a","","","","","","","","","","","","","","","","","","reconstruct","","","","","","399.00008869849637","220.0099996066211","3703.8999999910593","","","","","","","","","","59","6","625","350"
"","","","","","html-keyboard-response","138","551051","0.0-15.0-0.5","62c97585c81636f2f16fbbb0","64d3ef96556dbe1f0e02b5aa","64db8191c4b5aba85647b20a","","null","","","","","","","","","","","","","null","","","fallScene","","","","","","","","","","","","true","53.84227600000578","500","479.92114317029973","330.87","6","60","","",""
"","","","","","html-keyboard-response","139","554524","0.0-15.0-1.5","62c97585c81636f2f16fbbb0","64d3ef96556dbe1f0e02b5aa","64db8191c4b5aba85647b20a","","","","","","","","","","","","","","","","","","","","","","","","505.00659772420084","219.00751465470728","3471.7999999970198","","","","","","","","","","","","",""
"","","","","","html-keyboard-response","139","554524","0.0-15.0-1.5","62c97585c81636f2f16fbbb0","64d3ef96556dbe1f0e02b5aa","64db8191c4b5aba85647b20a","","","","","","","","","","","","","","","","","","reconstruct","","","","","","505.00659772420084","219.00751465470728","3471.7999999970198","","","","","","","","","","60","1","375","250"
"","","","","","html-keyboard-response","140","557539","0.0-15.0-0.6","62c97585c81636f2f16fbbb0","64d3ef96556dbe1f0e02b5aa","64db8191c4b5aba85647b20a","","null","","","","","","","","","","","","","null","","","fallScene","","","","","","","","","","","","true","56.88782400000281","322.3","356.42114317029973","357.87","4","61","","",""
"","","","","","html-keyboard-response","141","561625","0.0-15.0-1.6","62c97585c81636f2f16fbbb0","64d3ef96556dbe1f0e02b5aa","64db8191c4b5aba85647b20a","","","","","","","","","","","","","","","","","","","","","","","","631.9900000958966","277.0000437940758","4084.8999999910593","","","","","","","","","","","","",""
"","","","","","html-keyboard-response","141","561625","0.0-15.0-1.6","62c97585c81636f2f16fbbb0","64d3ef96556dbe1f0e02b5aa","64db8191c4b5aba85647b20a","","","","","","","","","","","","","","","","","","reconstruct","","","","","","631.9900000958966","277.0000437940758","4084.8999999910593","","","","","","","","","","61","6","625","350"
"","","","","","html-keyboard-response","142","564633","0.0-15.0-0.7","62c97585c81636f2f16fbbb0","64d3ef96556dbe1f0e02b5aa","64db8191c4b5aba85647b20a","","null","","","","","","","","","","","","","null","","","fallScene","","","","","","","","","","","","false","56.895328000000674","604.4000000000001","596.8711431702998","394.5","10","62","","",""
"","","","","","html-keyboard-response","143","568583","0.0-15.0-1.7","62c97585c81636f2f16fbbb0","64d3ef96556dbe1f0e02b5aa","64db8191c4b5aba85647b20a","","","","","","","","","","","","","","","","","","","","","","","","638.9922548119899","284.00632550888776","3949.2000000029802","","","","","","","","","","","","",""
"","","","","","html-keyboard-response","143","568583","0.0-15.0-1.7","62c97585c81636f2f16fbbb0","64d3ef96556dbe1f0e02b5aa","64db8191c4b5aba85647b20a","","","","","","","","","","","","","","","","","","reconstruct","","","","","","638.9922548119899","284.00632550888776","3949.2000000029802","","","","","","","","","","62","2","375","350"
"","","","","","html-keyboard-response","144","571592","0.0-15.0-0.8","62c97585c81636f2f16fbbb0","64d3ef96556dbe1f0e02b5aa","64db8191c4b5aba85647b20a","","null","","","","","","","","","","","","","null","","","fallScene","","","","","","","","","","","","true","48.75609600000456","604.4000000000001","667.6211431702998","201.78","9","63","","",""
"","","","","","html-keyboard-response","145","574732","0.0-15.0-1.8","62c97585c81636f2f16fbbb0","64d3ef96556dbe1f0e02b5aa","64db8191c4b5aba85647b20a","","","","","","","","","","","","","","","","","","","","","","","","403.0078413434576","288.006205911116","3139.8999999910593","","","","","","","","","","","","",""
"","","","","","html-keyboard-response","145","574732","0.0-15.0-1.8","62c97585c81636f2f16fbbb0","64d3ef96556dbe1f0e02b5aa","64db8191c4b5aba85647b20a","","","","","","","","","","","","","","","","","","reconstruct","","","","","","403.0078413434576","288.006205911116","3139.8999999910593","","","","","","","","","","63","6","625","350"
"","","","","","html-keyboard-response","146","577739","0.0-15.0-0.9","62c97585c81636f2f16fbbb0","64d3ef96556dbe1f0e02b5aa","64db8191c4b5aba85647b20a","","null","","","","","","","","","","","","","null","","","fallScene","","","","","","","","","","","","false","54.72546799999906","500","553.4711431702997","282.51","7","64","","",""
"","","","","","html-keyboard-response","147","581173","0.0-15.0-1.9","62c97585c81636f2f16fbbb0","64d3ef96556dbe1f0e02b5aa","64db8191c4b5aba85647b20a","","","","","","","","","","","","","","","","","","","","","","","","487.9903692868903","248.00269246448428","3433.0999999940395","","","","","","","","","","","","",""
"","","","","","html-keyboard-response","147","581173","0.0-15.0-1.9","62c97585c81636f2f16fbbb0","64d3ef96556dbe1f0e02b5aa","64db8191c4b5aba85647b20a","","","","","","","","","","","","","","","","","","reconstruct","","","","","","487.9903692868903","248.00269246448428","3433.0999999940395","","","","","","","","","","64","6","625","350"
"","","","","","html-keyboard-response","148","584179","0.0-15.0-0.10","62c97585c81636f2f16fbbb0","64d3ef96556dbe1f0e02b5aa","64db8191c4b5aba85647b20a","","null","","","","","","","","","","","","","null","","","fallScene","","","","","","","","","","","","true","49.77224000000046","500","553.4711431702997","282.51","7","65","","",""
"","","","","","html-keyboard-response","149","587547","0.0-15.0-1.10","62c97585c81636f2f16fbbb0","64d3ef96556dbe1f0e02b5aa","64db8191c4b5aba85647b20a","","","","","","","","","","","","","","","","","","","","","","","","494.00999977276547","251.99993258605906","3367.7999999970198","","","","","","","","","","","","",""
"","","","","","html-keyboard-response","149","587547","0.0-15.0-1.10","62c97585c81636f2f16fbbb0","64d3ef96556dbe1f0e02b5aa","64db8191c4b5aba85647b20a","","","","","","","","","","","","","","","","","","reconstruct","","","","","","494.00999977276547","251.99993258605906","3367.7999999970198","","","","","","","","","","65","3","500","250"
"","","","","","html-keyboard-response","150","590558","0.0-15.0-0.11","62c97585c81636f2f16fbbb0","64d3ef96556dbe1f0e02b5aa","64db8191c4b5aba85647b20a","","null","","","","","","","","","","","","","null","","","fallScene","","","","","","","","","","","","false","50.58970699999854","604.4000000000001","667.6211431702998","201.78","9","66","","",""
"","","","","","html-keyboard-response","151","593587","0.0-15.0-1.11","62c97585c81636f2f16fbbb0","64d3ef96556dbe1f0e02b5aa","64db8191c4b5aba85647b20a","","","","","","","","","","","","","","","","","","","","","","","","645.0095208371656","219.99694162466875","3028.2000000029802","","","","","","","","","","","","",""
"","","","","","html-keyboard-response","151","593587","0.0-15.0-1.11","62c97585c81636f2f16fbbb0","64d3ef96556dbe1f0e02b5aa","64db8191c4b5aba85647b20a","","","","","","","","","","","","","","","","","","reconstruct","","","","","","645.0095208371656","219.99694162466875","3028.2000000029802","","","","","","","","","","66","3","500","250"
"","","","","","html-keyboard-response","152","596603","0.0-15.0-0.12","62c97585c81636f2f16fbbb0","64d3ef96556dbe1f0e02b5aa","64db8191c4b5aba85647b20a","","null","","","","","","","","","","","","","null","","","fallScene","","","","","","","","","","","","true","47.489295999996834","322.3","308.07114317029976","253.89","2","67","","",""
"","","","","","html-keyboard-response","153","601444","0.0-15.0-1.12","62c97585c81636f2f16fbbb0","64d3ef96556dbe1f0e02b5aa","64db8191c4b5aba85647b20a","","","","","","","","","","","","","","","","","","","","","","","","697.9900206580302","205.99935755634462","4840.5","","","","","","","","","","","","",""
"","","","","","html-keyboard-response","153","601444","0.0-15.0-1.12","62c97585c81636f2f16fbbb0","64d3ef96556dbe1f0e02b5aa","64db8191c4b5aba85647b20a","","","","","","","","","","","","","","","","","","reconstruct","","","","","","697.9900206580302","205.99935755634462","4840.5","","","","","","","","","","67","3","500","250"
"","","","","","html-keyboard-response","154","604451","0.0-15.0-0.13","62c97585c81636f2f16fbbb0","64d3ef96556dbe1f0e02b5aa","64db8191c4b5aba85647b20a","","null","","","","","","","","","","","","","null","","","fallScene","","","","","","","","","","","","false","48.758736000001434","322.3","356.42114317029973","357.87","4","68","","",""
"","","","","","html-keyboard-response","155","607362","0.0-15.0-1.13","62c97585c81636f2f16fbbb0","64d3ef96556dbe1f0e02b5aa","64db8191c4b5aba85647b20a","","","","","","","","","","","","","","","","","","","","","","","","354.0099985985447","323.0001674130878","2909.9000000059605","","","","","","","","","","","","",""
"","","","","","html-keyboard-response","155","607362","0.0-15.0-1.13","62c97585c81636f2f16fbbb0","64d3ef96556dbe1f0e02b5aa","64db8191c4b5aba85647b20a","","","","","","","","","","","","","","","","","","reconstruct","","","","","","354.0099985985447","323.0001674130878","2909.9000000059605","","","","","","","","","","68","4","500","350"
"","","","","","html-keyboard-response","156","610366","0.0-15.0-0.14","62c97585c81636f2f16fbbb0","64d3ef96556dbe1f0e02b5aa","64db8191c4b5aba85647b20a","","null","","","","","","","","","","","","","null","","","fallScene","","","","","","","","","","","","true","44.39311400000192","500","510.8711431702997","369.03","8","69","","",""
"","","","","","html-keyboard-response","157","614012","0.0-15.0-1.14","62c97585c81636f2f16fbbb0","64d3ef96556dbe1f0e02b5aa","64db8191c4b5aba85647b20a","","","","","","","","","","","","","","","","","","","","","","","","515.99","266.0000000000248","3644.9000000059605","","","","","","","","","","","","",""
"","","","","","html-keyboard-response","157","614012","0.0-15.0-1.14","62c97585c81636f2f16fbbb0","64d3ef96556dbe1f0e02b5aa","64db8191c4b5aba85647b20a","","","","","","","","","","","","","","","","","","reconstruct","","","","","","515.99","266.0000000000248","3644.9000000059605","","","","","","","","","","69","5","625","250"
"","","","","","html-keyboard-response","158","617018","0.0-15.0-0.15","62c97585c81636f2f16fbbb0","64d3ef96556dbe1f0e02b5aa","64db8191c4b5aba85647b20a","","null","","","","","","","","","","","","","null","","","fallScene","","","","","","","","","","","","false","46.46340000000083","500","479.92114317029973","330.87","6","70","","",""
"","","","","","html-keyboard-response","159","622634","0.0-15.0-1.15","62c97585c81636f2f16fbbb0","64d3ef96556dbe1f0e02b5aa","64db8191c4b5aba85647b20a","","","","","","","","","","","","","","","","","","","","","","","","500.0001436351419","201.0099989683941","5615","","","","","","","","","","","","",""
"","","","","","html-keyboard-response","159","622634","0.0-15.0-1.15","62c97585c81636f2f16fbbb0","64d3ef96556dbe1f0e02b5aa","64db8191c4b5aba85647b20a","","","","","","","","","","","","","","","","","","reconstruct","","","","","","500.0001436351419","201.0099989683941","5615","","","","","","","","","","70","2","375","350"
"","","","","","html-keyboard-response","160","625643","0.0-15.0-0.16","62c97585c81636f2f16fbbb0","64d3ef96556dbe1f0e02b5aa","64db8191c4b5aba85647b20a","","null","","","","","","","","","","","","","null","","","fallScene","","","","","","","","","","","","false","48.75787199999951","322.3","379.3711431702997","245.25","1","71","","",""
"","","","","","html-keyboard-response","161","629160","0.0-15.0-1.16","62c97585c81636f2f16fbbb0","64d3ef96556dbe1f0e02b5aa","64db8191c4b5aba85647b20a","","","","","","","","","","","","","","","","","","","","","","","","335.99990000299266","244.00999950001741","3516","","","","","","","","","","","","",""
"","","","","","html-keyboard-response","161","629160","0.0-15.0-1.16","62c97585c81636f2f16fbbb0","64d3ef96556dbe1f0e02b5aa","64db8191c4b5aba85647b20a","","","","","","","","","","","","","","","","","","reconstruct","","","","","","335.99990000299266","244.00999950001741","3516","","","","","","","","","","71","3","500","250"
"","","","","","html-keyboard-response","162","632171","0.0-15.0-0.17","62c97585c81636f2f16fbbb0","64d3ef96556dbe1f0e02b5aa","64db8191c4b5aba85647b20a","","null","","","","","","","","","","","","","null","","","fallScene","","","","","","","","","","","","false","44.69018399999943","322.3","296.07114317029976","371.46","3","72","","",""
"","","","","","html-keyboard-response","163","635891","0.0-15.0-1.17","62c97585c81636f2f16fbbb0","64d3ef96556dbe1f0e02b5aa","64db8191c4b5aba85647b20a","","","","","","","","","","","","","","","","","","","","","","","","308.00703478308645","248.00710716729273","3719.7000000029802","","","","","","","","","","","","",""
"","","","","","html-keyboard-response","163","635891","0.0-15.0-1.17","62c97585c81636f2f16fbbb0","64d3ef96556dbe1f0e02b5aa","64db8191c4b5aba85647b20a","","","","","","","","","","","","","","","","","","reconstruct","","","","","","308.00703478308645","248.00710716729273","3719.7000000029802","","","","","","","","","","72","3","500","250"
"","","","","","survey-text","164","687295","0.0-16.0","62c97585c81636f2f16fbbb0","64d3ef96556dbe1f0e02b5aa","64db8191c4b5aba85647b20a","","51397","","","","","","","","","","","","","{""Summary"":""I had to guess where the triangle was behind the grey screen by observing a ball drop and then change directions because of the triangle.""}","","","","","","","","","","","","","","","","","","","","","","","",""
"","","","","","survey-text","165","689800","0.0-17.0","62c97585c81636f2f16fbbb0","64d3ef96556dbe1f0e02b5aa","64db8191c4b5aba85647b20a","","2499","","","","","","","","","","","","","{""Comments"":""""}","","","","","","","","","","","","","","","","","","","","","","","",""
