"success","timeout","failed_images","failed_audio","failed_video","trial_type","trial_index","time_elapsed","internal_node_id","subject_id","study_id","session_id","view_history","rt","width","height","webaudio","browser","browser_version","mobile","os","fullscreen","vsync_rate","webcam","microphone","url","response","triangle_prac_final_x","triangle_prac_final_y","trial_name","stimulus","ball_X_prac_occ","ball_Y_prac_occ","obstacle_X_prac_occ","obstacle_Y_prac_occ","triangle_final_x","triangle_final_y","response_time","obstacle_X_prac_occ_init","obstacle_Y_prac_occ_init","question_order","flipped","runnerFPS","ball_X","obstacle_groundTruth_x","obstacle_groundTruth_y","stimulus_idx","currentTrial","obstacle_idx","obstacle_initial_x","obstacle_initial_y"
"true","false","[]","[]","[]","preload","0","92","0.0-0.0","630e641cdf91fa661bdba50d","64d3ef96556dbe1f0e02b5aa","64d68cc37bf27bae6214ab44","","","","","","","","","","","","","","","","","","","","","","","","","","","","","","","","","","","","","","",""
"","","","","","instructions","1","1608","0.0-1.0","630e641cdf91fa661bdba50d","64d3ef96556dbe1f0e02b5aa","64d68cc37bf27bae6214ab44","[{""page_index"":0,""viewing_time"":1516}]","1516","","","","","","","","","","","","","","","","","","","","","","","","","","","","","","","","","","","","",""
"","","","","","browser-check","2","2596","0.0-2.0","630e641cdf91fa661bdba50d","64d3ef96556dbe1f0e02b5aa","64d68cc37bf27bae6214ab44","","","1536","747","true","chrome","115.0.0","false","Windows 10","true","60.86","true","true","","","","","","","","","","","","","","","","","","","","","","","","","",""
"","","","","","external-html","3","8804","0.0-3.0","630e641cdf91fa661bdba50d","64d3ef96556dbe1f0e02b5aa","64d68cc37bf27bae6214ab44","","6126","","","","","","","","","","","","consent.html","","","","","","","","","","","","","","","","","","","","","","","","",""
"true","","","","","fullscreen","4","13779","0.0-4.0","630e641cdf91fa661bdba50d","64d3ef96556dbe1f0e02b5aa","64d68cc37bf27bae6214ab44","","4469","","","","","","","","","","","","","","","","","","","","","","","","","","","","","","","","","","","","",""
"","","","","","survey-text","5","25100","0.0-5.0","630e641cdf91fa661bdba50d","64d3ef96556dbe1f0e02b5aa","64d68cc37bf27bae6214ab44","","11319","","","","","","","","","","","","","{""prolificID"":""630e641cdf91fa661bdba50d@email.prolific.co""}","","","","","","","","","","","","","","","","","","","","","","","",""
"","","","","","browser-check","6","26097","0.0-6.0","630e641cdf91fa661bdba50d","64d3ef96556dbe1f0e02b5aa","64d68cc37bf27bae6214ab44","","","1536","747","true","chrome","115.0.0","false","Windows 10","true","60.29","true","true","","","","","","","","","","","","","","","","","","","","","","","","","",""
"","","","","","instructions","7","75783","0.0-7.0-0.0-0.0","630e641cdf91fa661bdba50d","64d3ef96556dbe1f0e02b5aa","64d68cc37bf27bae6214ab44","[{""page_index"":0,""viewing_time"":26410},{""page_index"":1,""viewing_time"":8762},{""page_index"":2,""viewing_time"":8960},{""page_index"":3,""viewing_time"":5554}]","49686","","","","","","","","","","","","","","","","","","","","","","","","","","","","","","","","","","","","",""
"","","","","","html-keyboard-response","8","82281","0.0-7.0-0.0-1.0","630e641cdf91fa661bdba50d","64d3ef96556dbe1f0e02b5aa","64d68cc37bf27bae6214ab44","","","","","","","","","","","","","","","","538.0099992398616","199.00012329715764","","","","","","","","","","","","","","","","","","","","","",""
"","","","","","html-keyboard-response","8","82281","0.0-7.0-0.0-1.0","630e641cdf91fa661bdba50d","64d3ef96556dbe1f0e02b5aa","64d68cc37bf27bae6214ab44","","","","","","","","","","","","","","","","","","practiceTrial_move","","","","","","","","","","","","","","","","","","","","",""
"","","","","","html-button-response","9","86441","0.0-7.0-0.0-2.0","630e641cdf91fa661bdba50d","64d3ef96556dbe1f0e02b5aa","64d68cc37bf27bae6214ab44","","4159","","","","","","","","","","","","","0","","","","<p>To help you get more comfortable with the task, let's begin with a practice trial first!</p><p>As described previously, you will first see a video of a ball falling, some of it behind a gray screen.</p><p>After the video, you will drag a triangle to the spot you think the ball hit the triangle behind the screen.</p><p>Click 'Next' to start your practice trial.</p>","","","","","","","","","","","","","","","","","","","",""
"","","","","","html-keyboard-response","10","89446","0.0-7.0-0.0-3.0","630e641cdf91fa661bdba50d","64d3ef96556dbe1f0e02b5aa","64d68cc37bf27bae6214ab44","","null","","","","","","","","","","","","","null","","","fallScene_practiceTrial_withOccluder","","400","50","420","415","","","","","","","","","","","","","","","",""
"","","","","","html-keyboard-response","11","91453","0.0-7.0-0.0-4.0","630e641cdf91fa661bdba50d","64d3ef96556dbe1f0e02b5aa","64d68cc37bf27bae6214ab44","","","","","","","","","","","","","","","","","","","","","","","","396.0004532124798","311.0099897246433","2005.7000000029802","","","","","","","","","","","","",""
"","","","","","html-keyboard-response","11","91453","0.0-7.0-0.0-4.0","630e641cdf91fa661bdba50d","64d3ef96556dbe1f0e02b5aa","64d68cc37bf27bae6214ab44","","","","","","","","","","","","","","","","","","reconstruct_practiceTrial_withOccluder","","","","","","396.0004532124798","311.0099897246433","2005.7000000029802","500","300","","","","","","","","","","",""
"","","","","","html-button-response","12","94695","0.0-7.0-0.0-5.0","630e641cdf91fa661bdba50d","64d3ef96556dbe1f0e02b5aa","64d68cc37bf27bae6214ab44","","3241","","","","","","","","","","","","","1","","","","<p>Ok! We're almost ready to get started.</p><p>We just have a <b>brief quiz</b>, to make sure you understood the task.</p><p>If you need to review the instructions, click 'Previous'.</p><p>It's important to understand the task to do the study, so you have to pass the quiz to move to the study.</p>","","","","","","","","","","","","","","","","","","","",""
"","","","","","survey-multi-choice","13","101551","0.0-7.0-1.0-0.0","630e641cdf91fa661bdba50d","64d3ef96556dbe1f0e02b5aa","64d68cc37bf27bae6214ab44","","6855","","","","","","","","","","","","","{""generalProcedure"":""Watch a video of a ball falling, some of it behind a gray screen. After each video, drag a triangle to where I think the ball hit the triangle behind the screen.""}","","","","","","","","","","","","","","[0]","","","","","","","","","",""
"","","","","","survey-multi-choice","14","111210","0.0-7.0-1.0-1.0","630e641cdf91fa661bdba50d","64d3ef96556dbe1f0e02b5aa","64d68cc37bf27bae6214ab44","","9656","","","","","","","","","","","","","{""checkBallHitObstacle"":""Yes.""}","","","","","","","","","","","","","","[0]","","","","","","","","","",""
"","","","","","survey-multi-choice","15","114222","0.0-7.0-1.0-2.0","630e641cdf91fa661bdba50d","64d3ef96556dbe1f0e02b5aa","64d68cc37bf27bae6214ab44","","3011","","","","","","","","","","","","","{""checkTriangleVisibility"":""No, the triangle is hidden behind the gray screen.""}","","","","","","","","","","","","","","[0]","","","","","","","","","",""
"","","","","","instructions","16","121623","0.0-8.0","630e641cdf91fa661bdba50d","64d3ef96556dbe1f0e02b5aa","64d68cc37bf27bae6214ab44","[{""page_index"":0,""viewing_time"":7399}]","7399","","","","","","","","","","","","","","","","","","","","","","","","","","","","","","","","","","","","",""
"","","","","","html-keyboard-response","17","124627","0.0-9.0-0.0","630e641cdf91fa661bdba50d","64d3ef96556dbe1f0e02b5aa","64d68cc37bf27bae6214ab44","","null","","","","","","","","","","","","","null","","","fallScene","","","","","","","","","","","","false","62.01015999999986","322.3","296.07114317029976","371.46","3","1","","",""
"","","","","","html-keyboard-response","18","126913","0.0-9.0-1.0","630e641cdf91fa661bdba50d","64d3ef96556dbe1f0e02b5aa","64d68cc37bf27bae6214ab44","","","","","","","","","","","","","","","","","","","","","","","","342.99","313.0000000068452","2286.2999999970198","","","","","","","","","","","","",""
"","","","","","html-keyboard-response","18","126913","0.0-9.0-1.0","630e641cdf91fa661bdba50d","64d3ef96556dbe1f0e02b5aa","64d68cc37bf27bae6214ab44","","","","","","","","","","","","","","","","","","reconstruct","","","","","","342.99","313.0000000068452","2286.2999999970198","","","","","","","","","","1","3","500","250"
"","","","","","html-keyboard-response","19","129918","0.0-9.0-0.1","630e641cdf91fa661bdba50d","64d3ef96556dbe1f0e02b5aa","64d68cc37bf27bae6214ab44","","null","","","","","","","","","","","","","null","","","fallScene","","","","","","","","","","","","true","60.01427999999985","322.3","308.07114317029976","253.89","2","2","","",""
"","","","","","html-keyboard-response","20","132292","0.0-9.0-1.1","630e641cdf91fa661bdba50d","64d3ef96556dbe1f0e02b5aa","64d68cc37bf27bae6214ab44","","","","","","","","","","","","","","","","","","","","","","","","639.9999641913879","370.990000064113","2373.9000000059605","","","","","","","","","","","","",""
"","","","","","html-keyboard-response","20","132293","0.0-9.0-1.1","630e641cdf91fa661bdba50d","64d3ef96556dbe1f0e02b5aa","64d68cc37bf27bae6214ab44","","","","","","","","","","","","","","","","","","reconstruct","","","","","","639.9999641913879","370.990000064113","2373.9000000059605","","","","","","","","","","2","1","375","250"
"","","","","","html-keyboard-response","21","135297","0.0-9.0-0.2","630e641cdf91fa661bdba50d","64d3ef96556dbe1f0e02b5aa","64d68cc37bf27bae6214ab44","","null","","","","","","","","","","","","","null","","","fallScene","","","","","","","","","","","","false","61.984906000000485","322.3","356.42114317029973","357.87","4","3","","",""
"","","","","","html-keyboard-response","22","139199","0.0-9.0-1.2","630e641cdf91fa661bdba50d","64d3ef96556dbe1f0e02b5aa","64d68cc37bf27bae6214ab44","","","","","","","","","","","","","","","","","","","","","","","","341.9999993863794","313.0099999999812","3901.7000000029802","","","","","","","","","","","","",""
"","","","","","html-keyboard-response","22","139199","0.0-9.0-1.2","630e641cdf91fa661bdba50d","64d3ef96556dbe1f0e02b5aa","64d68cc37bf27bae6214ab44","","","","","","","","","","","","","","","","","","reconstruct","","","","","","341.9999993863794","313.0099999999812","3901.7000000029802","","","","","","","","","","3","1","375","250"
"","","","","","html-keyboard-response","23","142208","0.0-9.0-0.3","630e641cdf91fa661bdba50d","64d3ef96556dbe1f0e02b5aa","64d68cc37bf27bae6214ab44","","null","","","","","","","","","","","","","null","","","fallScene","","","","","","","","","","","","false","61.98447899999974","604.4000000000001","650.0211431702996","404.58000000000004","11","4","","",""
"","","","","","html-keyboard-response","24","145129","0.0-9.0-1.3","630e641cdf91fa661bdba50d","64d3ef96556dbe1f0e02b5aa","64d68cc37bf27bae6214ab44","","","","","","","","","","","","","","","","","","","","","","","","603.9962479615582","403.99073057674224","2920.1000000089407","","","","","","","","","","","","",""
"","","","","","html-keyboard-response","24","145129","0.0-9.0-1.3","630e641cdf91fa661bdba50d","64d3ef96556dbe1f0e02b5aa","64d68cc37bf27bae6214ab44","","","","","","","","","","","","","","","","","","reconstruct","","","","","","603.9962479615582","403.99073057674224","2920.1000000089407","","","","","","","","","","4","4","500","350"
"","","","","","html-keyboard-response","25","148131","0.0-9.0-0.4","630e641cdf91fa661bdba50d","64d3ef96556dbe1f0e02b5aa","64d68cc37bf27bae6214ab44","","null","","","","","","","","","","","","","null","","","fallScene","","","","","","","","","","","","false","60.001679999999475","500","479.92114317029973","330.87","6","5","","",""
"","","","","","html-keyboard-response","26","150675","0.0-9.0-1.4","630e641cdf91fa661bdba50d","64d3ef96556dbe1f0e02b5aa","64d68cc37bf27bae6214ab44","","","","","","","","","","","","","","","","","","","","","","","","490.9900001032833","306.9999545505154","2543.7999999970198","","","","","","","","","","","","",""
"","","","","","html-keyboard-response","26","150675","0.0-9.0-1.4","630e641cdf91fa661bdba50d","64d3ef96556dbe1f0e02b5aa","64d68cc37bf27bae6214ab44","","","","","","","","","","","","","","","","","","reconstruct","","","","","","490.9900001032833","306.9999545505154","2543.7999999970198","","","","","","","","","","5","1","375","250"
"","","","","","html-keyboard-response","27","153686","0.0-9.0-0.5","630e641cdf91fa661bdba50d","64d3ef96556dbe1f0e02b5aa","64d68cc37bf27bae6214ab44","","null","","","","","","","","","","","","","null","","","fallScene","","","","","","","","","","","","true","60.00600000000035","604.4000000000001","596.8711431702998","394.5","10","6","","",""
"","","","","","html-keyboard-response","28","155673","0.0-9.0-1.5","630e641cdf91fa661bdba50d","64d3ef96556dbe1f0e02b5aa","64d68cc37bf27bae6214ab44","","","","","","","","","","","","","","","","","","","","","","","","350.9900000000011","317.99999985125567","1987","","","","","","","","","","","","",""
"","","","","","html-keyboard-response","28","155673","0.0-9.0-1.5","630e641cdf91fa661bdba50d","64d3ef96556dbe1f0e02b5aa","64d68cc37bf27bae6214ab44","","","","","","","","","","","","","","","","","","reconstruct","","","","","","350.9900000000011","317.99999985125567","1987","","","","","","","","","","6","3","500","250"
"","","","","","html-keyboard-response","29","158684","0.0-9.0-0.6","630e641cdf91fa661bdba50d","64d3ef96556dbe1f0e02b5aa","64d68cc37bf27bae6214ab44","","null","","","","","","","","","","","","","null","","","fallScene","","","","","","","","","","","","true","62.013758999998586","604.4000000000001","575.4211431702997","266.76","12","7","","",""
"","","","","","html-keyboard-response","30","161640","0.0-9.0-1.6","630e641cdf91fa661bdba50d","64d3ef96556dbe1f0e02b5aa","64d68cc37bf27bae6214ab44","","","","","","","","","","","","","","","","","","","","","","","","421.99031860281735","315.997495893654","2955.7000000029802","","","","","","","","","","","","",""
"","","","","","html-keyboard-response","30","161640","0.0-9.0-1.6","630e641cdf91fa661bdba50d","64d3ef96556dbe1f0e02b5aa","64d68cc37bf27bae6214ab44","","","","","","","","","","","","","","","","","","reconstruct","","","","","","421.99031860281735","315.997495893654","2955.7000000029802","","","","","","","","","","7","2","375","350"
"","","","","","html-keyboard-response","31","164647","0.0-9.0-0.7","630e641cdf91fa661bdba50d","64d3ef96556dbe1f0e02b5aa","64d68cc37bf27bae6214ab44","","null","","","","","","","","","","","","","null","","","fallScene","","","","","","","","","","","","true","60.01818000000086","604.4000000000001","575.4211431702997","266.76","12","8","","",""
"","","","","","html-keyboard-response","32","166937","0.0-9.0-1.7","630e641cdf91fa661bdba50d","64d3ef96556dbe1f0e02b5aa","64d68cc37bf27bae6214ab44","","","","","","","","","","","","","","","","","","","","","","","","389.00984615113805","347.9982526283262","2289.1000000089407","","","","","","","","","","","","",""
"","","","","","html-keyboard-response","32","166937","0.0-9.0-1.7","630e641cdf91fa661bdba50d","64d3ef96556dbe1f0e02b5aa","64d68cc37bf27bae6214ab44","","","","","","","","","","","","","","","","","","reconstruct","","","","","","389.00984615113805","347.9982526283262","2289.1000000089407","","","","","","","","","","8","5","625","250"
"","","","","","html-keyboard-response","33","169938","0.0-9.0-0.8","630e641cdf91fa661bdba50d","64d3ef96556dbe1f0e02b5aa","64d68cc37bf27bae6214ab44","","null","","","","","","","","","","","","","null","","","fallScene","","","","","","","","","","","","false","60.000719999999276","604.4000000000001","667.6211431702998","201.78","9","9","","",""
"","","","","","html-keyboard-response","34","172338","0.0-9.0-1.8","630e641cdf91fa661bdba50d","64d3ef96556dbe1f0e02b5aa","64d68cc37bf27bae6214ab44","","","","","","","","","","","","","","","","","","","","","","","","589.999780971897","411.00999760104673","2399.0999999940395","","","","","","","","","","","","",""
"","","","","","html-keyboard-response","34","172338","0.0-9.0-1.8","630e641cdf91fa661bdba50d","64d3ef96556dbe1f0e02b5aa","64d68cc37bf27bae6214ab44","","","","","","","","","","","","","","","","","","reconstruct","","","","","","589.999780971897","411.00999760104673","2399.0999999940395","","","","","","","","","","9","2","375","350"
"","","","","","html-keyboard-response","35","175342","0.0-9.0-0.9","630e641cdf91fa661bdba50d","64d3ef96556dbe1f0e02b5aa","64d68cc37bf27bae6214ab44","","null","","","","","","","","","","","","","null","","","fallScene","","","","","","","","","","","","false","60.00053999999945","500","479.92114317029973","330.87","6","10","","",""
"","","","","","html-keyboard-response","36","177951","0.0-9.0-1.9","630e641cdf91fa661bdba50d","64d3ef96556dbe1f0e02b5aa","64d68cc37bf27bae6214ab44","","","","","","","","","","","","","","","","","","","","","","","","558.0094773130737","293.9968093046365","2608.5999999940395","","","","","","","","","","","","",""
"","","","","","html-keyboard-response","36","177951","0.0-9.0-1.9","630e641cdf91fa661bdba50d","64d3ef96556dbe1f0e02b5aa","64d68cc37bf27bae6214ab44","","","","","","","","","","","","","","","","","","reconstruct","","","","","","558.0094773130737","293.9968093046365","2608.5999999940395","","","","","","","","","","10","2","375","350"
"","","","","","html-keyboard-response","37","180954","0.0-9.0-0.10","630e641cdf91fa661bdba50d","64d3ef96556dbe1f0e02b5aa","64d68cc37bf27bae6214ab44","","null","","","","","","","","","","","","","null","","","fallScene","","","","","","","","","","","","false","62.00552399999981","500","553.4711431702997","282.51","7","11","","",""
"","","","","","html-keyboard-response","38","182829","0.0-9.0-1.10","630e641cdf91fa661bdba50d","64d3ef96556dbe1f0e02b5aa","64d68cc37bf27bae6214ab44","","","","","","","","","","","","","","","","","","","","","","","","450.0099816001544","339.9993936516197","1875.7000000029802","","","","","","","","","","","","",""
"","","","","","html-keyboard-response","38","182829","0.0-9.0-1.10","630e641cdf91fa661bdba50d","64d3ef96556dbe1f0e02b5aa","64d68cc37bf27bae6214ab44","","","","","","","","","","","","","","","","","","reconstruct","","","","","","450.0099816001544","339.9993936516197","1875.7000000029802","","","","","","","","","","11","3","500","250"
"","","","","","html-keyboard-response","39","185836","0.0-9.0-0.11","630e641cdf91fa661bdba50d","64d3ef96556dbe1f0e02b5aa","64d68cc37bf27bae6214ab44","","null","","","","","","","","","","","","","null","","","fallScene","","","","","","","","","","","","false","62.01229500000007","500","453.67114317029973","210.33","5","12","","",""
"","","","","","html-keyboard-response","40","188142","0.0-9.0-1.11","630e641cdf91fa661bdba50d","64d3ef96556dbe1f0e02b5aa","64d68cc37bf27bae6214ab44","","","","","","","","","","","","","","","","","","","","","","","","529.0000001610065","306.0099999999987","2305.8999999910593","","","","","","","","","","","","",""
"","","","","","html-keyboard-response","40","188142","0.0-9.0-1.11","630e641cdf91fa661bdba50d","64d3ef96556dbe1f0e02b5aa","64d68cc37bf27bae6214ab44","","","","","","","","","","","","","","","","","","reconstruct","","","","","","529.0000001610065","306.0099999999987","2305.8999999910593","","","","","","","","","","12","1","375","250"
"","","","","","html-keyboard-response","41","191153","0.0-9.0-0.12","630e641cdf91fa661bdba50d","64d3ef96556dbe1f0e02b5aa","64d68cc37bf27bae6214ab44","","null","","","","","","","","","","","","","null","","","fallScene","","","","","","","","","","","","true","62.006621999998686","500","453.67114317029973","210.33","5","13","","",""
"","","","","","html-keyboard-response","42","193256","0.0-9.0-1.12","630e641cdf91fa661bdba50d","64d3ef96556dbe1f0e02b5aa","64d68cc37bf27bae6214ab44","","","","","","","","","","","","","","","","","","","","","","","","444.9999999999673","304.99","2103.0999999940395","","","","","","","","","","","","",""
"","","","","","html-keyboard-response","42","193256","0.0-9.0-1.12","630e641cdf91fa661bdba50d","64d3ef96556dbe1f0e02b5aa","64d68cc37bf27bae6214ab44","","","","","","","","","","","","","","","","","","reconstruct","","","","","","444.9999999999673","304.99","2103.0999999940395","","","","","","","","","","13","4","500","350"
"","","","","","html-keyboard-response","43","196263","0.0-9.0-0.13","630e641cdf91fa661bdba50d","64d3ef96556dbe1f0e02b5aa","64d68cc37bf27bae6214ab44","","null","","","","","","","","","","","","","null","","","fallScene","","","","","","","","","","","","false","61.994544000000225","604.4000000000001","650.0211431702996","404.58000000000004","11","14","","",""
"","","","","","html-keyboard-response","44","198987","0.0-9.0-1.13","630e641cdf91fa661bdba50d","64d3ef96556dbe1f0e02b5aa","64d68cc37bf27bae6214ab44","","","","","","","","","","","","","","","","","","","","","","","","617.0001369758809","414.99000093816363","2724","","","","","","","","","","","","",""
"","","","","","html-keyboard-response","44","198987","0.0-9.0-1.13","630e641cdf91fa661bdba50d","64d3ef96556dbe1f0e02b5aa","64d68cc37bf27bae6214ab44","","","","","","","","","","","","","","","","","","reconstruct","","","","","","617.0001369758809","414.99000093816363","2724","","","","","","","","","","14","3","500","250"
"","","","","","html-keyboard-response","45","201992","0.0-9.0-0.14","630e641cdf91fa661bdba50d","64d3ef96556dbe1f0e02b5aa","64d68cc37bf27bae6214ab44","","null","","","","","","","","","","","","","null","","","fallScene","","","","","","","","","","","","true","60.00276000000012","604.4000000000001","667.6211431702998","201.78","9","15","","",""
"","","","","","html-keyboard-response","46","203934","0.0-9.0-1.14","630e641cdf91fa661bdba50d","64d3ef96556dbe1f0e02b5aa","64d68cc37bf27bae6214ab44","","","","","","","","","","","","","","","","","","","","","","","","411.0099747906452","356.99929038631325","1941.800000011921","","","","","","","","","","","","",""
"","","","","","html-keyboard-response","46","203934","0.0-9.0-1.14","630e641cdf91fa661bdba50d","64d3ef96556dbe1f0e02b5aa","64d68cc37bf27bae6214ab44","","","","","","","","","","","","","","","","","","reconstruct","","","","","","411.0099747906452","356.99929038631325","1941.800000011921","","","","","","","","","","15","4","500","350"
"","","","","","html-keyboard-response","47","206950","0.0-9.0-0.15","630e641cdf91fa661bdba50d","64d3ef96556dbe1f0e02b5aa","64d68cc37bf27bae6214ab44","","null","","","","","","","","","","","","","null","","","fallScene","","","","","","","","","","","","true","62.014613000000104","500","453.67114317029973","210.33","5","16","","",""
"","","","","","html-keyboard-response","48","210032","0.0-9.0-1.15","630e641cdf91fa661bdba50d","64d3ef96556dbe1f0e02b5aa","64d68cc37bf27bae6214ab44","","","","","","","","","","","","","","","","","","","","","","","","386.0099999936038","313.99998868963024","3081.9000000059605","","","","","","","","","","","","",""
"","","","","","html-keyboard-response","48","210032","0.0-9.0-1.15","630e641cdf91fa661bdba50d","64d3ef96556dbe1f0e02b5aa","64d68cc37bf27bae6214ab44","","","","","","","","","","","","","","","","","","reconstruct","","","","","","386.0099999936038","313.99998868963024","3081.9000000059605","","","","","","","","","","16","3","500","250"
"","","","","","html-keyboard-response","49","213034","0.0-9.0-0.16","630e641cdf91fa661bdba50d","64d3ef96556dbe1f0e02b5aa","64d68cc37bf27bae6214ab44","","null","","","","","","","","","","","","","null","","","fallScene","","","","","","","","","","","","true","62.00711000000057","604.4000000000001","596.8711431702998","394.5","10","17","","",""
"","","","","","html-keyboard-response","50","215990","0.0-9.0-1.16","630e641cdf91fa661bdba50d","64d3ef96556dbe1f0e02b5aa","64d68cc37bf27bae6214ab44","","","","","","","","","","","","","","","","","","","","","","","","333.0099995202754","313.00009795030417","2955.6000000089407","","","","","","","","","","","","",""
"","","","","","html-keyboard-response","50","215990","0.0-9.0-1.16","630e641cdf91fa661bdba50d","64d3ef96556dbe1f0e02b5aa","64d68cc37bf27bae6214ab44","","","","","","","","","","","","","","","","","","reconstruct","","","","","","333.0099995202754","313.00009795030417","2955.6000000089407","","","","","","","","","","17","1","375","250"
"","","","","","html-keyboard-response","51","218993","0.0-9.0-0.17","630e641cdf91fa661bdba50d","64d3ef96556dbe1f0e02b5aa","64d68cc37bf27bae6214ab44","","null","","","","","","","","","","","","","null","","","fallScene","","","","","","","","","","","","true","62.010465000000146","500","510.8711431702997","369.03","8","18","","",""
"","","","","","html-keyboard-response","52","221192","0.0-9.0-1.17","630e641cdf91fa661bdba50d","64d3ef96556dbe1f0e02b5aa","64d68cc37bf27bae6214ab44","","","","","","","","","","","","","","","","","","","","","","","","537.0099999725645","264.0000234245404","2199","","","","","","","","","","","","",""
"","","","","","html-keyboard-response","52","221192","0.0-9.0-1.17","630e641cdf91fa661bdba50d","64d3ef96556dbe1f0e02b5aa","64d68cc37bf27bae6214ab44","","","","","","","","","","","","","","","","","","reconstruct","","","","","","537.0099999725645","264.0000234245404","2199","","","","","","","","","","18","4","500","350"
"","","","","","html-button-response","53","222742","0.0-10.0","630e641cdf91fa661bdba50d","64d3ef96556dbe1f0e02b5aa","64d68cc37bf27bae6214ab44","","1550","","","","","","","","","","","","","0","","","","<p><span style = ""font-size:40px;"">BREAK</span></p><p>You are doing great! Click 'Next' when you are ready for the next set.</p>","","","","","","","","","","","","","","","","","","","",""
"","","","","","html-keyboard-response","54","225749","0.0-11.0-0.0","630e641cdf91fa661bdba50d","64d3ef96556dbe1f0e02b5aa","64d68cc37bf27bae6214ab44","","null","","","","","","","","","","","","","null","","","fallScene","","","","","","","","","","","","true","62.01180699999997","500","553.4711431702997","282.51","7","19","","",""
"","","","","","html-keyboard-response","55","227799","0.0-11.0-1.0","630e641cdf91fa661bdba50d","64d3ef96556dbe1f0e02b5aa","64d68cc37bf27bae6214ab44","","","","","","","","","","","","","","","","","","","","","","","","517.9900000011626","343.99999517792315","2049.5999999940395","","","","","","","","","","","","",""
"","","","","","html-keyboard-response","55","227799","0.0-11.0-1.0","630e641cdf91fa661bdba50d","64d3ef96556dbe1f0e02b5aa","64d68cc37bf27bae6214ab44","","","","","","","","","","","","","","","","","","reconstruct","","","","","","517.9900000011626","343.99999517792315","2049.5999999940395","","","","","","","","","","19","1","375","250"
"","","","","","html-keyboard-response","56","230804","0.0-11.0-0.1","630e641cdf91fa661bdba50d","64d3ef96556dbe1f0e02b5aa","64d68cc37bf27bae6214ab44","","null","","","","","","","","","","","","","null","","","fallScene","","","","","","","","","","","","true","62.00436499999978","604.4000000000001","596.8711431702998","394.5","10","20","","",""
"","","","","","html-keyboard-response","57","233756","0.0-11.0-1.1","630e641cdf91fa661bdba50d","64d3ef96556dbe1f0e02b5aa","64d68cc37bf27bae6214ab44","","","","","","","","","","","","","","","","","","","","","","","","362.9985569125215","310.0098953271057","2951.7000000029802","","","","","","","","","","","","",""
"","","","","","html-keyboard-response","57","233756","0.0-11.0-1.1","630e641cdf91fa661bdba50d","64d3ef96556dbe1f0e02b5aa","64d68cc37bf27bae6214ab44","","","","","","","","","","","","","","","","","","reconstruct","","","","","","362.9985569125215","310.0098953271057","2951.7000000029802","","","","","","","","","","20","2","375","350"
"","","","","","html-keyboard-response","58","236758","0.0-11.0-0.2","630e641cdf91fa661bdba50d","64d3ef96556dbe1f0e02b5aa","64d68cc37bf27bae6214ab44","","null","","","","","","","","","","","","","null","","","fallScene","","","","","","","","","","","","true","60.01469999999972","500","510.8711431702997","369.03","8","21","","",""
"","","","","","html-keyboard-response","59","239920","0.0-11.0-1.2","630e641cdf91fa661bdba50d","64d3ef96556dbe1f0e02b5aa","64d68cc37bf27bae6214ab44","","","","","","","","","","","","","","","","","","","","","","","","496.0070533221598","221.00708876904054","3162","","","","","","","","","","","","",""
"","","","","","html-keyboard-response","59","239920","0.0-11.0-1.2","630e641cdf91fa661bdba50d","64d3ef96556dbe1f0e02b5aa","64d68cc37bf27bae6214ab44","","","","","","","","","","","","","","","","","","reconstruct","","","","","","496.0070533221598","221.00708876904054","3162","","","","","","","","","","21","2","375","350"
"","","","","","html-keyboard-response","60","242927","0.0-11.0-0.3","630e641cdf91fa661bdba50d","64d3ef96556dbe1f0e02b5aa","64d68cc37bf27bae6214ab44","","null","","","","","","","","","","","","","null","","","fallScene","","","","","","","","","","","","true","62.01015999999986","500","479.92114317029973","330.87","6","22","","",""
"","","","","","html-keyboard-response","61","244881","0.0-11.0-1.3","630e641cdf91fa661bdba50d","64d3ef96556dbe1f0e02b5aa","64d68cc37bf27bae6214ab44","","","","","","","","","","","","","","","","","","","","","","","","455.00000000004036","291.01","1953.7000000029802","","","","","","","","","","","","",""
"","","","","","html-keyboard-response","61","244881","0.0-11.0-1.3","630e641cdf91fa661bdba50d","64d3ef96556dbe1f0e02b5aa","64d68cc37bf27bae6214ab44","","","","","","","","","","","","","","","","","","reconstruct","","","","","","455.00000000004036","291.01","1953.7000000029802","","","","","","","","","","22","4","500","350"
"","","","","","html-keyboard-response","62","247889","0.0-11.0-0.4","630e641cdf91fa661bdba50d","64d3ef96556dbe1f0e02b5aa","64d68cc37bf27bae6214ab44","","null","","","","","","","","","","","","","null","","","fallScene","","","","","","","","","","","","true","62.01302699999934","500","553.4711431702997","282.51","7","23","","",""
"","","","","","html-keyboard-response","63","250117","0.0-11.0-1.4","630e641cdf91fa661bdba50d","64d3ef96556dbe1f0e02b5aa","64d68cc37bf27bae6214ab44","","","","","","","","","","","","","","","","","","","","","","","","543.9999787590356","278.00999997744105","2227.6000000089407","","","","","","","","","","","","",""
"","","","","","html-keyboard-response","63","250117","0.0-11.0-1.4","630e641cdf91fa661bdba50d","64d3ef96556dbe1f0e02b5aa","64d68cc37bf27bae6214ab44","","","","","","","","","","","","","","","","","","reconstruct","","","","","","543.9999787590356","278.00999997744105","2227.6000000089407","","","","","","","","","","23","2","375","350"
"","","","","","html-keyboard-response","64","253130","0.0-11.0-0.5","630e641cdf91fa661bdba50d","64d3ef96556dbe1f0e02b5aa","64d68cc37bf27bae6214ab44","","null","","","","","","","","","","","","","null","","","fallScene","","","","","","","","","","","","false","62.03559700000083","500","479.92114317029973","330.87","6","24","","",""
"","","","","","html-keyboard-response","65","255130","0.0-11.0-1.5","630e641cdf91fa661bdba50d","64d3ef96556dbe1f0e02b5aa","64d68cc37bf27bae6214ab44","","","","","","","","","","","","","","","","","","","","","","","","537.0099998968129","281.99995457170047","1999.9000000059605","","","","","","","","","","","","",""
"","","","","","html-keyboard-response","65","255130","0.0-11.0-1.5","630e641cdf91fa661bdba50d","64d3ef96556dbe1f0e02b5aa","64d68cc37bf27bae6214ab44","","","","","","","","","","","","","","","","","","reconstruct","","","","","","537.0099998968129","281.99995457170047","1999.9000000059605","","","","","","","","","","24","6","625","350"
"","","","","","html-keyboard-response","66","258133","0.0-11.0-0.6","630e641cdf91fa661bdba50d","64d3ef96556dbe1f0e02b5aa","64d68cc37bf27bae6214ab44","","null","","","","","","","","","","","","","null","","","fallScene","","","","","","","","","","","","false","60.01619999999937","604.4000000000001","575.4211431702997","266.76","12","25","","",""
"","","","","","html-keyboard-response","67","260036","0.0-11.0-1.6","630e641cdf91fa661bdba50d","64d3ef96556dbe1f0e02b5aa","64d68cc37bf27bae6214ab44","","","","","","","","","","","","","","","","","","","","","","","","652.0000000025652","295.01","1902.3999999910593","","","","","","","","","","","","",""
"","","","","","html-keyboard-response","67","260036","0.0-11.0-1.6","630e641cdf91fa661bdba50d","64d3ef96556dbe1f0e02b5aa","64d68cc37bf27bae6214ab44","","","","","","","","","","","","","","","","","","reconstruct","","","","","","652.0000000025652","295.01","1902.3999999910593","","","","","","","","","","25","4","500","350"
"","","","","","html-keyboard-response","68","263038","0.0-11.0-0.7","630e641cdf91fa661bdba50d","64d3ef96556dbe1f0e02b5aa","64d68cc37bf27bae6214ab44","","null","","","","","","","","","","","","","null","","","fallScene","","","","","","","","","","","","false","62.004059999999505","322.3","308.07114317029976","253.89","2","26","","",""
"","","","","","html-keyboard-response","69","265464","0.0-11.0-1.7","630e641cdf91fa661bdba50d","64d3ef96556dbe1f0e02b5aa","64d68cc37bf27bae6214ab44","","","","","","","","","","","","","","","","","","","","","","","","381.9900001220196","254.99995059983112","2425.7000000029802","","","","","","","","","","","","",""
"","","","","","html-keyboard-response","69","265464","0.0-11.0-1.7","630e641cdf91fa661bdba50d","64d3ef96556dbe1f0e02b5aa","64d68cc37bf27bae6214ab44","","","","","","","","","","","","","","","","","","reconstruct","","","","","","381.9900001220196","254.99995059983112","2425.7000000029802","","","","","","","","","","26","4","500","350"
"","","","","","html-keyboard-response","70","268477","0.0-11.0-0.8","630e641cdf91fa661bdba50d","64d3ef96556dbe1f0e02b5aa","64d68cc37bf27bae6214ab44","","null","","","","","","","","","","","","","null","","","fallScene","","","","","","","","","","","","true","61.991738000001874","500","510.8711431702997","369.03","8","27","","",""
"","","","","","html-keyboard-response","71","270952","0.0-11.0-1.8","630e641cdf91fa661bdba50d","64d3ef96556dbe1f0e02b5aa","64d68cc37bf27bae6214ab44","","","","","","","","","","","","","","","","","","","","","","","","493.9910026209578","262.995635693598","2474.2999999970198","","","","","","","","","","","","",""
"","","","","","html-keyboard-response","71","270952","0.0-11.0-1.8","630e641cdf91fa661bdba50d","64d3ef96556dbe1f0e02b5aa","64d68cc37bf27bae6214ab44","","","","","","","","","","","","","","","","","","reconstruct","","","","","","493.9910026209578","262.995635693598","2474.2999999970198","","","","","","","","","","27","1","375","250"
"","","","","","html-keyboard-response","72","273957","0.0-11.0-0.9","630e641cdf91fa661bdba50d","64d3ef96556dbe1f0e02b5aa","64d68cc37bf27bae6214ab44","","null","","","","","","","","","","","","","null","","","fallScene","","","","","","","","","","","","true","61.99539799999819","604.4000000000001","596.8711431702998","394.5","10","28","","",""
"","","","","","html-keyboard-response","73","276873","0.0-11.0-1.9","630e641cdf91fa661bdba50d","64d3ef96556dbe1f0e02b5aa","64d68cc37bf27bae6214ab44","","","","","","","","","","","","","","","","","","","","","","","","376.00441916742244","330.00897056070113","2915.699999988079","","","","","","","","","","","","",""
"","","","","","html-keyboard-response","73","276873","0.0-11.0-1.9","630e641cdf91fa661bdba50d","64d3ef96556dbe1f0e02b5aa","64d68cc37bf27bae6214ab44","","","","","","","","","","","","","","","","","","reconstruct","","","","","","376.00441916742244","330.00897056070113","2915.699999988079","","","","","","","","","","28","6","625","350"
"","","","","","html-keyboard-response","74","279877","0.0-11.0-0.10","630e641cdf91fa661bdba50d","64d3ef96556dbe1f0e02b5aa","64d68cc37bf27bae6214ab44","","null","","","","","","","","","","","","","null","","","fallScene","","","","","","","","","","","","false","60.01596000000019","604.4000000000001","667.6211431702998","201.78","9","29","","",""
"","","","","","html-keyboard-response","75","283190","0.0-11.0-1.10","630e641cdf91fa661bdba50d","64d3ef96556dbe1f0e02b5aa","64d68cc37bf27bae6214ab44","","","","","","","","","","","","","","","","","","","","","","","","552.9900004999655","368.99990000469813","3312.5999999940395","","","","","","","","","","","","",""
"","","","","","html-keyboard-response","75","283190","0.0-11.0-1.10","630e641cdf91fa661bdba50d","64d3ef96556dbe1f0e02b5aa","64d68cc37bf27bae6214ab44","","","","","","","","","","","","","","","","","","reconstruct","","","","","","552.9900004999655","368.99990000469813","3312.5999999940395","","","","","","","","","","29","3","500","250"
"","","","","","html-keyboard-response","76","286193","0.0-11.0-0.11","630e641cdf91fa661bdba50d","64d3ef96556dbe1f0e02b5aa","64d68cc37bf27bae6214ab44","","null","","","","","","","","","","","","","null","","","fallScene","","","","","","","","","","","","false","62.008574000002646","604.4000000000001","650.0211431702996","404.58000000000004","11","30","","",""
"","","","","","html-keyboard-response","77","288839","0.0-11.0-1.11","630e641cdf91fa661bdba50d","64d3ef96556dbe1f0e02b5aa","64d68cc37bf27bae6214ab44","","","","","","","","","","","","","","","","","","","","","","","","595.01","345.99999999998914","2645","","","","","","","","","","","","",""
"","","","","","html-keyboard-response","77","288839","0.0-11.0-1.11","630e641cdf91fa661bdba50d","64d3ef96556dbe1f0e02b5aa","64d68cc37bf27bae6214ab44","","","","","","","","","","","","","","","","","","reconstruct","","","","","","595.01","345.99999999998914","2645","","","","","","","","","","30","1","375","250"
"","","","","","html-keyboard-response","78","291840","0.0-11.0-0.12","630e641cdf91fa661bdba50d","64d3ef96556dbe1f0e02b5aa","64d68cc37bf27bae6214ab44","","null","","","","","","","","","","","","","null","","","fallScene","","","","","","","","","","","","false","62.00954999999929","322.3","296.07114317029976","371.46","3","31","","",""
"","","","","","html-keyboard-response","79","294393","0.0-11.0-1.12","630e641cdf91fa661bdba50d","64d3ef96556dbe1f0e02b5aa","64d68cc37bf27bae6214ab44","","","","","","","","","","","","","","","","","","","","","","","","306.99018304993103","336.998095402577","2551.9000000059605","","","","","","","","","","","","",""
"","","","","","html-keyboard-response","79","294393","0.0-11.0-1.12","630e641cdf91fa661bdba50d","64d3ef96556dbe1f0e02b5aa","64d68cc37bf27bae6214ab44","","","","","","","","","","","","","","","","","","reconstruct","","","","","","306.99018304993103","336.998095402577","2551.9000000059605","","","","","","","","","","31","5","625","250"
"","","","","","html-keyboard-response","80","297406","0.0-11.0-0.13","630e641cdf91fa661bdba50d","64d3ef96556dbe1f0e02b5aa","64d68cc37bf27bae6214ab44","","null","","","","","","","","","","","","","null","","","fallScene","","","","","","","","","","","","false","62.01186799999931","500","510.8711431702997","369.03","8","32","","",""
"","","","","","html-keyboard-response","81","299393","0.0-11.0-1.13","630e641cdf91fa661bdba50d","64d3ef96556dbe1f0e02b5aa","64d68cc37bf27bae6214ab44","","","","","","","","","","","","","","","","","","","","","","","","484.0089194339432","286.9954785292069","1987.300000011921","","","","","","","","","","","","",""
"","","","","","html-keyboard-response","81","299393","0.0-11.0-1.13","630e641cdf91fa661bdba50d","64d3ef96556dbe1f0e02b5aa","64d68cc37bf27bae6214ab44","","","","","","","","","","","","","","","","","","reconstruct","","","","","","484.0089194339432","286.9954785292069","1987.300000011921","","","","","","","","","","32","3","500","250"
"","","","","","html-keyboard-response","82","302403","0.0-11.0-0.14","630e641cdf91fa661bdba50d","64d3ef96556dbe1f0e02b5aa","64d68cc37bf27bae6214ab44","","null","","","","","","","","","","","","","null","","","fallScene","","","","","","","","","","","","false","61.984479000001514","500","510.8711431702997","369.03","8","33","","",""
"","","","","","html-keyboard-response","83","304579","0.0-11.0-1.14","630e641cdf91fa661bdba50d","64d3ef96556dbe1f0e02b5aa","64d68cc37bf27bae6214ab44","","","","","","","","","","","","","","","","","","","","","","","","417.99000002804803","270.0000236845862","2176.0999999940395","","","","","","","","","","","","",""
"","","","","","html-keyboard-response","83","304579","0.0-11.0-1.14","630e641cdf91fa661bdba50d","64d3ef96556dbe1f0e02b5aa","64d68cc37bf27bae6214ab44","","","","","","","","","","","","","","","","","","reconstruct","","","","","","417.99000002804803","270.0000236845862","2176.0999999940395","","","","","","","","","","33","5","625","250"
"","","","","","html-keyboard-response","84","307591","0.0-11.0-0.15","630e641cdf91fa661bdba50d","64d3ef96556dbe1f0e02b5aa","64d68cc37bf27bae6214ab44","","null","","","","","","","","","","","","","null","","","fallScene","","","","","","","","","","","","true","61.98746799999789","322.3","308.07114317029976","253.89","2","34","","",""
"","","","","","html-keyboard-response","85","310017","0.0-11.0-1.15","630e641cdf91fa661bdba50d","64d3ef96556dbe1f0e02b5aa","64d68cc37bf27bae6214ab44","","","","","","","","","","","","","","","","","","","","","","","","627","280.01","2425.5","","","","","","","","","","","","",""
"","","","","","html-keyboard-response","85","310017","0.0-11.0-1.15","630e641cdf91fa661bdba50d","64d3ef96556dbe1f0e02b5aa","64d68cc37bf27bae6214ab44","","","","","","","","","","","","","","","","","","reconstruct","","","","","","627","280.01","2425.5","","","","","","","","","","34","2","375","350"
"","","","","","html-keyboard-response","86","313021","0.0-11.0-0.16","630e641cdf91fa661bdba50d","64d3ef96556dbe1f0e02b5aa","64d68cc37bf27bae6214ab44","","null","","","","","","","","","","","","","null","","","fallScene","","","","","","","","","","","","false","61.98789500000043","322.3","356.42114317029973","357.87","4","35","","",""
"","","","","","html-keyboard-response","87","315480","0.0-11.0-1.16","630e641cdf91fa661bdba50d","64d3ef96556dbe1f0e02b5aa","64d68cc37bf27bae6214ab44","","","","","","","","","","","","","","","","","","","","","","","","322.99","319","2459.5","","","","","","","","","","","","",""
"","","","","","html-keyboard-response","87","315480","0.0-11.0-1.16","630e641cdf91fa661bdba50d","64d3ef96556dbe1f0e02b5aa","64d68cc37bf27bae6214ab44","","","","","","","","","","","","","","","","","","reconstruct","","","","","","322.99","319","2459.5","","","","","","","","","","35","2","375","350"
"","","","","","html-keyboard-response","88","318490","0.0-11.0-0.17","630e641cdf91fa661bdba50d","64d3ef96556dbe1f0e02b5aa","64d68cc37bf27bae6214ab44","","null","","","","","","","","","","","","","null","","","fallScene","","","","","","","","","","","","true","60.019560000000055","500","553.4711431702997","282.51","7","36","","",""
"","","","","","html-keyboard-response","89","320924","0.0-11.0-1.17","630e641cdf91fa661bdba50d","64d3ef96556dbe1f0e02b5aa","64d68cc37bf27bae6214ab44","","","","","","","","","","","","","","","","","","","","","","","","491.9997292578346","298.0099963342621","2433.2999999970198","","","","","","","","","","","","",""
"","","","","","html-keyboard-response","89","320924","0.0-11.0-1.17","630e641cdf91fa661bdba50d","64d3ef96556dbe1f0e02b5aa","64d68cc37bf27bae6214ab44","","","","","","","","","","","","","","","","","","reconstruct","","","","","","491.9997292578346","298.0099963342621","2433.2999999970198","","","","","","","","","","36","5","625","250"
"","","","","","html-button-response","90","322650","0.0-12.0","630e641cdf91fa661bdba50d","64d3ef96556dbe1f0e02b5aa","64d68cc37bf27bae6214ab44","","1725","","","","","","","","","","","","","0","","","","<p><span style = ""font-size:40px;"">BREAK</span></p><p>You are halfway done! Click 'Next' when you are ready for the next set.</p>","","","","","","","","","","","","","","","","","","","",""
"","","","","","html-keyboard-response","91","325656","0.0-13.0-0.0","630e641cdf91fa661bdba50d","64d3ef96556dbe1f0e02b5aa","64d68cc37bf27bae6214ab44","","null","","","","","","","","","","","","","null","","","fallScene","","","","","","","","","","","","true","62.01259999999858","604.4000000000001","650.0211431702996","404.58000000000004","11","37","","",""
"","","","","","html-keyboard-response","92","328586","0.0-13.0-1.0","630e641cdf91fa661bdba50d","64d3ef96556dbe1f0e02b5aa","64d68cc37bf27bae6214ab44","","","","","","","","","","","","","","","","","","","","","","","","389.0000786405512","358.0099996907784","2928.5999999940395","","","","","","","","","","","","",""
"","","","","","html-keyboard-response","92","328586","0.0-13.0-1.0","630e641cdf91fa661bdba50d","64d3ef96556dbe1f0e02b5aa","64d68cc37bf27bae6214ab44","","","","","","","","","","","","","","","","","","reconstruct","","","","","","389.0000786405512","358.0099996907784","2928.5999999940395","","","","","","","","","","37","2","375","350"
"","","","","","html-keyboard-response","93","331589","0.0-13.0-0.1","630e641cdf91fa661bdba50d","64d3ef96556dbe1f0e02b5aa","64d68cc37bf27bae6214ab44","","null","","","","","","","","","","","","","null","","","fallScene","","","","","","","","","","","","false","62.00326700000267","322.3","379.3711431702997","245.25","1","38","","",""
"","","","","","html-keyboard-response","94","334206","0.0-13.0-1.1","630e641cdf91fa661bdba50d","64d3ef96556dbe1f0e02b5aa","64d68cc37bf27bae6214ab44","","","","","","","","","","","","","","","","","","","","","","","","302.99999314929636","235.00999999765338","2616.2000000029802","","","","","","","","","","","","",""
"","","","","","html-keyboard-response","94","334206","0.0-13.0-1.1","630e641cdf91fa661bdba50d","64d3ef96556dbe1f0e02b5aa","64d68cc37bf27bae6214ab44","","","","","","","","","","","","","","","","","","reconstruct","","","","","","302.99999314929636","235.00999999765338","2616.2000000029802","","","","","","","","","","38","6","625","350"
"","","","","","html-keyboard-response","95","337208","0.0-13.0-0.2","630e641cdf91fa661bdba50d","64d3ef96556dbe1f0e02b5aa","64d68cc37bf27bae6214ab44","","null","","","","","","","","","","","","","null","","","fallScene","","","","","","","","","","","","true","62.01138000000099","322.3","356.42114317029973","357.87","4","39","","",""
"","","","","","html-keyboard-response","96","340455","0.0-13.0-1.2","630e641cdf91fa661bdba50d","64d3ef96556dbe1f0e02b5aa","64d68cc37bf27bae6214ab44","","","","","","","","","","","","","","","","","","","","","","","","671.0000045705577","302.9900000010445","3247","","","","","","","","","","","","",""
"","","","","","html-keyboard-response","96","340455","0.0-13.0-1.2","630e641cdf91fa661bdba50d","64d3ef96556dbe1f0e02b5aa","64d68cc37bf27bae6214ab44","","","","","","","","","","","","","","","","","","reconstruct","","","","","","671.0000045705577","302.9900000010445","3247","","","","","","","","","","39","3","500","250"
"","","","","","html-keyboard-response","97","343458","0.0-13.0-0.3","630e641cdf91fa661bdba50d","64d3ef96556dbe1f0e02b5aa","64d68cc37bf27bae6214ab44","","null","","","","","","","","","","","","","null","","","fallScene","","","","","","","","","","","","true","62.011745999997075","500","453.67114317029973","210.33","5","40","","",""
"","","","","","html-keyboard-response","98","347931","0.0-13.0-1.3","630e641cdf91fa661bdba50d","64d3ef96556dbe1f0e02b5aa","64d68cc37bf27bae6214ab44","","","","","","","","","","","","","","","","","","","","","","","","459.01064543472575","318.01398137950815","4472.600000008941","","","","","","","","","","","","",""
"","","","","","html-keyboard-response","98","347931","0.0-13.0-1.3","630e641cdf91fa661bdba50d","64d3ef96556dbe1f0e02b5aa","64d68cc37bf27bae6214ab44","","","","","","","","","","","","","","","","","","reconstruct","","","","","","459.01064543472575","318.01398137950815","4472.600000008941","","","","","","","","","","40","5","625","250"
"","","","","","html-keyboard-response","99","350936","0.0-13.0-0.4","630e641cdf91fa661bdba50d","64d3ef96556dbe1f0e02b5aa","64d68cc37bf27bae6214ab44","","null","","","","","","","","","","","","","null","","","fallScene","","","","","","","","","","","","true","61.99362899999937","322.3","296.07114317029976","371.46","3","41","","",""
"","","","","","html-keyboard-response","100","353432","0.0-13.0-1.4","630e641cdf91fa661bdba50d","64d3ef96556dbe1f0e02b5aa","64d68cc37bf27bae6214ab44","","","","","","","","","","","","","","","","","","","","","","","","666.99","343.0000000010004","2496","","","","","","","","","","","","",""
"","","","","","html-keyboard-response","100","353432","0.0-13.0-1.4","630e641cdf91fa661bdba50d","64d3ef96556dbe1f0e02b5aa","64d68cc37bf27bae6214ab44","","","","","","","","","","","","","","","","","","reconstruct","","","","","","666.99","343.0000000010004","2496","","","","","","","","","","41","4","500","350"
"","","","","","html-keyboard-response","101","356436","0.0-13.0-0.5","630e641cdf91fa661bdba50d","64d3ef96556dbe1f0e02b5aa","64d68cc37bf27bae6214ab44","","null","","","","","","","","","","","","","null","","","fallScene","","","","","","","","","","","","true","52.00738399999961","322.3","308.07114317029976","253.89","2","42","","",""
"","","","","","html-keyboard-response","102","359072","0.0-13.0-1.5","630e641cdf91fa661bdba50d","64d3ef96556dbe1f0e02b5aa","64d68cc37bf27bae6214ab44","","","","","","","","","","","","","","","","","","","","","","","","644.00801226144","253.99401638348337","2636.1000000089407","","","","","","","","","","","","",""
"","","","","","html-keyboard-response","102","359072","0.0-13.0-1.5","630e641cdf91fa661bdba50d","64d3ef96556dbe1f0e02b5aa","64d68cc37bf27bae6214ab44","","","","","","","","","","","","","","","","","","reconstruct","","","","","","644.00801226144","253.99401638348337","2636.1000000089407","","","","","","","","","","42","3","500","250"
"","","","","","html-keyboard-response","103","362081","0.0-13.0-0.6","630e641cdf91fa661bdba50d","64d3ef96556dbe1f0e02b5aa","64d68cc37bf27bae6214ab44","","null","","","","","","","","","","","","","null","","","fallScene","","","","","","","","","","","","false","49.005439000001644","322.3","308.07114317029976","253.89","2","43","","",""
"","","","","","html-keyboard-response","104","365625","0.0-13.0-1.6","630e641cdf91fa661bdba50d","64d3ef96556dbe1f0e02b5aa","64d68cc37bf27bae6214ab44","","","","","","","","","","","","","","","","","","","","","","","","313.99000078917965","231.00012563028986","3543.2999999970198","","","","","","","","","","","","",""
"","","","","","html-keyboard-response","104","365625","0.0-13.0-1.6","630e641cdf91fa661bdba50d","64d3ef96556dbe1f0e02b5aa","64d68cc37bf27bae6214ab44","","","","","","","","","","","","","","","","","","reconstruct","","","","","","313.99000078917965","231.00012563028986","3543.2999999970198","","","","","","","","","","43","5","625","250"
"","","","","","html-keyboard-response","105","368630","0.0-13.0-0.7","630e641cdf91fa661bdba50d","64d3ef96556dbe1f0e02b5aa","64d68cc37bf27bae6214ab44","","null","","","","","","","","","","","","","null","","","fallScene","","","","","","","","","","","","true","48.77385599999875","500","510.8711431702997","369.03","8","44","","",""
"","","","","","html-keyboard-response","106","371807","0.0-13.0-1.7","630e641cdf91fa661bdba50d","64d3ef96556dbe1f0e02b5aa","64d68cc37bf27bae6214ab44","","","","","","","","","","","","","","","","","","","","","","","","603.9900000000346","327.0000008320759","3176.7999999970198","","","","","","","","","","","","",""
"","","","","","html-keyboard-response","106","371807","0.0-13.0-1.7","630e641cdf91fa661bdba50d","64d3ef96556dbe1f0e02b5aa","64d68cc37bf27bae6214ab44","","","","","","","","","","","","","","","","","","reconstruct","","","","","","603.9900000000346","327.0000008320759","3176.7999999970198","","","","","","","","","","44","6","625","350"
"","","","","","html-keyboard-response","107","374809","0.0-13.0-0.8","630e641cdf91fa661bdba50d","64d3ef96556dbe1f0e02b5aa","64d68cc37bf27bae6214ab44","","null","","","","","","","","","","","","","null","","","fallScene","","","","","","","","","","","","true","62.01662599999807","604.4000000000001","575.4211431702997","266.76","12","45","","",""
"","","","","","html-keyboard-response","108","377455","0.0-13.0-1.8","630e641cdf91fa661bdba50d","64d3ef96556dbe1f0e02b5aa","64d68cc37bf27bae6214ab44","","","","","","","","","","","","","","","","","","","","","","","","358.0099999999997","349.9999999229719","2646.0999999940395","","","","","","","","","","","","",""
"","","","","","html-keyboard-response","108","377455","0.0-13.0-1.8","630e641cdf91fa661bdba50d","64d3ef96556dbe1f0e02b5aa","64d68cc37bf27bae6214ab44","","","","","","","","","","","","","","","","","","reconstruct","","","","","","358.0099999999997","349.9999999229719","2646.0999999940395","","","","","","","","","","45","1","375","250"
"","","","","","html-keyboard-response","109","380459","0.0-13.0-0.9","630e641cdf91fa661bdba50d","64d3ef96556dbe1f0e02b5aa","64d68cc37bf27bae6214ab44","","null","","","","","","","","","","","","","null","","","fallScene","","","","","","","","","","","","true","51.00112199999986","604.4000000000001","575.4211431702997","266.76","12","46","","",""
"","","","","","html-keyboard-response","110","383109","0.0-13.0-1.9","630e641cdf91fa661bdba50d","64d3ef96556dbe1f0e02b5aa","64d68cc37bf27bae6214ab44","","","","","","","","","","","","","","","","","","","","","","","","348.0000003122866","355.9900000000049","2650.0999999940395","","","","","","","","","","","","",""
"","","","","","html-keyboard-response","110","383109","0.0-13.0-1.9","630e641cdf91fa661bdba50d","64d3ef96556dbe1f0e02b5aa","64d68cc37bf27bae6214ab44","","","","","","","","","","","","","","","","","","reconstruct","","","","","","348.0000003122866","355.9900000000049","2650.0999999940395","","","","","","","","","","46","3","500","250"
"","","","","","html-keyboard-response","111","386110","0.0-13.0-0.10","630e641cdf91fa661bdba50d","64d3ef96556dbe1f0e02b5aa","64d68cc37bf27bae6214ab44","","null","","","","","","","","","","","","","null","","","fallScene","","","","","","","","","","","","false","46.75536599999875","322.3","308.07114317029976","253.89","2","47","","",""
"","","","","","html-keyboard-response","112","389234","0.0-13.0-1.10","630e641cdf91fa661bdba50d","64d3ef96556dbe1f0e02b5aa","64d68cc37bf27bae6214ab44","","","","","","","","","","","","","","","","","","","","","","","","355.01","239","3123.7000000029802","","","","","","","","","","","","",""
"","","","","","html-keyboard-response","112","389234","0.0-13.0-1.10","630e641cdf91fa661bdba50d","64d3ef96556dbe1f0e02b5aa","64d68cc37bf27bae6214ab44","","","","","","","","","","","","","","","","","","reconstruct","","","","","","355.01","239","3123.7000000029802","","","","","","","","","","47","6","625","350"
"","","","","","html-keyboard-response","113","392247","0.0-13.0-0.11","630e641cdf91fa661bdba50d","64d3ef96556dbe1f0e02b5aa","64d68cc37bf27bae6214ab44","","null","","","","","","","","","","","","","null","","","fallScene","","","","","","","","","","","","true","46.49120999999898","322.3","296.07114317029976","371.46","3","48","","",""
"","","","","","html-keyboard-response","114","394405","0.0-13.0-1.11","630e641cdf91fa661bdba50d","64d3ef96556dbe1f0e02b5aa","64d68cc37bf27bae6214ab44","","","","","","","","","","","","","","","","","","","","","","","","674.000000001617","398.99","2157.2999999970198","","","","","","","","","","","","",""
"","","","","","html-keyboard-response","114","394405","0.0-13.0-1.11","630e641cdf91fa661bdba50d","64d3ef96556dbe1f0e02b5aa","64d68cc37bf27bae6214ab44","","","","","","","","","","","","","","","","","","reconstruct","","","","","","674.000000001617","398.99","2157.2999999970198","","","","","","","","","","48","1","375","250"
"","","","","","html-keyboard-response","115","397406","0.0-13.0-0.12","630e641cdf91fa661bdba50d","64d3ef96556dbe1f0e02b5aa","64d68cc37bf27bae6214ab44","","null","","","","","","","","","","","","","null","","","fallScene","","","","","","","","","","","","true","45.44535599999945","322.3","296.07114317029976","371.46","3","49","","",""
"","","","","","html-keyboard-response","116","399429","0.0-13.0-1.12","630e641cdf91fa661bdba50d","64d3ef96556dbe1f0e02b5aa","64d68cc37bf27bae6214ab44","","","","","","","","","","","","","","","","","","","","","","","","639.9900051401917","349.00032058916474","2022.8999999910593","","","","","","","","","","","","",""
"","","","","","html-keyboard-response","116","399429","0.0-13.0-1.12","630e641cdf91fa661bdba50d","64d3ef96556dbe1f0e02b5aa","64d68cc37bf27bae6214ab44","","","","","","","","","","","","","","","","","","reconstruct","","","","","","639.9900051401917","349.00032058916474","2022.8999999910593","","","","","","","","","","49","2","375","350"
"","","","","","html-keyboard-response","117","402432","0.0-13.0-0.13","630e641cdf91fa661bdba50d","64d3ef96556dbe1f0e02b5aa","64d68cc37bf27bae6214ab44","","null","","","","","","","","","","","","","null","","","fallScene","","","","","","","","","","","","true","44.44075799999975","500","553.4711431702997","282.51","7","50","","",""
"","","","","","html-keyboard-response","118","404951","0.0-13.0-1.13","630e641cdf91fa661bdba50d","64d3ef96556dbe1f0e02b5aa","64d68cc37bf27bae6214ab44","","","","","","","","","","","","","","","","","","","","","","","","499.0095383179306","313.00300341323407","2518.2999999970198","","","","","","","","","","","","",""
"","","","","","html-keyboard-response","118","404951","0.0-13.0-1.13","630e641cdf91fa661bdba50d","64d3ef96556dbe1f0e02b5aa","64d68cc37bf27bae6214ab44","","","","","","","","","","","","","","","","","","reconstruct","","","","","","499.0095383179306","313.00300341323407","2518.2999999970198","","","","","","","","","","50","4","500","350"
"","","","","","html-keyboard-response","119","407958","0.0-13.0-0.14","630e641cdf91fa661bdba50d","64d3ef96556dbe1f0e02b5aa","64d68cc37bf27bae6214ab44","","null","","","","","","","","","","","","","null","","","fallScene","","","","","","","","","","","","true","62.00021699999982","322.3","296.07114317029976","371.46","3","51","","",""
"","","","","","html-keyboard-response","120","410563","0.0-13.0-1.14","630e641cdf91fa661bdba50d","64d3ef96556dbe1f0e02b5aa","64d68cc37bf27bae6214ab44","","","","","","","","","","","","","","","","","","","","","","","","675.9998802250789","396.9900007173273","2604.5","","","","","","","","","","","","",""
"","","","","","html-keyboard-response","120","410563","0.0-13.0-1.14","630e641cdf91fa661bdba50d","64d3ef96556dbe1f0e02b5aa","64d68cc37bf27bae6214ab44","","","","","","","","","","","","","","","","","","reconstruct","","","","","","675.9998802250789","396.9900007173273","2604.5","","","","","","","","","","51","6","625","350"
"","","","","","html-keyboard-response","121","413571","0.0-13.0-0.15","630e641cdf91fa661bdba50d","64d3ef96556dbe1f0e02b5aa","64d68cc37bf27bae6214ab44","","null","","","","","","","","","","","","","null","","","fallScene","","","","","","","","","","","","false","47.75768699999928","604.4000000000001","596.8711431702998","394.5","10","52","","",""
"","","","","","html-keyboard-response","122","416989","0.0-13.0-1.15","630e641cdf91fa661bdba50d","64d3ef96556dbe1f0e02b5aa","64d68cc37bf27bae6214ab44","","","","","","","","","","","","","","","","","","","","","","","","670.9929281098654","293.00707024539344","3417.7000000029802","","","","","","","","","","","","",""
"","","","","","html-keyboard-response","122","416989","0.0-13.0-1.15","630e641cdf91fa661bdba50d","64d3ef96556dbe1f0e02b5aa","64d68cc37bf27bae6214ab44","","","","","","","","","","","","","","","","","","reconstruct","","","","","","670.9929281098654","293.00707024539344","3417.7000000029802","","","","","","","","","","52","5","625","250"
"","","","","","html-keyboard-response","123","419991","0.0-13.0-0.16","630e641cdf91fa661bdba50d","64d3ef96556dbe1f0e02b5aa","64d68cc37bf27bae6214ab44","","null","","","","","","","","","","","","","null","","","fallScene","","","","","","","","","","","","true","41.695687999999734","604.4000000000001","650.0211431702996","404.58000000000004","11","53","","",""
"","","","","","html-keyboard-response","124","422613","0.0-13.0-1.16","630e641cdf91fa661bdba50d","64d3ef96556dbe1f0e02b5aa","64d68cc37bf27bae6214ab44","","","","","","","","","","","","","","","","","","","","","","","","364.9999647679439","392.00999993793494","2621.5","","","","","","","","","","","","",""
"","","","","","html-keyboard-response","124","422613","0.0-13.0-1.16","630e641cdf91fa661bdba50d","64d3ef96556dbe1f0e02b5aa","64d68cc37bf27bae6214ab44","","","","","","","","","","","","","","","","","","reconstruct","","","","","","364.9999647679439","392.00999993793494","2621.5","","","","","","","","","","53","6","625","350"
"","","","","","html-keyboard-response","125","425615","0.0-13.0-0.17","630e641cdf91fa661bdba50d","64d3ef96556dbe1f0e02b5aa","64d68cc37bf27bae6214ab44","","null","","","","","","","","","","","","","null","","","fallScene","","","","","","","","","","","","false","41.31483999999938","322.3","379.3711431702997","245.25","1","54","","",""
"","","","","","html-keyboard-response","126","429016","0.0-13.0-1.17","630e641cdf91fa661bdba50d","64d3ef96556dbe1f0e02b5aa","64d68cc37bf27bae6214ab44","","","","","","","","","","","","","","","","","","","","","","","","333.99524378612887","252.00879650098688","3401","","","","","","","","","","","","",""
"","","","","","html-keyboard-response","126","429016","0.0-13.0-1.17","630e641cdf91fa661bdba50d","64d3ef96556dbe1f0e02b5aa","64d68cc37bf27bae6214ab44","","","","","","","","","","","","","","","","","","reconstruct","","","","","","333.99524378612887","252.00879650098688","3401","","","","","","","","","","54","4","500","350"
"","","","","","html-button-response","127","430912","0.0-14.0","630e641cdf91fa661bdba50d","64d3ef96556dbe1f0e02b5aa","64d68cc37bf27bae6214ab44","","1894","","","","","","","","","","","","","0","","","","<p><span style = ""font-size:40px;"">BREAK</span></p><p>You are almost done! Click 'Next' when you are ready for the next set.</p>","","","","","","","","","","","","","","","","","","","",""
"","","","","","html-keyboard-response","128","433927","0.0-15.0-0.0","630e641cdf91fa661bdba50d","64d3ef96556dbe1f0e02b5aa","64d68cc37bf27bae6214ab44","","null","","","","","","","","","","","","","null","","","fallScene","","","","","","","","","","","","false","39.646854000000396","604.4000000000001","667.6211431702998","201.78","9","55","","",""
"","","","","","html-keyboard-response","129","436545","0.0-15.0-1.0","630e641cdf91fa661bdba50d","64d3ef96556dbe1f0e02b5aa","64d68cc37bf27bae6214ab44","","","","","","","","","","","","","","","","","","","","","","","","595.0098512547609","371.0017183653969","2617.9000000059605","","","","","","","","","","","","",""
"","","","","","html-keyboard-response","129","436545","0.0-15.0-1.0","630e641cdf91fa661bdba50d","64d3ef96556dbe1f0e02b5aa","64d68cc37bf27bae6214ab44","","","","","","","","","","","","","","","","","","reconstruct","","","","","","595.0098512547609","371.0017183653969","2617.9000000059605","","","","","","","","","","55","1","375","250"
"","","","","","html-keyboard-response","130","439551","0.0-15.0-0.1","630e641cdf91fa661bdba50d","64d3ef96556dbe1f0e02b5aa","64d68cc37bf27bae6214ab44","","null","","","","","","","","","","","","","null","","","fallScene","","","","","","","","","","","","true","40.66223999999929","322.3","379.3711431702997","245.25","1","56","","",""
"","","","","","html-keyboard-response","131","442199","0.0-15.0-1.1","630e641cdf91fa661bdba50d","64d3ef96556dbe1f0e02b5aa","64d68cc37bf27bae6214ab44","","","","","","","","","","","","","","","","","","","","","","","","695.9900000000001","270.00000003846014","2647.7999999970198","","","","","","","","","","","","",""
"","","","","","html-keyboard-response","131","442199","0.0-15.0-1.1","630e641cdf91fa661bdba50d","64d3ef96556dbe1f0e02b5aa","64d68cc37bf27bae6214ab44","","","","","","","","","","","","","","","","","","reconstruct","","","","","","695.9900000000001","270.00000003846014","2647.7999999970198","","","","","","","","","","56","5","625","250"
"","","","","","html-keyboard-response","132","445201","0.0-15.0-0.2","630e641cdf91fa661bdba50d","64d3ef96556dbe1f0e02b5aa","64d68cc37bf27bae6214ab44","","null","","","","","","","","","","","","","null","","","fallScene","","","","","","","","","","","","true","38.62586000000115","500","553.4711431702997","282.51","7","57","","",""
"","","","","","html-keyboard-response","133","448728","0.0-15.0-1.2","630e641cdf91fa661bdba50d","64d3ef96556dbe1f0e02b5aa","64d68cc37bf27bae6214ab44","","","","","","","","","","","","","","","","","","","","","","","","523.9900005152494","348.0001015121887","3526.7999999970198","","","","","","","","","","","","",""
"","","","","","html-keyboard-response","133","448728","0.0-15.0-1.2","630e641cdf91fa661bdba50d","64d3ef96556dbe1f0e02b5aa","64d68cc37bf27bae6214ab44","","","","","","","","","","","","","","","","","","reconstruct","","","","","","523.9900005152494","348.0001015121887","3526.7999999970198","","","","","","","","","","57","6","625","350"
"","","","","","html-keyboard-response","134","451735","0.0-15.0-0.3","630e641cdf91fa661bdba50d","64d3ef96556dbe1f0e02b5aa","64d68cc37bf27bae6214ab44","","null","","","","","","","","","","","","","null","","","fallScene","","","","","","","","","","","","true","37.61294199999969","604.4000000000001","667.6211431702998","201.78","9","58","","",""
"","","","","","html-keyboard-response","135","455226","0.0-15.0-1.3","630e641cdf91fa661bdba50d","64d3ef96556dbe1f0e02b5aa","64d68cc37bf27bae6214ab44","","","","","","","","","","","","","","","","","","","","","","","","397.99199353931334","281.00599137607503","3490","","","","","","","","","","","","",""
"","","","","","html-keyboard-response","135","455226","0.0-15.0-1.3","630e641cdf91fa661bdba50d","64d3ef96556dbe1f0e02b5aa","64d68cc37bf27bae6214ab44","","","","","","","","","","","","","","","","","","reconstruct","","","","","","397.99199353931334","281.00599137607503","3490","","","","","","","","","","58","6","625","350"
"","","","","","html-keyboard-response","136","458229","0.0-15.0-0.4","630e641cdf91fa661bdba50d","64d3ef96556dbe1f0e02b5aa","64d68cc37bf27bae6214ab44","","null","","","","","","","","","","","","","null","","","fallScene","","","","","","","","","","","","false","36.00990000000084","604.4000000000001","575.4211431702997","266.76","12","59","","",""
"","","","","","html-keyboard-response","137","460667","0.0-15.0-1.4","630e641cdf91fa661bdba50d","64d3ef96556dbe1f0e02b5aa","64d68cc37bf27bae6214ab44","","","","","","","","","","","","","","","","","","","","","","","","620.9999993854293","284.0099999999811","2437.7999999970198","","","","","","","","","","","","",""
"","","","","","html-keyboard-response","137","460667","0.0-15.0-1.4","630e641cdf91fa661bdba50d","64d3ef96556dbe1f0e02b5aa","64d68cc37bf27bae6214ab44","","","","","","","","","","","","","","","","","","reconstruct","","","","","","620.9999993854293","284.0099999999811","2437.7999999970198","","","","","","","","","","59","6","625","350"
"","","","","","html-keyboard-response","138","463674","0.0-15.0-0.5","630e641cdf91fa661bdba50d","64d3ef96556dbe1f0e02b5aa","64d68cc37bf27bae6214ab44","","null","","","","","","","","","","","","","null","","","fallScene","","","","","","","","","","","","false","36.59619599999953","500","479.92114317029973","330.87","6","60","","",""
"","","","","","html-keyboard-response","139","466724","0.0-15.0-1.5","630e641cdf91fa661bdba50d","64d3ef96556dbe1f0e02b5aa","64d68cc37bf27bae6214ab44","","","","","","","","","","","","","","","","","","","","","","","","495.99000000000024","286.00000006521725","3049.7000000029802","","","","","","","","","","","","",""
"","","","","","html-keyboard-response","139","466724","0.0-15.0-1.5","630e641cdf91fa661bdba50d","64d3ef96556dbe1f0e02b5aa","64d68cc37bf27bae6214ab44","","","","","","","","","","","","","","","","","","reconstruct","","","","","","495.99000000000024","286.00000006521725","3049.7000000029802","","","","","","","","","","60","5","625","250"
"","","","","","html-keyboard-response","140","469734","0.0-15.0-0.6","630e641cdf91fa661bdba50d","64d3ef96556dbe1f0e02b5aa","64d68cc37bf27bae6214ab44","","null","","","","","","","","","","","","","null","","","fallScene","","","","","","","","","","","","true","36.600875999999694","322.3","356.42114317029973","357.87","4","61","","",""
"","","","","","html-keyboard-response","141","474434","0.0-15.0-1.6","630e641cdf91fa661bdba50d","64d3ef96556dbe1f0e02b5aa","64d68cc37bf27bae6214ab44","","","","","","","","","","","","","","","","","","","","","","","","712.0050333420635","284.99135908178073","4699.0999999940395","","","","","","","","","","","","",""
"","","","","","html-keyboard-response","141","474434","0.0-15.0-1.6","630e641cdf91fa661bdba50d","64d3ef96556dbe1f0e02b5aa","64d68cc37bf27bae6214ab44","","","","","","","","","","","","","","","","","","reconstruct","","","","","","712.0050333420635","284.99135908178073","4699.0999999940395","","","","","","","","","","61","6","625","350"
"","","","","","html-keyboard-response","142","477437","0.0-15.0-0.7","630e641cdf91fa661bdba50d","64d3ef96556dbe1f0e02b5aa","64d68cc37bf27bae6214ab44","","null","","","","","","","","","","","","","null","","","fallScene","","","","","","","","","","","","false","34.006086000000124","322.3","379.3711431702997","245.25","1","62","","",""
"","","","","","html-keyboard-response","143","480682","0.0-15.0-1.7","630e641cdf91fa661bdba50d","64d3ef96556dbe1f0e02b5aa","64d68cc37bf27bae6214ab44","","","","","","","","","","","","","","","","","","","","","","","","316.01","281.99999999999915","3245.2999999970198","","","","","","","","","","","","",""
"","","","","","html-keyboard-response","143","480682","0.0-15.0-1.7","630e641cdf91fa661bdba50d","64d3ef96556dbe1f0e02b5aa","64d68cc37bf27bae6214ab44","","","","","","","","","","","","","","","","","","reconstruct","","","","","","316.01","281.99999999999915","3245.2999999970198","","","","","","","","","","62","3","500","250"
"","","","","","html-keyboard-response","144","483684","0.0-15.0-0.8","630e641cdf91fa661bdba50d","64d3ef96556dbe1f0e02b5aa","64d68cc37bf27bae6214ab44","","null","","","","","","","","","","","","","null","","","fallScene","","","","","","","","","","","","false","34.0057459999998","322.3","356.42114317029973","357.87","4","63","","",""
"","","","","","html-keyboard-response","145","486322","0.0-15.0-1.8","630e641cdf91fa661bdba50d","64d3ef96556dbe1f0e02b5aa","64d68cc37bf27bae6214ab44","","","","","","","","","","","","","","","","","","","","","","","","330.99999184589404","319.0099999966755","2637.800000011921","","","","","","","","","","","","",""
"","","","","","html-keyboard-response","145","486322","0.0-15.0-1.8","630e641cdf91fa661bdba50d","64d3ef96556dbe1f0e02b5aa","64d68cc37bf27bae6214ab44","","","","","","","","","","","","","","","","","","reconstruct","","","","","","330.99999184589404","319.0099999966755","2637.800000011921","","","","","","","","","","63","4","500","350"
"","","","","","html-keyboard-response","146","489327","0.0-15.0-0.9","630e641cdf91fa661bdba50d","64d3ef96556dbe1f0e02b5aa","64d68cc37bf27bae6214ab44","","null","","","","","","","","","","","","","null","","","fallScene","","","","","","","","","","","","false","61.990335000002695","500","479.92114317029973","330.87","6","64","","",""
"","","","","","html-keyboard-response","147","492091","0.0-15.0-1.9","630e641cdf91fa661bdba50d","64d3ef96556dbe1f0e02b5aa","64d68cc37bf27bae6214ab44","","","","","","","","","","","","","","","","","","","","","","","","543.9999537705922","310.0099998931415","2763.2999999970198","","","","","","","","","","","","",""
"","","","","","html-keyboard-response","147","492091","0.0-15.0-1.9","630e641cdf91fa661bdba50d","64d3ef96556dbe1f0e02b5aa","64d68cc37bf27bae6214ab44","","","","","","","","","","","","","","","","","","reconstruct","","","","","","543.9999537705922","310.0099998931415","2763.2999999970198","","","","","","","","","","64","3","500","250"
"","","","","","html-keyboard-response","148","495093","0.0-15.0-0.10","630e641cdf91fa661bdba50d","64d3ef96556dbe1f0e02b5aa","64d68cc37bf27bae6214ab44","","null","","","","","","","","","","","","","null","","","fallScene","","","","","","","","","","","","true","34.55882399999956","604.4000000000001","596.8711431702998","394.5","10","65","","",""
"","","","","","html-keyboard-response","149","498325","0.0-15.0-1.10","630e641cdf91fa661bdba50d","64d3ef96556dbe1f0e02b5aa","64d68cc37bf27bae6214ab44","","","","","","","","","","","","","","","","","","","","","","","","336.9996676563042","347.9900055241424","3231.5","","","","","","","","","","","","",""
"","","","","","html-keyboard-response","149","498325","0.0-15.0-1.10","630e641cdf91fa661bdba50d","64d3ef96556dbe1f0e02b5aa","64d68cc37bf27bae6214ab44","","","","","","","","","","","","","","","","","","reconstruct","","","","","","336.9996676563042","347.9900055241424","3231.5","","","","","","","","","","65","4","500","350"
"","","","","","html-keyboard-response","150","501327","0.0-15.0-0.11","630e641cdf91fa661bdba50d","64d3ef96556dbe1f0e02b5aa","64d68cc37bf27bae6214ab44","","null","","","","","","","","","","","","","null","","","fallScene","","","","","","","","","","","","true","33.54813000000146","322.3","356.42114317029973","357.87","4","66","","",""
"","","","","","html-keyboard-response","151","504367","0.0-15.0-1.11","630e641cdf91fa661bdba50d","64d3ef96556dbe1f0e02b5aa","64d68cc37bf27bae6214ab44","","","","","","","","","","","","","","","","","","","","","","","","633.0099999978887","330.00000649817815","3039.9000000059605","","","","","","","","","","","","",""
"","","","","","html-keyboard-response","151","504367","0.0-15.0-1.11","630e641cdf91fa661bdba50d","64d3ef96556dbe1f0e02b5aa","64d68cc37bf27bae6214ab44","","","","","","","","","","","","","","","","","","reconstruct","","","","","","633.0099999978887","330.00000649817815","3039.9000000059605","","","","","","","","","","66","5","625","250"
"","","","","","html-keyboard-response","152","507369","0.0-15.0-0.12","630e641cdf91fa661bdba50d","64d3ef96556dbe1f0e02b5aa","64d68cc37bf27bae6214ab44","","null","","","","","","","","","","","","","null","","","fallScene","","","","","","","","","","","","false","32.52854399999976","604.4000000000001","650.0211431702996","404.58000000000004","11","67","","",""
"","","","","","html-keyboard-response","153","509908","0.0-15.0-1.12","630e641cdf91fa661bdba50d","64d3ef96556dbe1f0e02b5aa","64d68cc37bf27bae6214ab44","","","","","","","","","","","","","","","","","","","","","","","","629.9999999999991","370.99","2538.7000000029802","","","","","","","","","","","","",""
"","","","","","html-keyboard-response","153","509908","0.0-15.0-1.12","630e641cdf91fa661bdba50d","64d3ef96556dbe1f0e02b5aa","64d68cc37bf27bae6214ab44","","","","","","","","","","","","","","","","","","reconstruct","","","","","","629.9999999999991","370.99","2538.7000000029802","","","","","","","","","","67","5","625","250"
"","","","","","html-keyboard-response","154","512912","0.0-15.0-0.13","630e641cdf91fa661bdba50d","64d3ef96556dbe1f0e02b5aa","64d68cc37bf27bae6214ab44","","null","","","","","","","","","","","","","null","","","fallScene","","","","","","","","","","","","false","33.063392000000924","322.3","379.3711431702997","245.25","1","68","","",""
"","","","","","html-keyboard-response","155","515450","0.0-15.0-1.13","630e641cdf91fa661bdba50d","64d3ef96556dbe1f0e02b5aa","64d68cc37bf27bae6214ab44","","","","","","","","","","","","","","","","","","","","","","","","298.01","296.99999999572725","2538","","","","","","","","","","","","",""
"","","","","","html-keyboard-response","155","515450","0.0-15.0-1.13","630e641cdf91fa661bdba50d","64d3ef96556dbe1f0e02b5aa","64d68cc37bf27bae6214ab44","","","","","","","","","","","","","","","","","","reconstruct","","","","","","298.01","296.99999999572725","2538","","","","","","","","","","68","1","375","250"
"","","","","","html-keyboard-response","156","518452","0.0-15.0-0.14","630e641cdf91fa661bdba50d","64d3ef96556dbe1f0e02b5aa","64d68cc37bf27bae6214ab44","","null","","","","","","","","","","","","","null","","","fallScene","","","","","","","","","","","","true","31.520954999999784","500","453.67114317029973","210.33","5","69","","",""
"","","","","","html-keyboard-response","157","521442","0.0-15.0-1.14","630e641cdf91fa661bdba50d","64d3ef96556dbe1f0e02b5aa","64d68cc37bf27bae6214ab44","","","","","","","","","","","","","","","","","","","","","","","","411.0099998642515","299.00005210520567","2989.2000000029802","","","","","","","","","","","","",""
"","","","","","html-keyboard-response","157","521442","0.0-15.0-1.14","630e641cdf91fa661bdba50d","64d3ef96556dbe1f0e02b5aa","64d68cc37bf27bae6214ab44","","","","","","","","","","","","","","","","","","reconstruct","","","","","","411.0099998642515","299.00005210520567","2989.2000000029802","","","","","","","","","","69","2","375","350"
"","","","","","html-keyboard-response","158","524450","0.0-15.0-0.15","630e641cdf91fa661bdba50d","64d3ef96556dbe1f0e02b5aa","64d68cc37bf27bae6214ab44","","null","","","","","","","","","","","","","null","","","fallScene","","","","","","","","","","","","false","30.005850000000212","322.3","379.3711431702997","245.25","1","70","","",""
"","","","","","html-keyboard-response","159","527250","0.0-15.0-1.15","630e641cdf91fa661bdba50d","64d3ef96556dbe1f0e02b5aa","64d68cc37bf27bae6214ab44","","","","","","","","","","","","","","","","","","","","","","","","336.00624257289957","280.99218781185624","2799.4000000059605","","","","","","","","","","","","",""
"","","","","","html-keyboard-response","159","527250","0.0-15.0-1.15","630e641cdf91fa661bdba50d","64d3ef96556dbe1f0e02b5aa","64d68cc37bf27bae6214ab44","","","","","","","","","","","","","","","","","","reconstruct","","","","","","336.00624257289957","280.99218781185624","2799.4000000059605","","","","","","","","","","70","2","375","350"
"","","","","","html-keyboard-response","160","530251","0.0-15.0-0.16","630e641cdf91fa661bdba50d","64d3ef96556dbe1f0e02b5aa","64d68cc37bf27bae6214ab44","","null","","","","","","","","","","","","","null","","","fallScene","","","","","","","","","","","","true","30.00237000000081","500","453.67114317029973","210.33","5","71","","",""
"","","","","","html-keyboard-response","161","532967","0.0-15.0-1.16","630e641cdf91fa661bdba50d","64d3ef96556dbe1f0e02b5aa","64d68cc37bf27bae6214ab44","","","","","","","","","","","","","","","","","","","","","","","","441.99","350","2715.1000000089407","","","","","","","","","","","","",""
"","","","","","html-keyboard-response","161","532967","0.0-15.0-1.16","630e641cdf91fa661bdba50d","64d3ef96556dbe1f0e02b5aa","64d68cc37bf27bae6214ab44","","","","","","","","","","","","","","","","","","reconstruct","","","","","","441.99","350","2715.1000000089407","","","","","","","","","","71","6","625","350"
"","","","","","html-keyboard-response","162","535980","0.0-15.0-0.17","630e641cdf91fa661bdba50d","64d3ef96556dbe1f0e02b5aa","64d68cc37bf27bae6214ab44","","null","","","","","","","","","","","","","null","","","fallScene","","","","","","","","","","","","true","30.4925400000019","604.4000000000001","667.6211431702998","201.78","9","72","","",""
"","","","","","html-keyboard-response","163","538773","0.0-15.0-1.17","630e641cdf91fa661bdba50d","64d3ef96556dbe1f0e02b5aa","64d68cc37bf27bae6214ab44","","","","","","","","","","","","","","","","","","","","","","","","380.0099997906131","283.0000647123901","2792.7999999970198","","","","","","","","","","","","",""
"","","","","","html-keyboard-response","163","538773","0.0-15.0-1.17","630e641cdf91fa661bdba50d","64d3ef96556dbe1f0e02b5aa","64d68cc37bf27bae6214ab44","","","","","","","","","","","","","","","","","","reconstruct","","","","","","380.0099997906131","283.0000647123901","2792.7999999970198","","","","","","","","","","72","5","625","250"
"","","","","","survey-text","164","564486","0.0-16.0","630e641cdf91fa661bdba50d","64d3ef96556dbe1f0e02b5aa","64d68cc37bf27bae6214ab44","","25711","","","","","","","","","","","","","{""Summary"":""Guess where the triangle is behind gray screen after watching ball fall and hit the triangle""}","","","","","","","","","","","","","","","","","","","","","","","",""
"","","","","","survey-text","165","569236","0.0-17.0","630e641cdf91fa661bdba50d","64d3ef96556dbe1f0e02b5aa","64d68cc37bf27bae6214ab44","","4748","","","","","","","","","","","","","{""Comments"":""None""}","","","","","","","","","","","","","","","","","","","","","","","",""
