"success","timeout","failed_images","failed_audio","failed_video","trial_type","trial_index","time_elapsed","internal_node_id","subject_id","study_id","session_id","view_history","rt","width","height","webaudio","browser","browser_version","mobile","os","fullscreen","vsync_rate","webcam","microphone","url","response","triangle_prac_final_x","triangle_prac_final_y","trial_name","stimulus","ball_X_prac_occ","ball_Y_prac_occ","obstacle_X_prac_occ","obstacle_Y_prac_occ","triangle_final_x","triangle_final_y","response_time","obstacle_X_prac_occ_init","obstacle_Y_prac_occ_init","question_order","flipped","runnerFPS","ball_X","obstacle_groundTruth_x","obstacle_groundTruth_y","stimulus_idx","currentTrial","obstacle_idx","obstacle_initial_x","obstacle_initial_y"
"true","false","[]","[]","[]","preload","0","62","0.0-0.0","639cc81017566d4a414d09db","64d3ef96556dbe1f0e02b5aa","64da645552852a457ec47fb9","","","","","","","","","","","","","","","","","","","","","","","","","","","","","","","","","","","","","","",""
"","","","","","instructions","1","21113","0.0-1.0","639cc81017566d4a414d09db","64d3ef96556dbe1f0e02b5aa","64da645552852a457ec47fb9","[{""page_index"":0,""viewing_time"":21050}]","21050","","","","","","","","","","","","","","","","","","","","","","","","","","","","","","","","","","","","",""
"","","","","","browser-check","2","22603","0.0-2.0","639cc81017566d4a414d09db","64d3ef96556dbe1f0e02b5aa","64da645552852a457ec47fb9","","","1920","923","true","chrome","115.0.0","false","Windows 10","true","60.81","true","true","","","","","","","","","","","","","","","","","","","","","","","","","",""
"","","","","","external-html","3","81240","0.0-3.0","639cc81017566d4a414d09db","64d3ef96556dbe1f0e02b5aa","64da645552852a457ec47fb9","","58565","","","","","","","","","","","","consent.html","","","","","","","","","","","","","","","","","","","","","","","","",""
"true","","","","","fullscreen","4","94758","0.0-4.0","639cc81017566d4a414d09db","64d3ef96556dbe1f0e02b5aa","64da645552852a457ec47fb9","","13010","","","","","","","","","","","","","","","","","","","","","","","","","","","","","","","","","","","","",""
"","","","","","survey-text","5","101133","0.0-5.0","639cc81017566d4a414d09db","64d3ef96556dbe1f0e02b5aa","64da645552852a457ec47fb9","","6370","","","","","","","","","","","","","{""prolificID"":""639cc81017566d4a414d09db""}","","","","","","","","","","","","","","","","","","","","","","","",""
"","","","","","browser-check","6","102155","0.0-6.0","639cc81017566d4a414d09db","64d3ef96556dbe1f0e02b5aa","64da645552852a457ec47fb9","","","1920","1080","true","chrome","115.0.0","false","Windows 10","true","60.11","true","true","","","","","","","","","","","","","","","","","","","","","","","","","",""
"","","","","","instructions","7","173597","0.0-7.0-0.0-0.0","639cc81017566d4a414d09db","64d3ef96556dbe1f0e02b5aa","64da645552852a457ec47fb9","[{""page_index"":0,""viewing_time"":28290},{""page_index"":1,""viewing_time"":15157},{""page_index"":2,""viewing_time"":18591},{""page_index"":3,""viewing_time"":9403}]","71442","","","","","","","","","","","","","","","","","","","","","","","","","","","","","","","","","","","","",""
"","","","","","html-keyboard-response","8","187759","0.0-7.0-0.0-1.0","639cc81017566d4a414d09db","64d3ef96556dbe1f0e02b5aa","64da645552852a457ec47fb9","","","","","","","","","","","","","","","","705.9901362878722","431.99835464804335","","","","","","","","","","","","","","","","","","","","","",""
"","","","","","html-keyboard-response","8","187759","0.0-7.0-0.0-1.0","639cc81017566d4a414d09db","64d3ef96556dbe1f0e02b5aa","64da645552852a457ec47fb9","","","","","","","","","","","","","","","","","","practiceTrial_move","","","","","","","","","","","","","","","","","","","","",""
"","","","","","html-button-response","9","199353","0.0-7.0-0.0-2.0","639cc81017566d4a414d09db","64d3ef96556dbe1f0e02b5aa","64da645552852a457ec47fb9","","11592","","","","","","","","","","","","","0","","","","<p>To help you get more comfortable with the task, let's begin with a practice trial first!</p><p>As described previously, you will first see a video of a ball falling, some of it behind a gray screen.</p><p>After the video, you will drag a triangle to the spot you think the ball hit the triangle behind the screen.</p><p>Click 'Next' to start your practice trial.</p>","","","","","","","","","","","","","","","","","","","",""
"","","","","","html-keyboard-response","10","202368","0.0-7.0-0.0-3.0","639cc81017566d4a414d09db","64d3ef96556dbe1f0e02b5aa","64da645552852a457ec47fb9","","null","","","","","","","","","","","","","null","","","fallScene_practiceTrial_withOccluder","","400","50","420","415","","","","","","","","","","","","","","","",""
"","","","","","html-keyboard-response","11","207113","0.0-7.0-0.0-4.0","639cc81017566d4a414d09db","64d3ef96556dbe1f0e02b5aa","64da645552852a457ec47fb9","","","","","","","","","","","","","","","","","","","","","","","","373.99183972322965","322.99421987171155","4742.0999999940395","","","","","","","","","","","","",""
"","","","","","html-keyboard-response","11","207113","0.0-7.0-0.0-4.0","639cc81017566d4a414d09db","64d3ef96556dbe1f0e02b5aa","64da645552852a457ec47fb9","","","","","","","","","","","","","","","","","","reconstruct_practiceTrial_withOccluder","","","","","","373.99183972322965","322.99421987171155","4742.0999999940395","500","300","","","","","","","","","","",""
"","","","","","html-button-response","12","218365","0.0-7.0-0.0-5.0","639cc81017566d4a414d09db","64d3ef96556dbe1f0e02b5aa","64da645552852a457ec47fb9","","11250","","","","","","","","","","","","","1","","","","<p>Ok! We're almost ready to get started.</p><p>We just have a <b>brief quiz</b>, to make sure you understood the task.</p><p>If you need to review the instructions, click 'Previous'.</p><p>It's important to understand the task to do the study, so you have to pass the quiz to move to the study.</p>","","","","","","","","","","","","","","","","","","","",""
"","","","","","survey-multi-choice","13","233079","0.0-7.0-1.0-0.0","639cc81017566d4a414d09db","64d3ef96556dbe1f0e02b5aa","64da645552852a457ec47fb9","","14711","","","","","","","","","","","","","{""generalProcedure"":""Watch a video of a ball falling, some of it behind a gray screen. After each video, drag a triangle to where I think the ball hit the triangle behind the screen.""}","","","","","","","","","","","","","","[0]","","","","","","","","","",""
"","","","","","survey-multi-choice","14","238639","0.0-7.0-1.0-1.0","639cc81017566d4a414d09db","64d3ef96556dbe1f0e02b5aa","64da645552852a457ec47fb9","","5555","","","","","","","","","","","","","{""checkBallHitObstacle"":""Yes.""}","","","","","","","","","","","","","","[0]","","","","","","","","","",""
"","","","","","survey-multi-choice","15","243843","0.0-7.0-1.0-2.0","639cc81017566d4a414d09db","64d3ef96556dbe1f0e02b5aa","64da645552852a457ec47fb9","","5201","","","","","","","","","","","","","{""checkTriangleVisibility"":""No, the triangle is hidden behind the gray screen.""}","","","","","","","","","","","","","","[0]","","","","","","","","","",""
"","","","","","instructions","16","260884","0.0-8.0","639cc81017566d4a414d09db","64d3ef96556dbe1f0e02b5aa","64da645552852a457ec47fb9","[{""page_index"":0,""viewing_time"":17036}]","17037","","","","","","","","","","","","","","","","","","","","","","","","","","","","","","","","","","","","",""
"","","","","","html-keyboard-response","17","263896","0.0-9.0-0.0","639cc81017566d4a414d09db","64d3ef96556dbe1f0e02b5aa","64da645552852a457ec47fb9","","null","","","","","","","","","","","","","null","","","fallScene","","","","","","","","","","","","false","60.05513999999966","322.3","296.07114317029976","371.46","3","1","","",""
"","","","","","html-keyboard-response","18","267045","0.0-9.0-1.0","639cc81017566d4a414d09db","64d3ef96556dbe1f0e02b5aa","64da645552852a457ec47fb9","","","","","","","","","","","","","","","","","","","","","","","","324.9999999905361","380.99","3147.2999999821186","","","","","","","","","","","","",""
"","","","","","html-keyboard-response","18","267045","0.0-9.0-1.0","639cc81017566d4a414d09db","64d3ef96556dbe1f0e02b5aa","64da645552852a457ec47fb9","","","","","","","","","","","","","","","","","","reconstruct","","","","","","324.9999999905361","380.99","3147.2999999821186","","","","","","","","","","1","1","375","250"
"","","","","","html-keyboard-response","19","270051","0.0-9.0-0.1","639cc81017566d4a414d09db","64d3ef96556dbe1f0e02b5aa","64da645552852a457ec47fb9","","null","","","","","","","","","","","","","null","","","fallScene","","","","","","","","","","","","true","60.07164000000106","322.3","308.07114317029976","253.89","2","2","","",""
"","","","","","html-keyboard-response","20","273824","0.0-9.0-1.1","639cc81017566d4a414d09db","64d3ef96556dbe1f0e02b5aa","64da645552852a457ec47fb9","","","","","","","","","","","","","","","","","","","","","","","","646.004684198321","310.99116493994984","3771.5","","","","","","","","","","","","",""
"","","","","","html-keyboard-response","20","273824","0.0-9.0-1.1","639cc81017566d4a414d09db","64d3ef96556dbe1f0e02b5aa","64da645552852a457ec47fb9","","","","","","","","","","","","","","","","","","reconstruct","","","","","","646.004684198321","310.99116493994984","3771.5","","","","","","","","","","2","6","625","350"
"","","","","","html-keyboard-response","21","276843","0.0-9.0-0.2","639cc81017566d4a414d09db","64d3ef96556dbe1f0e02b5aa","64da645552852a457ec47fb9","","null","","","","","","","","","","","","","null","","","fallScene","","","","","","","","","","","","false","60.04289999999804","500","510.8711431702997","369.03","8","3","","",""
"","","","","","html-keyboard-response","22","280338","0.0-9.0-1.2","639cc81017566d4a414d09db","64d3ef96556dbe1f0e02b5aa","64da645552852a457ec47fb9","","","","","","","","","","","","","","","","","","","","","","","","481.00999999999993","289.0000000377652","3494.0999999940395","","","","","","","","","","","","",""
"","","","","","html-keyboard-response","22","280338","0.0-9.0-1.2","639cc81017566d4a414d09db","64d3ef96556dbe1f0e02b5aa","64da645552852a457ec47fb9","","","","","","","","","","","","","","","","","","reconstruct","","","","","","481.00999999999993","289.0000000377652","3494.0999999940395","","","","","","","","","","3","6","625","350"
"","","","","","html-keyboard-response","23","283347","0.0-9.0-0.3","639cc81017566d4a414d09db","64d3ef96556dbe1f0e02b5aa","64da645552852a457ec47fb9","","null","","","","","","","","","","","","","null","","","fallScene","","","","","","","","","","","","false","60.06096000000019","500","510.8711431702997","369.03","8","4","","",""
"","","","","","html-keyboard-response","24","287344","0.0-9.0-1.3","639cc81017566d4a414d09db","64d3ef96556dbe1f0e02b5aa","64da645552852a457ec47fb9","","","","","","","","","","","","","","","","","","","","","","","","484.99933238384335","331.00997768954556","3996.7000000178814","","","","","","","","","","","","",""
"","","","","","html-keyboard-response","24","287344","0.0-9.0-1.3","639cc81017566d4a414d09db","64d3ef96556dbe1f0e02b5aa","64da645552852a457ec47fb9","","","","","","","","","","","","","","","","","","reconstruct","","","","","","484.99933238384335","331.00997768954556","3996.7000000178814","","","","","","","","","","4","4","500","350"
"","","","","","html-keyboard-response","25","290355","0.0-9.0-0.4","639cc81017566d4a414d09db","64d3ef96556dbe1f0e02b5aa","64da645552852a457ec47fb9","","null","","","","","","","","","","","","","null","","","fallScene","","","","","","","","","","","","true","60.05310000000056","604.4000000000001","596.8711431702998","394.5","10","5","","",""
"","","","","","html-keyboard-response","26","293529","0.0-9.0-1.4","639cc81017566d4a414d09db","64d3ef96556dbe1f0e02b5aa","64da645552852a457ec47fb9","","","","","","","","","","","","","","","","","","","","","","","","360.9985633335541","288.0098962613912","3172.199999988079","","","","","","","","","","","","",""
"","","","","","html-keyboard-response","26","293529","0.0-9.0-1.4","639cc81017566d4a414d09db","64d3ef96556dbe1f0e02b5aa","64da645552852a457ec47fb9","","","","","","","","","","","","","","","","","","reconstruct","","","","","","360.9985633335541","288.0098962613912","3172.199999988079","","","","","","","","","","5","5","625","250"
"","","","","","html-keyboard-response","27","296540","0.0-9.0-0.5","639cc81017566d4a414d09db","64d3ef96556dbe1f0e02b5aa","64da645552852a457ec47fb9","","null","","","","","","","","","","","","","null","","","fallScene","","","","","","","","","","","","true","60.06203999999911","500","453.67114317029973","210.33","5","6","","",""
"","","","","","html-keyboard-response","28","300571","0.0-9.0-1.5","639cc81017566d4a414d09db","64d3ef96556dbe1f0e02b5aa","64da645552852a457ec47fb9","","","","","","","","","","","","","","","","","","","","","","","","528.000669720118","329.0099775485448","4030.4000000059605","","","","","","","","","","","","",""
"","","","","","html-keyboard-response","28","300571","0.0-9.0-1.5","639cc81017566d4a414d09db","64d3ef96556dbe1f0e02b5aa","64da645552852a457ec47fb9","","","","","","","","","","","","","","","","","","reconstruct","","","","","","528.000669720118","329.0099775485448","4030.4000000059605","","","","","","","","","","6","6","625","350"
"","","","","","html-keyboard-response","29","303576","0.0-9.0-0.6","639cc81017566d4a414d09db","64d3ef96556dbe1f0e02b5aa","64da645552852a457ec47fb9","","null","","","","","","","","","","","","","null","","","fallScene","","","","","","","","","","","","false","60.061259999996985","322.3","356.42114317029973","357.87","4","7","","",""
"","","","","","html-keyboard-response","30","307113","0.0-9.0-1.6","639cc81017566d4a414d09db","64d3ef96556dbe1f0e02b5aa","64da645552852a457ec47fb9","","","","","","","","","","","","","","","","","","","","","","","","290.0085377919539","319.994793647289","3535.9000000059605","","","","","","","","","","","","",""
"","","","","","html-keyboard-response","30","307113","0.0-9.0-1.6","639cc81017566d4a414d09db","64d3ef96556dbe1f0e02b5aa","64da645552852a457ec47fb9","","","","","","","","","","","","","","","","","","reconstruct","","","","","","290.0085377919539","319.994793647289","3535.9000000059605","","","","","","","","","","7","1","375","250"
"","","","","","html-keyboard-response","31","310125","0.0-9.0-0.7","639cc81017566d4a414d09db","64d3ef96556dbe1f0e02b5aa","64da645552852a457ec47fb9","","null","","","","","","","","","","","","","null","","","fallScene","","","","","","","","","","","","true","60.05982000000193","322.3","296.07114317029976","371.46","3","8","","",""
"","","","","","html-keyboard-response","32","313351","0.0-9.0-1.7","639cc81017566d4a414d09db","64d3ef96556dbe1f0e02b5aa","64da645552852a457ec47fb9","","","","","","","","","","","","","","","","","","","","","","","","700.9900000062644","331.0000111931795","3224.9000000059605","","","","","","","","","","","","",""
"","","","","","html-keyboard-response","32","313351","0.0-9.0-1.7","639cc81017566d4a414d09db","64d3ef96556dbe1f0e02b5aa","64da645552852a457ec47fb9","","","","","","","","","","","","","","","","","","reconstruct","","","","","","700.9900000062644","331.0000111931795","3224.9000000059605","","","","","","","","","","8","2","375","350"
"","","","","","html-keyboard-response","33","316364","0.0-9.0-0.8","639cc81017566d4a414d09db","64d3ef96556dbe1f0e02b5aa","64da645552852a457ec47fb9","","null","","","","","","","","","","","","","null","","","fallScene","","","","","","","","","","","","true","60.06353999999701","322.3","296.07114317029976","371.46","3","9","","",""
"","","","","","html-keyboard-response","34","321037","0.0-9.0-1.8","639cc81017566d4a414d09db","64d3ef96556dbe1f0e02b5aa","64da645552852a457ec47fb9","","","","","","","","","","","","","","","","","","","","","","","","646.9892618730593","303.00953430817236","4671.5999999940395","","","","","","","","","","","","",""
"","","","","","html-keyboard-response","34","321037","0.0-9.0-1.8","639cc81017566d4a414d09db","64d3ef96556dbe1f0e02b5aa","64da645552852a457ec47fb9","","","","","","","","","","","","","","","","","","reconstruct","","","","","","646.9892618730593","303.00953430817236","4671.5999999940395","","","","","","","","","","9","5","625","250"
"","","","","","html-keyboard-response","35","324042","0.0-9.0-0.9","639cc81017566d4a414d09db","64d3ef96556dbe1f0e02b5aa","64da645552852a457ec47fb9","","null","","","","","","","","","","","","","null","","","fallScene","","","","","","","","","","","","true","60.04470000000321","604.4000000000001","596.8711431702998","394.5","10","10","","",""
"","","","","","html-keyboard-response","36","327377","0.0-9.0-1.9","639cc81017566d4a414d09db","64d3ef96556dbe1f0e02b5aa","64da645552852a457ec47fb9","","","","","","","","","","","","","","","","","","","","","","","","396.99674412663745","272.9905448802944","3334.4000000059605","","","","","","","","","","","","",""
"","","","","","html-keyboard-response","36","327377","0.0-9.0-1.9","639cc81017566d4a414d09db","64d3ef96556dbe1f0e02b5aa","64da645552852a457ec47fb9","","","","","","","","","","","","","","","","","","reconstruct","","","","","","396.99674412663745","272.9905448802944","3334.4000000059605","","","","","","","","","","10","4","500","350"
"","","","","","html-keyboard-response","37","330384","0.0-9.0-0.10","639cc81017566d4a414d09db","64d3ef96556dbe1f0e02b5aa","64da645552852a457ec47fb9","","null","","","","","","","","","","","","","null","","","fallScene","","","","","","","","","","","","false","60.05783999999869","500","453.67114317029973","210.33","5","11","","",""
"","","","","","html-keyboard-response","38","333187","0.0-9.0-1.10","639cc81017566d4a414d09db","64d3ef96556dbe1f0e02b5aa","64da645552852a457ec47fb9","","","","","","","","","","","","","","","","","","","","","","","","495.9999999966379","304.99","2801.5999999940395","","","","","","","","","","","","",""
"","","","","","html-keyboard-response","38","333187","0.0-9.0-1.10","639cc81017566d4a414d09db","64d3ef96556dbe1f0e02b5aa","64da645552852a457ec47fb9","","","","","","","","","","","","","","","","","","reconstruct","","","","","","495.9999999966379","304.99","2801.5999999940395","","","","","","","","","","11","3","500","250"
"","","","","","html-keyboard-response","39","336190","0.0-9.0-0.11","639cc81017566d4a414d09db","64d3ef96556dbe1f0e02b5aa","64da645552852a457ec47fb9","","null","","","","","","","","","","","","","null","","","fallScene","","","","","","","","","","","","true","60.054299999998186","604.4000000000001","575.4211431702997","266.76","12","12","","",""
"","","","","","html-keyboard-response","40","339284","0.0-9.0-1.11","639cc81017566d4a414d09db","64d3ef96556dbe1f0e02b5aa","64da645552852a457ec47fb9","","","","","","","","","","","","","","","","","","","","","","","","361.009999043504","288.99986169235666","3093.7000000178814","","","","","","","","","","","","",""
"","","","","","html-keyboard-response","40","339284","0.0-9.0-1.11","639cc81017566d4a414d09db","64d3ef96556dbe1f0e02b5aa","64da645552852a457ec47fb9","","","","","","","","","","","","","","","","","","reconstruct","","","","","","361.009999043504","288.99986169235666","3093.7000000178814","","","","","","","","","","12","3","500","250"
"","","","","","html-keyboard-response","41","342290","0.0-9.0-0.12","639cc81017566d4a414d09db","64d3ef96556dbe1f0e02b5aa","64da645552852a457ec47fb9","","null","","","","","","","","","","","","","null","","","fallScene","","","","","","","","","","","","true","60.04728000000003","500","553.4711431702997","282.51","7","13","","",""
"","","","","","html-keyboard-response","42","345588","0.0-9.0-1.12","639cc81017566d4a414d09db","64d3ef96556dbe1f0e02b5aa","64da645552852a457ec47fb9","","","","","","","","","","","","","","","","","","","","","","","","488.9900282236138","286.99924921660613","3297.800000011921","","","","","","","","","","","","",""
"","","","","","html-keyboard-response","42","345588","0.0-9.0-1.12","639cc81017566d4a414d09db","64d3ef96556dbe1f0e02b5aa","64da645552852a457ec47fb9","","","","","","","","","","","","","","","","","","reconstruct","","","","","","488.9900282236138","286.99924921660613","3297.800000011921","","","","","","","","","","13","5","625","250"
"","","","","","html-keyboard-response","43","348593","0.0-9.0-0.13","639cc81017566d4a414d09db","64d3ef96556dbe1f0e02b5aa","64da645552852a457ec47fb9","","null","","","","","","","","","","","","","null","","","fallScene","","","","","","","","","","","","false","60.074759999999074","604.4000000000001","667.6211431702998","201.78","9","14","","",""
"","","","","","html-keyboard-response","44","351596","0.0-9.0-1.13","639cc81017566d4a414d09db","64d3ef96556dbe1f0e02b5aa","64da645552852a457ec47fb9","","","","","","","","","","","","","","","","","","","","","","","","593.9900365276025","350.00085394249453","3002.300000011921","","","","","","","","","","","","",""
"","","","","","html-keyboard-response","44","351596","0.0-9.0-1.13","639cc81017566d4a414d09db","64d3ef96556dbe1f0e02b5aa","64da645552852a457ec47fb9","","","","","","","","","","","","","","","","","","reconstruct","","","","","","593.9900365276025","350.00085394249453","3002.300000011921","","","","","","","","","","14","4","500","350"
"","","","","","html-keyboard-response","45","354602","0.0-9.0-0.14","639cc81017566d4a414d09db","64d3ef96556dbe1f0e02b5aa","64da645552852a457ec47fb9","","null","","","","","","","","","","","","","null","","","fallScene","","","","","","","","","","","","false","60.05405999999726","500","553.4711431702997","282.51","7","15","","",""
"","","","","","html-keyboard-response","46","358384","0.0-9.0-1.14","639cc81017566d4a414d09db","64d3ef96556dbe1f0e02b5aa","64da645552852a457ec47fb9","","","","","","","","","","","","","","","","","","","","","","","","516.9900931626673","323.9986381725276","3780.800000011921","","","","","","","","","","","","",""
"","","","","","html-keyboard-response","46","358384","0.0-9.0-1.14","639cc81017566d4a414d09db","64d3ef96556dbe1f0e02b5aa","64da645552852a457ec47fb9","","","","","","","","","","","","","","","","","","reconstruct","","","","","","516.9900931626673","323.9986381725276","3780.800000011921","","","","","","","","","","15","2","375","350"
"","","","","","html-keyboard-response","47","361391","0.0-9.0-0.15","639cc81017566d4a414d09db","64d3ef96556dbe1f0e02b5aa","64da645552852a457ec47fb9","","null","","","","","","","","","","","","","null","","","fallScene","","","","","","","","","","","","false","60.06527999999933","322.3","308.07114317029976","253.89","2","16","","",""
"","","","","","html-keyboard-response","48","365266","0.0-9.0-1.15","639cc81017566d4a414d09db","64d3ef96556dbe1f0e02b5aa","64da645552852a457ec47fb9","","","","","","","","","","","","","","","","","","","","","","","","330.0073135080953","361.99317998538567","3873.800000011921","","","","","","","","","","","","",""
"","","","","","html-keyboard-response","48","365266","0.0-9.0-1.15","639cc81017566d4a414d09db","64d3ef96556dbe1f0e02b5aa","64da645552852a457ec47fb9","","","","","","","","","","","","","","","","","","reconstruct","","","","","","330.0073135080953","361.99317998538567","3873.800000011921","","","","","","","","","","16","1","375","250"
"","","","","","html-keyboard-response","49","368282","0.0-9.0-0.16","639cc81017566d4a414d09db","64d3ef96556dbe1f0e02b5aa","64da645552852a457ec47fb9","","null","","","","","","","","","","","","","null","","","fallScene","","","","","","","","","","","","false","60.070919999998296","322.3","356.42114317029973","357.87","4","17","","",""
"","","","","","html-keyboard-response","50","371624","0.0-9.0-1.16","639cc81017566d4a414d09db","64d3ef96556dbe1f0e02b5aa","64da645552852a457ec47fb9","","","","","","","","","","","","","","","","","","","","","","","","285.9940366526808","304.9919726412345","3340.7999999821186","","","","","","","","","","","","",""
"","","","","","html-keyboard-response","50","371624","0.0-9.0-1.16","639cc81017566d4a414d09db","64d3ef96556dbe1f0e02b5aa","64da645552852a457ec47fb9","","","","","","","","","","","","","","","","","","reconstruct","","","","","","285.9940366526808","304.9919726412345","3340.7999999821186","","","","","","","","","","17","5","625","250"
"","","","","","html-keyboard-response","51","374640","0.0-9.0-0.17","639cc81017566d4a414d09db","64d3ef96556dbe1f0e02b5aa","64da645552852a457ec47fb9","","null","","","","","","","","","","","","","null","","","fallScene","","","","","","","","","","","","true","60.050400000001545","604.4000000000001","650.0211431702996","404.58000000000004","11","18","","",""
"","","","","","html-keyboard-response","52","377944","0.0-9.0-1.17","639cc81017566d4a414d09db","64d3ef96556dbe1f0e02b5aa","64da645552852a457ec47fb9","","","","","","","","","","","","","","","","","","","","","","","","335.01","341","3304.2999999821186","","","","","","","","","","","","",""
"","","","","","html-keyboard-response","52","377944","0.0-9.0-1.17","639cc81017566d4a414d09db","64d3ef96556dbe1f0e02b5aa","64da645552852a457ec47fb9","","","","","","","","","","","","","","","","","","reconstruct","","","","","","335.01","341","3304.2999999821186","","","","","","","","","","18","4","500","350"
"","","","","","html-button-response","53","381136","0.0-10.0","639cc81017566d4a414d09db","64d3ef96556dbe1f0e02b5aa","64da645552852a457ec47fb9","","3189","","","","","","","","","","","","","0","","","","<p><span style = ""font-size:40px;"">BREAK</span></p><p>You are doing great! Click 'Next' when you are ready for the next set.</p>","","","","","","","","","","","","","","","","","","","",""
"","","","","","html-keyboard-response","54","384147","0.0-11.0-0.0","639cc81017566d4a414d09db","64d3ef96556dbe1f0e02b5aa","64da645552852a457ec47fb9","","null","","","","","","","","","","","","","null","","","fallScene","","","","","","","","","","","","false","60.06186000000104","322.3","379.3711431702997","245.25","1","19","","",""
"","","","","","html-keyboard-response","55","387420","0.0-11.0-1.0","639cc81017566d4a414d09db","64d3ef96556dbe1f0e02b5aa","64da645552852a457ec47fb9","","","","","","","","","","","","","","","","","","","","","","","","328.9999998129658","288.00999999999823","3272.2999999821186","","","","","","","","","","","","",""
"","","","","","html-keyboard-response","55","387420","0.0-11.0-1.0","639cc81017566d4a414d09db","64d3ef96556dbe1f0e02b5aa","64da645552852a457ec47fb9","","","","","","","","","","","","","","","","","","reconstruct","","","","","","328.9999998129658","288.00999999999823","3272.2999999821186","","","","","","","","","","19","6","625","350"
"","","","","","html-keyboard-response","56","390437","0.0-11.0-0.1","639cc81017566d4a414d09db","64d3ef96556dbe1f0e02b5aa","64da645552852a457ec47fb9","","null","","","","","","","","","","","","","null","","","fallScene","","","","","","","","","","","","true","60.049860000000336","500","553.4711431702997","282.51","7","20","","",""
"","","","","","html-keyboard-response","57","393371","0.0-11.0-1.1","639cc81017566d4a414d09db","64d3ef96556dbe1f0e02b5aa","64da645552852a457ec47fb9","","","","","","","","","","","","","","","","","","","","","","","","496.9906967096898","306.9963327408866","2933.4000000059605","","","","","","","","","","","","",""
"","","","","","html-keyboard-response","57","393371","0.0-11.0-1.1","639cc81017566d4a414d09db","64d3ef96556dbe1f0e02b5aa","64da645552852a457ec47fb9","","","","","","","","","","","","","","","","","","reconstruct","","","","","","496.9906967096898","306.9963327408866","2933.4000000059605","","","","","","","","","","20","3","500","250"
"","","","","","html-keyboard-response","58","396377","0.0-11.0-0.2","639cc81017566d4a414d09db","64d3ef96556dbe1f0e02b5aa","64da645552852a457ec47fb9","","null","","","","","","","","","","","","","null","","","fallScene","","","","","","","","","","","","false","60.060600000000555","604.4000000000001","667.6211431702998","201.78","9","21","","",""
"","","","","","html-keyboard-response","59","403483","0.0-11.0-1.2","639cc81017566d4a414d09db","64d3ef96556dbe1f0e02b5aa","64da645552852a457ec47fb9","","","","","","","","","","","","","","","","","","","","","","","","574.9918413495978","312.00578242368005","7105.800000011921","","","","","","","","","","","","",""
"","","","","","html-keyboard-response","59","403483","0.0-11.0-1.2","639cc81017566d4a414d09db","64d3ef96556dbe1f0e02b5aa","64da645552852a457ec47fb9","","","","","","","","","","","","","","","","","","reconstruct","","","","","","574.9918413495978","312.00578242368005","7105.800000011921","","","","","","","","","","21","1","375","250"
"","","","","","html-keyboard-response","60","406489","0.0-11.0-0.3","639cc81017566d4a414d09db","64d3ef96556dbe1f0e02b5aa","64da645552852a457ec47fb9","","null","","","","","","","","","","","","","null","","","fallScene","","","","","","","","","","","","true","60.05987999999779","500","479.92114317029973","330.87","6","22","","",""
"","","","","","html-keyboard-response","61","409747","0.0-11.0-1.3","639cc81017566d4a414d09db","64d3ef96556dbe1f0e02b5aa","64da645552852a457ec47fb9","","","","","","","","","","","","","","","","","","","","","","","","528.99","289.9999999855246","3258.2000000178814","","","","","","","","","","","","",""
"","","","","","html-keyboard-response","61","409747","0.0-11.0-1.3","639cc81017566d4a414d09db","64d3ef96556dbe1f0e02b5aa","64da645552852a457ec47fb9","","","","","","","","","","","","","","","","","","reconstruct","","","","","","528.99","289.9999999855246","3258.2000000178814","","","","","","","","","","22","2","375","350"
"","","","","","html-keyboard-response","62","412760","0.0-11.0-0.4","639cc81017566d4a414d09db","64d3ef96556dbe1f0e02b5aa","64da645552852a457ec47fb9","","null","","","","","","","","","","","","","null","","","fallScene","","","","","","","","","","","","false","60.059580000001","604.4000000000001","667.6211431702998","201.78","9","23","","",""
"","","","","","html-keyboard-response","63","416266","0.0-11.0-1.4","639cc81017566d4a414d09db","64d3ef96556dbe1f0e02b5aa","64da645552852a457ec47fb9","","","","","","","","","","","","","","","","","","","","","","","","623.9900357134937","353.00084438997004","3505.5","","","","","","","","","","","","",""
"","","","","","html-keyboard-response","63","416266","0.0-11.0-1.4","639cc81017566d4a414d09db","64d3ef96556dbe1f0e02b5aa","64da645552852a457ec47fb9","","","","","","","","","","","","","","","","","","reconstruct","","","","","","623.9900357134937","353.00084438997004","3505.5","","","","","","","","","","23","2","375","350"
"","","","","","html-keyboard-response","64","419283","0.0-11.0-0.5","639cc81017566d4a414d09db","64d3ef96556dbe1f0e02b5aa","64da645552852a457ec47fb9","","null","","","","","","","","","","","","","null","","","fallScene","","","","","","","","","","","","false","60.05292000000248","500","553.4711431702997","282.51","7","24","","",""
"","","","","","html-keyboard-response","65","422590","0.0-11.0-1.5","639cc81017566d4a414d09db","64d3ef96556dbe1f0e02b5aa","64da645552852a457ec47fb9","","","","","","","","","","","","","","","","","","","","","","","","517.0076973267954","304.99361633645907","3306.399999976158","","","","","","","","","","","","",""
"","","","","","html-keyboard-response","65","422590","0.0-11.0-1.5","639cc81017566d4a414d09db","64d3ef96556dbe1f0e02b5aa","64da645552852a457ec47fb9","","","","","","","","","","","","","","","","","","reconstruct","","","","","","517.0076973267954","304.99361633645907","3306.399999976158","","","","","","","","","","24","6","625","350"
"","","","","","html-keyboard-response","66","425606","0.0-11.0-0.6","639cc81017566d4a414d09db","64d3ef96556dbe1f0e02b5aa","64da645552852a457ec47fb9","","null","","","","","","","","","","","","","null","","","fallScene","","","","","","","","","","","","true","60.05994000000064","500","479.92114317029973","330.87","6","25","","",""
"","","","","","html-keyboard-response","67","429055","0.0-11.0-1.6","639cc81017566d4a414d09db","64d3ef96556dbe1f0e02b5aa","64da645552852a457ec47fb9","","","","","","","","","","","","","","","","","","","","","","","","511.99000024492426","285.99993001125046","3448.4000000059605","","","","","","","","","","","","",""
"","","","","","html-keyboard-response","67","429055","0.0-11.0-1.6","639cc81017566d4a414d09db","64d3ef96556dbe1f0e02b5aa","64da645552852a457ec47fb9","","","","","","","","","","","","","","","","","","reconstruct","","","","","","511.99000024492426","285.99993001125046","3448.4000000059605","","","","","","","","","","25","5","625","250"
"","","","","","html-keyboard-response","68","432062","0.0-11.0-0.7","639cc81017566d4a414d09db","64d3ef96556dbe1f0e02b5aa","64da645552852a457ec47fb9","","null","","","","","","","","","","","","","null","","","fallScene","","","","","","","","","","","","false","60.05975999999908","500","453.67114317029973","210.33","5","26","","",""
"","","","","","html-keyboard-response","69","435293","0.0-11.0-1.7","639cc81017566d4a414d09db","64d3ef96556dbe1f0e02b5aa","64da645552852a457ec47fb9","","","","","","","","","","","","","","","","","","","","","","","","451.0088457575198","296.9953360345305","3230.399999976158","","","","","","","","","","","","",""
"","","","","","html-keyboard-response","69","435293","0.0-11.0-1.7","639cc81017566d4a414d09db","64d3ef96556dbe1f0e02b5aa","64da645552852a457ec47fb9","","","","","","","","","","","","","","","","","","reconstruct","","","","","","451.0088457575198","296.9953360345305","3230.399999976158","","","","","","","","","","26","5","625","250"
"","","","","","html-keyboard-response","70","438302","0.0-11.0-0.8","639cc81017566d4a414d09db","64d3ef96556dbe1f0e02b5aa","64da645552852a457ec47fb9","","null","","","","","","","","","","","","","null","","","fallScene","","","","","","","","","","","","false","60.056579999998206","322.3","356.42114317029973","357.87","4","27","","",""
"","","","","","html-keyboard-response","71","441775","0.0-11.0-1.8","639cc81017566d4a414d09db","64d3ef96556dbe1f0e02b5aa","64da645552852a457ec47fb9","","","","","","","","","","","","","","","","","","","","","","","","369.9934507925302","278.00755697568593","3473","","","","","","","","","","","","",""
"","","","","","html-keyboard-response","71","441775","0.0-11.0-1.8","639cc81017566d4a414d09db","64d3ef96556dbe1f0e02b5aa","64da645552852a457ec47fb9","","","","","","","","","","","","","","","","","","reconstruct","","","","","","369.9934507925302","278.00755697568593","3473","","","","","","","","","","27","4","500","350"
"","","","","","html-keyboard-response","72","444792","0.0-11.0-0.9","639cc81017566d4a414d09db","64d3ef96556dbe1f0e02b5aa","64da645552852a457ec47fb9","","null","","","","","","","","","","","","","null","","","fallScene","","","","","","","","","","","","true","60.06024000000092","604.4000000000001","596.8711431702998","394.5","10","28","","",""
"","","","","","html-keyboard-response","73","448232","0.0-11.0-1.9","639cc81017566d4a414d09db","64d3ef96556dbe1f0e02b5aa","64da645552852a457ec47fb9","","","","","","","","","","","","","","","","","","","","","","","","402.004110192376","283.0091162667048","3439.199999988079","","","","","","","","","","","","",""
"","","","","","html-keyboard-response","73","448232","0.0-11.0-1.9","639cc81017566d4a414d09db","64d3ef96556dbe1f0e02b5aa","64da645552852a457ec47fb9","","","","","","","","","","","","","","","","","","reconstruct","","","","","","402.004110192376","283.0091162667048","3439.199999988079","","","","","","","","","","28","3","500","250"
"","","","","","html-keyboard-response","74","451248","0.0-11.0-0.10","639cc81017566d4a414d09db","64d3ef96556dbe1f0e02b5aa","64da645552852a457ec47fb9","","null","","","","","","","","","","","","","null","","","fallScene","","","","","","","","","","","","true","60.06378000000143","322.3","379.3711431702997","245.25","1","29","","",""
"","","","","","html-keyboard-response","75","454107","0.0-11.0-1.10","639cc81017566d4a414d09db","64d3ef96556dbe1f0e02b5aa","64da645552852a457ec47fb9","","","","","","","","","","","","","","","","","","","","","","","","645.9900000004461","248.9999970130472","2858.4000000059605","","","","","","","","","","","","",""
"","","","","","html-keyboard-response","75","454107","0.0-11.0-1.10","639cc81017566d4a414d09db","64d3ef96556dbe1f0e02b5aa","64da645552852a457ec47fb9","","","","","","","","","","","","","","","","","","reconstruct","","","","","","645.9900000004461","248.9999970130472","2858.4000000059605","","","","","","","","","","29","1","375","250"
"","","","","","html-keyboard-response","76","457121","0.0-11.0-0.11","639cc81017566d4a414d09db","64d3ef96556dbe1f0e02b5aa","64da645552852a457ec47fb9","","null","","","","","","","","","","","","","null","","","fallScene","","","","","","","","","","","","false","60.06425999999978","500","479.92114317029973","330.87","6","30","","",""
"","","","","","html-keyboard-response","77","460296","0.0-11.0-1.11","639cc81017566d4a414d09db","64d3ef96556dbe1f0e02b5aa","64da645552852a457ec47fb9","","","","","","","","","","","","","","","","","","","","","","","","471.0099995001874","296.0000999800074","3174.399999976158","","","","","","","","","","","","",""
"","","","","","html-keyboard-response","77","460296","0.0-11.0-1.11","639cc81017566d4a414d09db","64d3ef96556dbe1f0e02b5aa","64da645552852a457ec47fb9","","","","","","","","","","","","","","","","","","reconstruct","","","","","","471.0099995001874","296.0000999800074","3174.399999976158","","","","","","","","","","30","6","625","350"
"","","","","","html-keyboard-response","78","463310","0.0-11.0-0.12","639cc81017566d4a414d09db","64d3ef96556dbe1f0e02b5aa","64da645552852a457ec47fb9","","null","","","","","","","","","","","","","null","","","fallScene","","","","","","","","","","","","true","60.06120000000112","322.3","296.07114317029976","371.46","3","31","","",""
"","","","","","html-keyboard-response","79","467064","0.0-11.0-1.12","639cc81017566d4a414d09db","64d3ef96556dbe1f0e02b5aa","64da645552852a457ec47fb9","","","","","","","","","","","","","","","","","","","","","","","","670.999950025744","310.0099998751279","3753.300000011921","","","","","","","","","","","","",""
"","","","","","html-keyboard-response","79","467064","0.0-11.0-1.12","639cc81017566d4a414d09db","64d3ef96556dbe1f0e02b5aa","64da645552852a457ec47fb9","","","","","","","","","","","","","","","","","","reconstruct","","","","","","670.999950025744","310.0099998751279","3753.300000011921","","","","","","","","","","31","4","500","350"
"","","","","","html-keyboard-response","80","470069","0.0-11.0-0.13","639cc81017566d4a414d09db","64d3ef96556dbe1f0e02b5aa","64da645552852a457ec47fb9","","null","","","","","","","","","","","","","null","","","fallScene","","","","","","","","","","","","true","60.056520000002344","500","479.92114317029973","330.87","6","32","","",""
"","","","","","html-keyboard-response","81","472840","0.0-11.0-1.13","639cc81017566d4a414d09db","64d3ef96556dbe1f0e02b5aa","64da645552852a457ec47fb9","","","","","","","","","","","","","","","","","","","","","","","","519.0006374606335","281.00997966151436","2770.699999988079","","","","","","","","","","","","",""
"","","","","","html-keyboard-response","81","472840","0.0-11.0-1.13","639cc81017566d4a414d09db","64d3ef96556dbe1f0e02b5aa","64da645552852a457ec47fb9","","","","","","","","","","","","","","","","","","reconstruct","","","","","","519.0006374606335","281.00997966151436","2770.699999988079","","","","","","","","","","32","4","500","350"
"","","","","","html-keyboard-response","82","475847","0.0-11.0-0.14","639cc81017566d4a414d09db","64d3ef96556dbe1f0e02b5aa","64da645552852a457ec47fb9","","null","","","","","","","","","","","","","null","","","fallScene","","","","","","","","","","","","false","60.062999999999306","604.4000000000001","575.4211431702997","266.76","12","33","","",""
"","","","","","html-keyboard-response","83","479007","0.0-11.0-1.14","639cc81017566d4a414d09db","64d3ef96556dbe1f0e02b5aa","64da645552852a457ec47fb9","","","","","","","","","","","","","","","","","","","","","","","","598.0072954854636","314.0068392903031","3159.5","","","","","","","","","","","","",""
"","","","","","html-keyboard-response","83","479007","0.0-11.0-1.14","639cc81017566d4a414d09db","64d3ef96556dbe1f0e02b5aa","64da645552852a457ec47fb9","","","","","","","","","","","","","","","","","","reconstruct","","","","","","598.0072954854636","314.0068392903031","3159.5","","","","","","","","","","33","6","625","350"
"","","","","","html-keyboard-response","84","482012","0.0-11.0-0.15","639cc81017566d4a414d09db","64d3ef96556dbe1f0e02b5aa","64da645552852a457ec47fb9","","null","","","","","","","","","","","","","null","","","fallScene","","","","","","","","","","","","false","59.047199999999314","500","510.8711431702997","369.03","8","34","","",""
"","","","","","html-keyboard-response","85","485212","0.0-11.0-1.15","639cc81017566d4a414d09db","64d3ef96556dbe1f0e02b5aa","64da645552852a457ec47fb9","","","","","","","","","","","","","","","","","","","","","","","","526.0099999906677","302.99998633810407","3199.5","","","","","","","","","","","","",""
"","","","","","html-keyboard-response","85","485212","0.0-11.0-1.15","639cc81017566d4a414d09db","64d3ef96556dbe1f0e02b5aa","64da645552852a457ec47fb9","","","","","","","","","","","","","","","","","","reconstruct","","","","","","526.0099999906677","302.99998633810407","3199.5","","","","","","","","","","34","5","625","250"
"","","","","","html-keyboard-response","86","488217","0.0-11.0-0.16","639cc81017566d4a414d09db","64d3ef96556dbe1f0e02b5aa","64da645552852a457ec47fb9","","null","","","","","","","","","","","","","null","","","fallScene","","","","","","","","","","","","false","55.04752000000007","322.3","379.3711431702997","245.25","1","35","","",""
"","","","","","html-keyboard-response","87","492010","0.0-11.0-1.16","639cc81017566d4a414d09db","64d3ef96556dbe1f0e02b5aa","64da645552852a457ec47fb9","","","","","","","","","","","","","","","","","","","","","","","","346.9985824219547","227.00989901371275","3792.0999999940395","","","","","","","","","","","","",""
"","","","","","html-keyboard-response","87","492010","0.0-11.0-1.16","639cc81017566d4a414d09db","64d3ef96556dbe1f0e02b5aa","64da645552852a457ec47fb9","","","","","","","","","","","","","","","","","","reconstruct","","","","","","346.9985824219547","227.00989901371275","3792.0999999940395","","","","","","","","","","35","4","500","350"
"","","","","","html-keyboard-response","88","495024","0.0-11.0-0.17","639cc81017566d4a414d09db","64d3ef96556dbe1f0e02b5aa","64da645552852a457ec47fb9","","null","","","","","","","","","","","","","null","","","fallScene","","","","","","","","","","","","true","60.05939999999944","604.4000000000001","650.0211431702996","404.58000000000004","11","36","","",""
"","","","","","html-keyboard-response","89","497584","0.0-11.0-1.17","639cc81017566d4a414d09db","64d3ef96556dbe1f0e02b5aa","64da645552852a457ec47fb9","","","","","","","","","","","","","","","","","","","","","","","","319.00999676498895","281.9997456581912","2559","","","","","","","","","","","","",""
"","","","","","html-keyboard-response","89","497584","0.0-11.0-1.17","639cc81017566d4a414d09db","64d3ef96556dbe1f0e02b5aa","64da645552852a457ec47fb9","","","","","","","","","","","","","","","","","","reconstruct","","","","","","319.00999676498895","281.9997456581912","2559","","","","","","","","","","36","3","500","250"
"","","","","","html-button-response","90","523515","0.0-12.0","639cc81017566d4a414d09db","64d3ef96556dbe1f0e02b5aa","64da645552852a457ec47fb9","","25928","","","","","","","","","","","","","0","","","","<p><span style = ""font-size:40px;"">BREAK</span></p><p>You are halfway done! Click 'Next' when you are ready for the next set.</p>","","","","","","","","","","","","","","","","","","","",""
"","","","","","html-keyboard-response","91","526526","0.0-13.0-0.0","639cc81017566d4a414d09db","64d3ef96556dbe1f0e02b5aa","64da645552852a457ec47fb9","","null","","","","","","","","","","","","","null","","","fallScene","","","","","","","","","","","","false","60.06203999999911","604.4000000000001","667.6211431702998","201.78","9","37","","",""
"","","","","","html-keyboard-response","92","529579","0.0-13.0-1.0","639cc81017566d4a414d09db","64d3ef96556dbe1f0e02b5aa","64da645552852a457ec47fb9","","","","","","","","","","","","","","","","","","","","","","","","621.0000024462394","299.0099999997008","3052.800000011921","","","","","","","","","","","","",""
"","","","","","html-keyboard-response","92","529579","0.0-13.0-1.0","639cc81017566d4a414d09db","64d3ef96556dbe1f0e02b5aa","64da645552852a457ec47fb9","","","","","","","","","","","","","","","","","","reconstruct","","","","","","621.0000024462394","299.0099999997008","3052.800000011921","","","","","","","","","","37","6","625","350"
"","","","","","html-keyboard-response","93","532583","0.0-13.0-0.1","639cc81017566d4a414d09db","64d3ef96556dbe1f0e02b5aa","64da645552852a457ec47fb9","","null","","","","","","","","","","","","","null","","","fallScene","","","","","","","","","","","","false","60.0629999999958","604.4000000000001","667.6211431702998","201.78","9","38","","",""
"","","","","","html-keyboard-response","94","536075","0.0-13.0-1.1","639cc81017566d4a414d09db","64d3ef96556dbe1f0e02b5aa","64da645552852a457ec47fb9","","","","","","","","","","","","","","","","","","","","","","","","618.990000003154","299.0000079423052","3491.0999999940395","","","","","","","","","","","","",""
"","","","","","html-keyboard-response","94","536075","0.0-13.0-1.1","639cc81017566d4a414d09db","64d3ef96556dbe1f0e02b5aa","64da645552852a457ec47fb9","","","","","","","","","","","","","","","","","","reconstruct","","","","","","618.990000003154","299.0000079423052","3491.0999999940395","","","","","","","","","","38","3","500","250"
"","","","","","html-keyboard-response","95","539086","0.0-13.0-0.2","639cc81017566d4a414d09db","64d3ef96556dbe1f0e02b5aa","64da645552852a457ec47fb9","","null","","","","","","","","","","","","","null","","","fallScene","","","","","","","","","","","","true","60.05951999999815","604.4000000000001","575.4211431702997","266.76","12","39","","",""
"","","","","","html-keyboard-response","96","542320","0.0-13.0-1.2","639cc81017566d4a414d09db","64d3ef96556dbe1f0e02b5aa","64da645552852a457ec47fb9","","","","","","","","","","","","","","","","","","","","","","","","407.99","254.99999999999974","3233.5999999940395","","","","","","","","","","","","",""
"","","","","","html-keyboard-response","96","542320","0.0-13.0-1.2","639cc81017566d4a414d09db","64d3ef96556dbe1f0e02b5aa","64da645552852a457ec47fb9","","","","","","","","","","","","","","","","","","reconstruct","","","","","","407.99","254.99999999999974","3233.5999999940395","","","","","","","","","","39","5","625","250"
"","","","","","html-keyboard-response","97","545325","0.0-13.0-0.3","639cc81017566d4a414d09db","64d3ef96556dbe1f0e02b5aa","64da645552852a457ec47fb9","","null","","","","","","","","","","","","","null","","","fallScene","","","","","","","","","","","","false","60.05022000000346","322.3","308.07114317029976","253.89","2","40","","",""
"","","","","","html-keyboard-response","98","549068","0.0-13.0-1.3","639cc81017566d4a414d09db","64d3ef96556dbe1f0e02b5aa","64da645552852a457ec47fb9","","","","","","","","","","","","","","","","","","","","","","","","313.00684754800506","284.9927122646646","3742.300000011921","","","","","","","","","","","","",""
"","","","","","html-keyboard-response","98","549068","0.0-13.0-1.3","639cc81017566d4a414d09db","64d3ef96556dbe1f0e02b5aa","64da645552852a457ec47fb9","","","","","","","","","","","","","","","","","","reconstruct","","","","","","313.00684754800506","284.9927122646646","3742.300000011921","","","","","","","","","","40","3","500","250"
"","","","","","html-keyboard-response","99","552082","0.0-13.0-0.4","639cc81017566d4a414d09db","64d3ef96556dbe1f0e02b5aa","64da645552852a457ec47fb9","","null","","","","","","","","","","","","","null","","","fallScene","","","","","","","","","","","","true","60.062280000003526","604.4000000000001","650.0211431702996","404.58000000000004","11","41","","",""
"","","","","","html-keyboard-response","100","555260","0.0-13.0-1.4","639cc81017566d4a414d09db","64d3ef96556dbe1f0e02b5aa","64da645552852a457ec47fb9","","","","","","","","","","","","","","","","","","","","","","","","336.00702926374345","312.9928873738166","3178.4000000059605","","","","","","","","","","","","",""
"","","","","","html-keyboard-response","100","555260","0.0-13.0-1.4","639cc81017566d4a414d09db","64d3ef96556dbe1f0e02b5aa","64da645552852a457ec47fb9","","","","","","","","","","","","","","","","","","reconstruct","","","","","","336.00702926374345","312.9928873738166","3178.4000000059605","","","","","","","","","","41","5","625","250"
"","","","","","html-keyboard-response","101","558270","0.0-13.0-0.5","639cc81017566d4a414d09db","64d3ef96556dbe1f0e02b5aa","64da645552852a457ec47fb9","","null","","","","","","","","","","","","","null","","","fallScene","","","","","","","","","","","","true","53.05315900000138","604.4000000000001","667.6211431702998","201.78","9","42","","",""
"","","","","","html-keyboard-response","102","561495","0.0-13.0-1.5","639cc81017566d4a414d09db","64d3ef96556dbe1f0e02b5aa","64da645552852a457ec47fb9","","","","","","","","","","","","","","","","","","","","","","","","368.0000003051009","322.99000000000467","3224.2999999821186","","","","","","","","","","","","",""
"","","","","","html-keyboard-response","102","561495","0.0-13.0-1.5","639cc81017566d4a414d09db","64d3ef96556dbe1f0e02b5aa","64da645552852a457ec47fb9","","","","","","","","","","","","","","","","","","reconstruct","","","","","","368.0000003051009","322.99000000000467","3224.2999999821186","","","","","","","","","","42","5","625","250"
"","","","","","html-keyboard-response","103","564500","0.0-13.0-0.6","639cc81017566d4a414d09db","64d3ef96556dbe1f0e02b5aa","64da645552852a457ec47fb9","","null","","","","","","","","","","","","","null","","","fallScene","","","","","","","","","","","","true","60.060180000001566","500","510.8711431702997","369.03","8","43","","",""
"","","","","","html-keyboard-response","104","569126","0.0-13.0-1.6","639cc81017566d4a414d09db","64d3ef96556dbe1f0e02b5aa","64da645552852a457ec47fb9","","","","","","","","","","","","","","","","","","","","","","","","449.99","327.00000000011","4625.4000000059605","","","","","","","","","","","","",""
"","","","","","html-keyboard-response","104","569126","0.0-13.0-1.6","639cc81017566d4a414d09db","64d3ef96556dbe1f0e02b5aa","64da645552852a457ec47fb9","","","","","","","","","","","","","","","","","","reconstruct","","","","","","449.99","327.00000000011","4625.4000000059605","","","","","","","","","","43","3","500","250"
"","","","","","html-keyboard-response","105","572133","0.0-13.0-0.7","639cc81017566d4a414d09db","64d3ef96556dbe1f0e02b5aa","64da645552852a457ec47fb9","","null","","","","","","","","","","","","","null","","","fallScene","","","","","","","","","","","","false","60.057060000000064","604.4000000000001","575.4211431702997","266.76","12","44","","",""
"","","","","","html-keyboard-response","106","575151","0.0-13.0-1.7","639cc81017566d4a414d09db","64d3ef96556dbe1f0e02b5aa","64da645552852a457ec47fb9","","","","","","","","","","","","","","","","","","","","","","","","569.009673409715","266.0025347868719","3017.2999999821186","","","","","","","","","","","","",""
"","","","","","html-keyboard-response","106","575151","0.0-13.0-1.7","639cc81017566d4a414d09db","64d3ef96556dbe1f0e02b5aa","64da645552852a457ec47fb9","","","","","","","","","","","","","","","","","","reconstruct","","","","","","569.009673409715","266.0025347868719","3017.2999999821186","","","","","","","","","","44","4","500","350"
"","","","","","html-keyboard-response","107","578156","0.0-13.0-0.8","639cc81017566d4a414d09db","64d3ef96556dbe1f0e02b5aa","64da645552852a457ec47fb9","","null","","","","","","","","","","","","","null","","","fallScene","","","","","","","","","","","","false","60.05981999999844","500","479.92114317029973","330.87","6","45","","",""
"","","","","","html-keyboard-response","108","581438","0.0-13.0-1.8","639cc81017566d4a414d09db","64d3ef96556dbe1f0e02b5aa","64da645552852a457ec47fb9","","","","","","","","","","","","","","","","","","","","","","","","500","291.99","3281.800000011921","","","","","","","","","","","","",""
"","","","","","html-keyboard-response","108","581438","0.0-13.0-1.8","639cc81017566d4a414d09db","64d3ef96556dbe1f0e02b5aa","64da645552852a457ec47fb9","","","","","","","","","","","","","","","","","","reconstruct","","","","","","500","291.99","3281.800000011921","","","","","","","","","","45","3","500","250"
"","","","","","html-keyboard-response","109","584458","0.0-13.0-0.9","639cc81017566d4a414d09db","64d3ef96556dbe1f0e02b5aa","64da645552852a457ec47fb9","","null","","","","","","","","","","","","","null","","","fallScene","","","","","","","","","","","","true","60.05880000000586","322.3","379.3711431702997","245.25","1","46","","",""
"","","","","","html-keyboard-response","110","588572","0.0-13.0-1.9","639cc81017566d4a414d09db","64d3ef96556dbe1f0e02b5aa","64da645552852a457ec47fb9","","","","","","","","","","","","","","","","","","","","","","","","602.0000645842522","253.99000020855846","4113.300000011921","","","","","","","","","","","","",""
"","","","","","html-keyboard-response","110","588572","0.0-13.0-1.9","639cc81017566d4a414d09db","64d3ef96556dbe1f0e02b5aa","64da645552852a457ec47fb9","","","","","","","","","","","","","","","","","","reconstruct","","","","","","602.0000645842522","253.99000020855846","4113.300000011921","","","","","","","","","","46","5","625","250"
"","","","","","html-keyboard-response","111","591587","0.0-13.0-0.10","639cc81017566d4a414d09db","64d3ef96556dbe1f0e02b5aa","64da645552852a457ec47fb9","","null","","","","","","","","","","","","","null","","","fallScene","","","","","","","","","","","","true","57.05027399999904","322.3","296.07114317029976","371.46","3","47","","",""
"","","","","","html-keyboard-response","112","596406","0.0-13.0-1.10","639cc81017566d4a414d09db","64d3ef96556dbe1f0e02b5aa","64da645552852a457ec47fb9","","","","","","","","","","","","","","","","","","","","","","","","684.99","265.00000000370613","4818.199999988079","","","","","","","","","","","","",""
"","","","","","html-keyboard-response","112","596406","0.0-13.0-1.10","639cc81017566d4a414d09db","64d3ef96556dbe1f0e02b5aa","64da645552852a457ec47fb9","","","","","","","","","","","","","","","","","","reconstruct","","","","","","684.99","265.00000000370613","4818.199999988079","","","","","","","","","","47","3","500","250"
"","","","","","html-keyboard-response","113","599426","0.0-13.0-0.11","639cc81017566d4a414d09db","64d3ef96556dbe1f0e02b5aa","64da645552852a457ec47fb9","","null","","","","","","","","","","","","","null","","","fallScene","","","","","","","","","","","","false","56.05857599999849","604.4000000000001","596.8711431702998","394.5","10","48","","",""
"","","","","","html-keyboard-response","114","603246","0.0-13.0-1.11","639cc81017566d4a414d09db","64d3ef96556dbe1f0e02b5aa","64da645552852a457ec47fb9","","","","","","","","","","","","","","","","","","","","","","","","607.0091062870359","284.00413225560914","3818.4000000059605","","","","","","","","","","","","",""
"","","","","","html-keyboard-response","114","603246","0.0-13.0-1.11","639cc81017566d4a414d09db","64d3ef96556dbe1f0e02b5aa","64da645552852a457ec47fb9","","","","","","","","","","","","","","","","","","reconstruct","","","","","","607.0091062870359","284.00413225560914","3818.4000000059605","","","","","","","","","","48","2","375","350"
"","","","","","html-keyboard-response","115","606251","0.0-13.0-0.12","639cc81017566d4a414d09db","64d3ef96556dbe1f0e02b5aa","64da645552852a457ec47fb9","","null","","","","","","","","","","","","","null","","","fallScene","","","","","","","","","","","","false","54.0481679999996","322.3","296.07114317029976","371.46","3","49","","",""
"","","","","","html-keyboard-response","116","610130","0.0-13.0-1.12","639cc81017566d4a414d09db","64d3ef96556dbe1f0e02b5aa","64da645552852a457ec47fb9","","","","","","","","","","","","","","","","","","","","","","","","283.00635983165074","301.0077170293102","3878.4000000059605","","","","","","","","","","","","",""
"","","","","","html-keyboard-response","116","610130","0.0-13.0-1.12","639cc81017566d4a414d09db","64d3ef96556dbe1f0e02b5aa","64da645552852a457ec47fb9","","","","","","","","","","","","","","","","","","reconstruct","","","","","","283.00635983165074","301.0077170293102","3878.4000000059605","","","","","","","","","","49","6","625","350"
"","","","","","html-keyboard-response","117","613136","0.0-13.0-0.13","639cc81017566d4a414d09db","64d3ef96556dbe1f0e02b5aa","64da645552852a457ec47fb9","","null","","","","","","","","","","","","","null","","","fallScene","","","","","","","","","","","","false","54.0631259999997","604.4000000000001","650.0211431702996","404.58000000000004","11","50","","",""
"","","","","","html-keyboard-response","118","617244","0.0-13.0-1.13","639cc81017566d4a414d09db","64d3ef96556dbe1f0e02b5aa","64da645552852a457ec47fb9","","","","","","","","","","","","","","","","","","","","","","","","639.9901054765439","322.99855141255796","4105","","","","","","","","","","","","",""
"","","","","","html-keyboard-response","118","617244","0.0-13.0-1.13","639cc81017566d4a414d09db","64d3ef96556dbe1f0e02b5aa","64da645552852a457ec47fb9","","","","","","","","","","","","","","","","","","reconstruct","","","","","","639.9901054765439","322.99855141255796","4105","","","","","","","","","","50","1","375","250"
"","","","","","html-keyboard-response","119","620250","0.0-13.0-0.14","639cc81017566d4a414d09db","64d3ef96556dbe1f0e02b5aa","64da645552852a457ec47fb9","","null","","","","","","","","","","","","","null","","","fallScene","","","","","","","","","","","","false","54.057348000001866","604.4000000000001","650.0211431702996","404.58000000000004","11","51","","",""
"","","","","","html-keyboard-response","120","625651","0.0-13.0-1.14","639cc81017566d4a414d09db","64d3ef96556dbe1f0e02b5aa","64da645552852a457ec47fb9","","","","","","","","","","","","","","","","","","","","","","","","660.01","344","5400.4000000059605","","","","","","","","","","","","",""
"","","","","","html-keyboard-response","120","625651","0.0-13.0-1.14","639cc81017566d4a414d09db","64d3ef96556dbe1f0e02b5aa","64da645552852a457ec47fb9","","","","","","","","","","","","","","","","","","reconstruct","","","","","","660.01","344","5400.4000000059605","","","","","","","","","","51","2","375","350"
"","","","","","html-keyboard-response","121","628659","0.0-13.0-0.15","639cc81017566d4a414d09db","64d3ef96556dbe1f0e02b5aa","64da645552852a457ec47fb9","","null","","","","","","","","","","","","","null","","","fallScene","","","","","","","","","","","","true","55.0545049999957","322.3","379.3711431702997","245.25","1","52","","",""
"","","","","","html-keyboard-response","122","632832","0.0-13.0-1.15","639cc81017566d4a414d09db","64d3ef96556dbe1f0e02b5aa","64da645552852a457ec47fb9","","","","","","","","","","","","","","","","","","","","","","","","633.9999999999931","250.01","4172.199999988079","","","","","","","","","","","","",""
"","","","","","html-keyboard-response","122","632832","0.0-13.0-1.15","639cc81017566d4a414d09db","64d3ef96556dbe1f0e02b5aa","64da645552852a457ec47fb9","","","","","","","","","","","","","","","","","","reconstruct","","","","","","633.9999999999931","250.01","4172.199999988079","","","","","","","","","","52","2","375","350"
"","","","","","html-keyboard-response","123","635836","0.0-13.0-0.16","639cc81017566d4a414d09db","64d3ef96556dbe1f0e02b5aa","64da645552852a457ec47fb9","","null","","","","","","","","","","","","","null","","","fallScene","","","","","","","","","","","","true","51.05523299999919","604.4000000000001","575.4211431702997","266.76","12","53","","",""
"","","","","","html-keyboard-response","124","639325","0.0-13.0-1.16","639cc81017566d4a414d09db","64d3ef96556dbe1f0e02b5aa","64da645552852a457ec47fb9","","","","","","","","","","","","","","","","","","","","","","","","401.00864848122205","345.0050203359003","3488.300000011921","","","","","","","","","","","","",""
"","","","","","html-keyboard-response","124","639325","0.0-13.0-1.16","639cc81017566d4a414d09db","64d3ef96556dbe1f0e02b5aa","64da645552852a457ec47fb9","","","","","","","","","","","","","","","","","","reconstruct","","","","","","401.00864848122205","345.0050203359003","3488.300000011921","","","","","","","","","","53","2","375","350"
"","","","","","html-keyboard-response","125","642331","0.0-13.0-0.17","639cc81017566d4a414d09db","64d3ef96556dbe1f0e02b5aa","64da645552852a457ec47fb9","","null","","","","","","","","","","","","","null","","","fallScene","","","","","","","","","","","","true","51.05125500000023","322.3","308.07114317029976","253.89","2","54","","",""
"","","","","","html-keyboard-response","126","646879","0.0-13.0-1.17","639cc81017566d4a414d09db","64d3ef96556dbe1f0e02b5aa","64da645552852a457ec47fb9","","","","","","","","","","","","","","","","","","","","","","","","693.9900000000001","288.9999999599909","4548","","","","","","","","","","","","",""
"","","","","","html-keyboard-response","126","646879","0.0-13.0-1.17","639cc81017566d4a414d09db","64d3ef96556dbe1f0e02b5aa","64da645552852a457ec47fb9","","","","","","","","","","","","","","","","","","reconstruct","","","","","","693.9900000000001","288.9999999599909","4548","","","","","","","","","","54","5","625","250"
"","","","","","html-button-response","127","651074","0.0-14.0","639cc81017566d4a414d09db","64d3ef96556dbe1f0e02b5aa","64da645552852a457ec47fb9","","4190","","","","","","","","","","","","","0","","","","<p><span style = ""font-size:40px;"">BREAK</span></p><p>You are almost done! Click 'Next' when you are ready for the next set.</p>","","","","","","","","","","","","","","","","","","","",""
"","","","","","html-keyboard-response","128","654078","0.0-15.0-0.0","639cc81017566d4a414d09db","64d3ef96556dbe1f0e02b5aa","64da645552852a457ec47fb9","","null","","","","","","","","","","","","","null","","","fallScene","","","","","","","","","","","","false","50.05135000000009","500","553.4711431702997","282.51","7","55","","",""
"","","","","","html-keyboard-response","129","658125","0.0-15.0-1.0","639cc81017566d4a414d09db","64d3ef96556dbe1f0e02b5aa","64da645552852a457ec47fb9","","","","","","","","","","","","","","","","","","","","","","","","565.999999962332","317.99000000000007","4046.800000011921","","","","","","","","","","","","",""
"","","","","","html-keyboard-response","129","658126","0.0-15.0-1.0","639cc81017566d4a414d09db","64d3ef96556dbe1f0e02b5aa","64da645552852a457ec47fb9","","","","","","","","","","","","","","","","","","reconstruct","","","","","","565.999999962332","317.99000000000007","4046.800000011921","","","","","","","","","","55","1","375","250"
"","","","","","html-keyboard-response","130","661133","0.0-15.0-0.1","639cc81017566d4a414d09db","64d3ef96556dbe1f0e02b5aa","64da645552852a457ec47fb9","","null","","","","","","","","","","","","","null","","","fallScene","","","","","","","","","","","","false","51.04737900000019","500","510.8711431702997","369.03","8","56","","",""
"","","","","","html-keyboard-response","131","665119","0.0-15.0-1.1","639cc81017566d4a414d09db","64d3ef96556dbe1f0e02b5aa","64da645552852a457ec47fb9","","","","","","","","","","","","","","","","","","","","","","","","540.99","342","3984.5","","","","","","","","","","","","",""
"","","","","","html-keyboard-response","131","665119","0.0-15.0-1.1","639cc81017566d4a414d09db","64d3ef96556dbe1f0e02b5aa","64da645552852a457ec47fb9","","","","","","","","","","","","","","","","","","reconstruct","","","","","","540.99","342","3984.5","","","","","","","","","","56","2","375","350"
"","","","","","html-keyboard-response","132","668123","0.0-15.0-0.2","639cc81017566d4a414d09db","64d3ef96556dbe1f0e02b5aa","64da645552852a457ec47fb9","","null","","","","","","","","","","","","","null","","","fallScene","","","","","","","","","","","","false","48.046511999996376","322.3","379.3711431702997","245.25","1","57","","",""
"","","","","","html-keyboard-response","133","673144","0.0-15.0-1.2","639cc81017566d4a414d09db","64d3ef96556dbe1f0e02b5aa","64da645552852a457ec47fb9","","","","","","","","","","","","","","","","","","","","","","","","374.00996709569006","251.99918944247287","5019.5999999940395","","","","","","","","","","","","",""
"","","","","","html-keyboard-response","133","673144","0.0-15.0-1.2","639cc81017566d4a414d09db","64d3ef96556dbe1f0e02b5aa","64da645552852a457ec47fb9","","","","","","","","","","","","","","","","","","reconstruct","","","","","","374.00996709569006","251.99918944247287","5019.5999999940395","","","","","","","","","","57","3","500","250"
"","","","","","html-keyboard-response","134","676142","0.0-15.0-0.3","639cc81017566d4a414d09db","64d3ef96556dbe1f0e02b5aa","64da645552852a457ec47fb9","","null","","","","","","","","","","","","","null","","","fallScene","","","","","","","","","","","","true","48.061824000002815","604.4000000000001","596.8711431702998","394.5","10","58","","",""
"","","","","","html-keyboard-response","135","679835","0.0-15.0-1.3","639cc81017566d4a414d09db","64d3ef96556dbe1f0e02b5aa","64da645552852a457ec47fb9","","","","","","","","","","","","","","","","","","","","","","","","419.9929275461891","327.0070696815411","3691.9000000059605","","","","","","","","","","","","",""
"","","","","","html-keyboard-response","135","679835","0.0-15.0-1.3","639cc81017566d4a414d09db","64d3ef96556dbe1f0e02b5aa","64da645552852a457ec47fb9","","","","","","","","","","","","","","","","","","reconstruct","","","","","","419.9929275461891","327.0070696815411","3691.9000000059605","","","","","","","","","","58","6","625","350"
"","","","","","html-keyboard-response","136","682840","0.0-15.0-0.4","639cc81017566d4a414d09db","64d3ef96556dbe1f0e02b5aa","64da645552852a457ec47fb9","","null","","","","","","","","","","","","","null","","","fallScene","","","","","","","","","","","","false","46.04057199999922","500","453.67114317029973","210.33","5","59","","",""
"","","","","","html-keyboard-response","137","685976","0.0-15.0-1.4","639cc81017566d4a414d09db","64d3ef96556dbe1f0e02b5aa","64da645552852a457ec47fb9","","","","","","","","","","","","","","","","","","","","","","","","477.9983215901557","320.0098581408184","3135.0999999940395","","","","","","","","","","","","",""
"","","","","","html-keyboard-response","137","685976","0.0-15.0-1.4","639cc81017566d4a414d09db","64d3ef96556dbe1f0e02b5aa","64da645552852a457ec47fb9","","","","","","","","","","","","","","","","","","reconstruct","","","","","","477.9983215901557","320.0098581408184","3135.0999999940395","","","","","","","","","","59","4","500","350"
"","","","","","html-keyboard-response","138","688984","0.0-15.0-0.5","639cc81017566d4a414d09db","64d3ef96556dbe1f0e02b5aa","64da645552852a457ec47fb9","","null","","","","","","","","","","","","","null","","","fallScene","","","","","","","","","","","","false","47.826165999999034","604.4000000000001","596.8711431702998","394.5","10","60","","",""
"","","","","","html-keyboard-response","139","692522","0.0-15.0-1.5","639cc81017566d4a414d09db","64d3ef96556dbe1f0e02b5aa","64da645552852a457ec47fb9","","","","","","","","","","","","","","","","","","","","","","","","631.0065113393892","345.9924103715929","3537.5","","","","","","","","","","","","",""
"","","","","","html-keyboard-response","139","692522","0.0-15.0-1.5","639cc81017566d4a414d09db","64d3ef96556dbe1f0e02b5aa","64da645552852a457ec47fb9","","","","","","","","","","","","","","","","","","reconstruct","","","","","","631.0065113393892","345.9924103715929","3537.5","","","","","","","","","","60","1","375","250"
"","","","","","html-keyboard-response","140","695530","0.0-15.0-0.6","639cc81017566d4a414d09db","64d3ef96556dbe1f0e02b5aa","64da645552852a457ec47fb9","","null","","","","","","","","","","","","","null","","","fallScene","","","","","","","","","","","","true","46.046413999998244","500","510.8711431702997","369.03","8","61","","",""
"","","","","","html-keyboard-response","141","699203","0.0-15.0-1.6","639cc81017566d4a414d09db","64d3ef96556dbe1f0e02b5aa","64da645552852a457ec47fb9","","","","","","","","","","","","","","","","","","","","","","","","454.01","335.00000000000085","3672.699999988079","","","","","","","","","","","","",""
"","","","","","html-keyboard-response","141","699203","0.0-15.0-1.6","639cc81017566d4a414d09db","64d3ef96556dbe1f0e02b5aa","64da645552852a457ec47fb9","","","","","","","","","","","","","","","","","","reconstruct","","","","","","454.01","335.00000000000085","3672.699999988079","","","","","","","","","","61","1","375","250"
"","","","","","html-keyboard-response","142","702216","0.0-15.0-0.7","639cc81017566d4a414d09db","64d3ef96556dbe1f0e02b5aa","64da645552852a457ec47fb9","","null","","","","","","","","","","","","","null","","","fallScene","","","","","","","","","","","","true","45.06295499999891","500","479.92114317029973","330.87","6","62","","",""
"","","","","","html-keyboard-response","143","707664","0.0-15.0-1.7","639cc81017566d4a414d09db","64d3ef96556dbe1f0e02b5aa","64da645552852a457ec47fb9","","","","","","","","","","","","","","","","","","","","","","","","502.9900002596012","366.9999279447677","5445.199999988079","","","","","","","","","","","","",""
"","","","","","html-keyboard-response","143","707664","0.0-15.0-1.7","639cc81017566d4a414d09db","64d3ef96556dbe1f0e02b5aa","64da645552852a457ec47fb9","","","","","","","","","","","","","","","","","","reconstruct","","","","","","502.9900002596012","366.9999279447677","5445.199999988079","","","","","","","","","","62","1","375","250"
"","","","","","html-keyboard-response","144","710670","0.0-15.0-0.8","639cc81017566d4a414d09db","64d3ef96556dbe1f0e02b5aa","64da645552852a457ec47fb9","","null","","","","","","","","","","","","","null","","","fallScene","","","","","","","","","","","","false","43.03667900000012","322.3","308.07114317029976","253.89","2","63","","",""
"","","","","","html-keyboard-response","145","714670","0.0-15.0-1.8","639cc81017566d4a414d09db","64d3ef96556dbe1f0e02b5aa","64da645552852a457ec47fb9","","","","","","","","","","","","","","","","","","","","","","","","367.00999997413334","329.00002274494494","4000.2000000178814","","","","","","","","","","","","",""
"","","","","","html-keyboard-response","145","714670","0.0-15.0-1.8","639cc81017566d4a414d09db","64d3ef96556dbe1f0e02b5aa","64da645552852a457ec47fb9","","","","","","","","","","","","","","","","","","reconstruct","","","","","","367.00999997413334","329.00002274494494","4000.2000000178814","","","","","","","","","","63","4","500","350"
"","","","","","html-keyboard-response","146","717675","0.0-15.0-0.9","639cc81017566d4a414d09db","64d3ef96556dbe1f0e02b5aa","64da645552852a457ec47fb9","","null","","","","","","","","","","","","","null","","","fallScene","","","","","","","","","","","","true","44.77897600000119","500","453.67114317029973","210.33","5","64","","",""
"","","","","","html-keyboard-response","147","721087","0.0-15.0-1.9","639cc81017566d4a414d09db","64d3ef96556dbe1f0e02b5aa","64da645552852a457ec47fb9","","","","","","","","","","","","","","","","","","","","","","","","494.00998279510577","328.9994136537914","3410.300000011921","","","","","","","","","","","","",""
"","","","","","html-keyboard-response","147","721087","0.0-15.0-1.9","639cc81017566d4a414d09db","64d3ef96556dbe1f0e02b5aa","64da645552852a457ec47fb9","","","","","","","","","","","","","","","","","","reconstruct","","","","","","494.00998279510577","328.9994136537914","3410.300000011921","","","","","","","","","","64","2","375","350"
"","","","","","html-keyboard-response","148","724092","0.0-15.0-0.10","639cc81017566d4a414d09db","64d3ef96556dbe1f0e02b5aa","64da645552852a457ec47fb9","","null","","","","","","","","","","","","","null","","","fallScene","","","","","","","","","","","","true","44.77220000000205","500","553.4711431702997","282.51","7","65","","",""
"","","","","","html-keyboard-response","149","727531","0.0-15.0-1.10","639cc81017566d4a414d09db","64d3ef96556dbe1f0e02b5aa","64da645552852a457ec47fb9","","","","","","","","","","","","","","","","","","","","","","","","439.9942341809632","314.00817039355445","3437.300000011921","","","","","","","","","","","","",""
"","","","","","html-keyboard-response","149","727531","0.0-15.0-1.10","639cc81017566d4a414d09db","64d3ef96556dbe1f0e02b5aa","64da645552852a457ec47fb9","","","","","","","","","","","","","","","","","","reconstruct","","","","","","439.9942341809632","314.00817039355445","3437.300000011921","","","","","","","","","","65","4","500","350"
"","","","","","html-keyboard-response","150","730540","0.0-15.0-0.11","639cc81017566d4a414d09db","64d3ef96556dbe1f0e02b5aa","64da645552852a457ec47fb9","","null","","","","","","","","","","","","","null","","","fallScene","","","","","","","","","","","","true","43.040076000001285","604.4000000000001","575.4211431702997","266.76","12","66","","",""
"","","","","","html-keyboard-response","151","734387","0.0-15.0-1.11","639cc81017566d4a414d09db","64d3ef96556dbe1f0e02b5aa","64da645552852a457ec47fb9","","","","","","","","","","","","","","","","","","","","","","","","441.0079967261889","313.0060043626023","3846.300000011921","","","","","","","","","","","","",""
"","","","","","html-keyboard-response","151","734387","0.0-15.0-1.11","639cc81017566d4a414d09db","64d3ef96556dbe1f0e02b5aa","64da645552852a457ec47fb9","","","","","","","","","","","","","","","","","","reconstruct","","","","","","441.0079967261889","313.0060043626023","3846.300000011921","","","","","","","","","","66","1","375","250"
"","","","","","html-keyboard-response","152","737394","0.0-15.0-0.12","639cc81017566d4a414d09db","64d3ef96556dbe1f0e02b5aa","64da645552852a457ec47fb9","","null","","","","","","","","","","","","","null","","","fallScene","","","","","","","","","","","","false","43.04050600000168","500","453.67114317029973","210.33","5","67","","",""
"","","","","","html-keyboard-response","153","741081","0.0-15.0-1.12","639cc81017566d4a414d09db","64d3ef96556dbe1f0e02b5aa","64da645552852a457ec47fb9","","","","","","","","","","","","","","","","","","","","","","","","513.9963350218713","330.9906958108727","3687.0999999940395","","","","","","","","","","","","",""
"","","","","","html-keyboard-response","153","741081","0.0-15.0-1.12","639cc81017566d4a414d09db","64d3ef96556dbe1f0e02b5aa","64da645552852a457ec47fb9","","","","","","","","","","","","","","","","","","reconstruct","","","","","","513.9963350218713","330.9906958108727","3687.0999999940395","","","","","","","","","","67","1","375","250"
"","","","","","html-keyboard-response","154","744086","0.0-15.0-0.13","639cc81017566d4a414d09db","64d3ef96556dbe1f0e02b5aa","64da645552852a457ec47fb9","","null","","","","","","","","","","","","","null","","","fallScene","","","","","","","","","","","","false","42.04783799999859","604.4000000000001","650.0211431702996","404.58000000000004","11","68","","",""
"","","","","","html-keyboard-response","155","747566","0.0-15.0-1.13","639cc81017566d4a414d09db","64d3ef96556dbe1f0e02b5aa","64da645552852a457ec47fb9","","","","","","","","","","","","","","","","","","","","","","","","635.01","350","3478.4000000059605","","","","","","","","","","","","",""
"","","","","","html-keyboard-response","155","747566","0.0-15.0-1.13","639cc81017566d4a414d09db","64d3ef96556dbe1f0e02b5aa","64da645552852a457ec47fb9","","","","","","","","","","","","","","","","","","reconstruct","","","","","","635.01","350","3478.4000000059605","","","","","","","","","","68","6","625","350"
"","","","","","html-keyboard-response","156","750570","0.0-15.0-0.14","639cc81017566d4a414d09db","64d3ef96556dbe1f0e02b5aa","64da645552852a457ec47fb9","","null","","","","","","","","","","","","","null","","","fallScene","","","","","","","","","","","","true","42.04103399999813","322.3","356.42114317029973","357.87","4","69","","",""
"","","","","","html-keyboard-response","157","755255","0.0-15.0-1.14","639cc81017566d4a414d09db","64d3ef96556dbe1f0e02b5aa","64da645552852a457ec47fb9","","","","","","","","","","","","","","","","","","","","","","","","647.9900000000001","337.000000043554","4684.5","","","","","","","","","","","","",""
"","","","","","html-keyboard-response","157","755255","0.0-15.0-1.14","639cc81017566d4a414d09db","64d3ef96556dbe1f0e02b5aa","64da645552852a457ec47fb9","","","","","","","","","","","","","","","","","","reconstruct","","","","","","647.9900000000001","337.000000043554","4684.5","","","","","","","","","","69","3","500","250"
"","","","","","html-keyboard-response","158","758260","0.0-15.0-0.15","639cc81017566d4a414d09db","64d3ef96556dbe1f0e02b5aa","64da645552852a457ec47fb9","","null","","","","","","","","","","","","","null","","","fallScene","","","","","","","","","","","","false","38.0410019999966","322.3","356.42114317029973","357.87","4","70","","",""
"","","","","","html-keyboard-response","159","762449","0.0-15.0-1.15","639cc81017566d4a414d09db","64d3ef96556dbe1f0e02b5aa","64da645552852a457ec47fb9","","","","","","","","","","","","","","","","","","","","","","","","396.0070563445523","339.0070857604785","4188.0999999940395","","","","","","","","","","","","",""
"","","","","","html-keyboard-response","159","762449","0.0-15.0-1.15","639cc81017566d4a414d09db","64d3ef96556dbe1f0e02b5aa","64da645552852a457ec47fb9","","","","","","","","","","","","","","","","","","reconstruct","","","","","","396.0070563445523","339.0070857604785","4188.0999999940395","","","","","","","","","","70","6","625","350"
"","","","","","html-keyboard-response","160","765453","0.0-15.0-0.16","639cc81017566d4a414d09db","64d3ef96556dbe1f0e02b5aa","64da645552852a457ec47fb9","","null","","","","","","","","","","","","","null","","","fallScene","","","","","","","","","","","","false","40.703919999999925","322.3","308.07114317029976","253.89","2","71","","",""
"","","","","","html-keyboard-response","161","768662","0.0-15.0-1.16","639cc81017566d4a414d09db","64d3ef96556dbe1f0e02b5aa","64da645552852a457ec47fb9","","","","","","","","","","","","","","","","","","","","","","","","424.99002814629495","352.0007497557504","3208.9000000059605","","","","","","","","","","","","",""
"","","","","","html-keyboard-response","161","768663","0.0-15.0-1.16","639cc81017566d4a414d09db","64d3ef96556dbe1f0e02b5aa","64da645552852a457ec47fb9","","","","","","","","","","","","","","","","","","reconstruct","","","","","","424.99002814629495","352.0007497557504","3208.9000000059605","","","","","","","","","","71","2","375","350"
"","","","","","html-keyboard-response","162","771675","0.0-15.0-0.17","639cc81017566d4a414d09db","64d3ef96556dbe1f0e02b5aa","64da645552852a457ec47fb9","","null","","","","","","","","","","","","","null","","","fallScene","","","","","","","","","","","","true","40.03416000000201","322.3","356.42114317029973","357.87","4","72","","",""
"","","","","","html-keyboard-response","163","774970","0.0-15.0-1.17","639cc81017566d4a414d09db","64d3ef96556dbe1f0e02b5aa","64da645552852a457ec47fb9","","","","","","","","","","","","","","","","","","","","","","","","624","396.99","3294.199999988079","","","","","","","","","","","","",""
"","","","","","html-keyboard-response","163","774970","0.0-15.0-1.17","639cc81017566d4a414d09db","64d3ef96556dbe1f0e02b5aa","64da645552852a457ec47fb9","","","","","","","","","","","","","","","","","","reconstruct","","","","","","624","396.99","3294.199999988079","","","","","","","","","","72","2","375","350"
"","","","","","survey-text","164","820819","0.0-16.0","639cc81017566d4a414d09db","64d3ef96556dbe1f0e02b5aa","64da645552852a457ec47fb9","","45831","","","","","","","","","","","","","{""Summary"":""placing the triangle where the ball hit it behind the gray screen""}","","","","","","","","","","","","","","","","","","","","","","","",""
"","","","","","survey-text","165","873697","0.0-17.0","639cc81017566d4a414d09db","64d3ef96556dbe1f0e02b5aa","64da645552852a457ec47fb9","","52846","","","","","","","","","","","","","{""Comments"":""Fun study, thanks.""}","","","","","","","","","","","","","","","","","","","","","","","",""
