"success","timeout","failed_images","failed_audio","failed_video","trial_type","trial_index","time_elapsed","internal_node_id","subject_id","study_id","session_id","view_history","rt","width","height","webaudio","browser","browser_version","mobile","os","fullscreen","vsync_rate","webcam","microphone","url","response","triangle_prac_final_x","triangle_prac_final_y","trial_name","stimulus","ball_X_prac_occ","ball_Y_prac_occ","obstacle_X_prac_occ","obstacle_Y_prac_occ","triangle_final_x","triangle_final_y","response_time","obstacle_X_prac_occ_init","obstacle_Y_prac_occ_init","question_order","flipped","runnerFPS","ball_X","obstacle_groundTruth_x","obstacle_groundTruth_y","stimulus_idx","currentTrial","obstacle_idx","obstacle_initial_x","obstacle_initial_y"
"true","false","[]","[]","[]","preload","0","75","0.0-0.0","63d729a2b7d60227b7b282de","64d3ef96556dbe1f0e02b5aa","64da90de626e05ababfbade3","","","","","","","","","","","","","","","","","","","","","","","","","","","","","","","","","","","","","","",""
"","","","","","instructions","1","15096","0.0-1.0","63d729a2b7d60227b7b282de","64d3ef96556dbe1f0e02b5aa","64da90de626e05ababfbade3","[{""page_index"":0,""viewing_time"":15016}]","15018","","","","","","","","","","","","","","","","","","","","","","","","","","","","","","","","","","","","",""
"","","","","","browser-check","2","16097","0.0-2.0","63d729a2b7d60227b7b282de","64d3ef96556dbe1f0e02b5aa","64da90de626e05ababfbade3","","","1417","722","true","safari","16.2.0","false","Mac OS","true","60.18","true","true","","","","","","","","","","","","","","","","","","","","","","","","","",""
"","","","","","external-html","3","20053","0.0-3.0","63d729a2b7d60227b7b282de","64d3ef96556dbe1f0e02b5aa","64da90de626e05ababfbade3","","3909","","","","","","","","","","","","consent.html","","","","","","","","","","","","","","","","","","","","","","","","",""
"true","","","","","fullscreen","4","29737","0.0-4.0","63d729a2b7d60227b7b282de","64d3ef96556dbe1f0e02b5aa","64da90de626e05ababfbade3","","9181","","","","","","","","","","","","","","","","","","","","","","","","","","","","","","","","","","","","",""
"","","","","","survey-text","5","33899","0.0-5.0","63d729a2b7d60227b7b282de","64d3ef96556dbe1f0e02b5aa","64da90de626e05ababfbade3","","4130","","","","","","","","","","","","","{""prolificID"":""63d729a2b7d60227b7b282de""}","","","","","","","","","","","","","","","","","","","","","","","",""
"","","","","","browser-check","6","34913","0.0-6.0","63d729a2b7d60227b7b282de","64d3ef96556dbe1f0e02b5aa","64da90de626e05ababfbade3","","","1440","900","true","safari","16.2.0","false","Mac OS","true","59.94","true","true","","","","","","","","","","","","","","","","","","","","","","","","","",""
"","","","","","instructions","7","85050","0.0-7.0-0.0-0.0","63d729a2b7d60227b7b282de","64d3ef96556dbe1f0e02b5aa","64da90de626e05ababfbade3","[{""page_index"":0,""viewing_time"":19778},{""page_index"":1,""viewing_time"":5073},{""page_index"":2,""viewing_time"":16956},{""page_index"":3,""viewing_time"":8327}]","50135","","","","","","","","","","","","","","","","","","","","","","","","","","","","","","","","","","","","",""
"","","","","","html-keyboard-response","8","101056","0.0-7.0-0.0-1.0","63d729a2b7d60227b7b282de","64d3ef96556dbe1f0e02b5aa","64da90de626e05ababfbade3","","","","","","","","","","","","","","","","390.97324900778375","374.00926104350486","","","","","","","","","","","","","","","","","","","","","",""
"","","","","","html-keyboard-response","8","101056","0.0-7.0-0.0-1.0","63d729a2b7d60227b7b282de","64d3ef96556dbe1f0e02b5aa","64da90de626e05ababfbade3","","","","","","","","","","","","","","","","","","practiceTrial_move","","","","","","","","","","","","","","","","","","","","",""
"","","","","","html-button-response","9","109052","0.0-7.0-0.0-2.0","63d729a2b7d60227b7b282de","64d3ef96556dbe1f0e02b5aa","64da90de626e05ababfbade3","","7993","","","","","","","","","","","","","0","","","","<p>To help you get more comfortable with the task, let's begin with a practice trial first!</p><p>As described previously, you will first see a video of a ball falling, some of it behind a gray screen.</p><p>After the video, you will drag a triangle to the spot you think the ball hit the triangle behind the screen.</p><p>Click 'Next' to start your practice trial.</p>","","","","","","","","","","","","","","","","","","","",""
"","","","","","html-keyboard-response","10","112060","0.0-7.0-0.0-3.0","63d729a2b7d60227b7b282de","64d3ef96556dbe1f0e02b5aa","64da90de626e05ababfbade3","","null","","","","","","","","","","","","","null","","","fallScene_practiceTrial_withOccluder","","400","50","420","415","","","","","","","","","","","","","","","",""
"","","","","","html-keyboard-response","11","115654","0.0-7.0-0.0-4.0","63d729a2b7d60227b7b282de","64d3ef96556dbe1f0e02b5aa","64da90de626e05ababfbade3","","","","","","","","","","","","","","","","","","","","","","","","347.99000733988925","338.0003830716779","3591","","","","","","","","","","","","",""
"","","","","","html-keyboard-response","11","115654","0.0-7.0-0.0-4.0","63d729a2b7d60227b7b282de","64d3ef96556dbe1f0e02b5aa","64da90de626e05ababfbade3","","","","","","","","","","","","","","","","","","reconstruct_practiceTrial_withOccluder","","","","","","347.99000733988925","338.0003830716779","3591","500","300","","","","","","","","","","",""
"","","","","","html-button-response","12","122641","0.0-7.0-0.0-5.0","63d729a2b7d60227b7b282de","64d3ef96556dbe1f0e02b5aa","64da90de626e05ababfbade3","","6986","","","","","","","","","","","","","1","","","","<p>Ok! We're almost ready to get started.</p><p>We just have a <b>brief quiz</b>, to make sure you understood the task.</p><p>If you need to review the instructions, click 'Previous'.</p><p>It's important to understand the task to do the study, so you have to pass the quiz to move to the study.</p>","","","","","","","","","","","","","","","","","","","",""
"","","","","","survey-multi-choice","13","132275","0.0-7.0-1.0-0.0","63d729a2b7d60227b7b282de","64d3ef96556dbe1f0e02b5aa","64da90de626e05ababfbade3","","9632","","","","","","","","","","","","","{""generalProcedure"":""Watch a video of a ball falling, some of it behind a gray screen. After each video, drag a triangle to where I think the ball hit the triangle behind the screen.""}","","","","","","","","","","","","","","[0]","","","","","","","","","",""
"","","","","","survey-multi-choice","14","137738","0.0-7.0-1.0-1.0","63d729a2b7d60227b7b282de","64d3ef96556dbe1f0e02b5aa","64da90de626e05ababfbade3","","5456","","","","","","","","","","","","","{""checkBallHitObstacle"":""Yes.""}","","","","","","","","","","","","","","[0]","","","","","","","","","",""
"","","","","","survey-multi-choice","15","142436","0.0-7.0-1.0-2.0","63d729a2b7d60227b7b282de","64d3ef96556dbe1f0e02b5aa","64da90de626e05ababfbade3","","4690","","","","","","","","","","","","","{""checkTriangleVisibility"":""No, the triangle is hidden behind the gray screen.""}","","","","","","","","","","","","","","[0]","","","","","","","","","",""
"","","","","","instructions","16","153551","0.0-8.0","63d729a2b7d60227b7b282de","64d3ef96556dbe1f0e02b5aa","64da90de626e05ababfbade3","[{""page_index"":0,""viewing_time"":11107}]","11107","","","","","","","","","","","","","","","","","","","","","","","","","","","","","","","","","","","","",""
"","","","","","html-keyboard-response","17","156555","0.0-9.0-0.0","63d729a2b7d60227b7b282de","64d3ef96556dbe1f0e02b5aa","64da90de626e05ababfbade3","","null","","","","","","","","","","","","","null","","","fallScene","","","","","","","","","","","","true","61.976","604.4000000000001","575.4211431702997","266.76","12","1","","",""
"","","","","","html-keyboard-response","18","159672","0.0-9.0-1.0","63d729a2b7d60227b7b282de","64d3ef96556dbe1f0e02b5aa","64da90de626e05ababfbade3","","","","","","","","","","","","","","","","","","","","","","","","316.01","347.9999999859537","3116","","","","","","","","","","","","",""
"","","","","","html-keyboard-response","18","159673","0.0-9.0-1.0","63d729a2b7d60227b7b282de","64d3ef96556dbe1f0e02b5aa","64da90de626e05ababfbade3","","","","","","","","","","","","","","","","","","reconstruct","","","","","","316.01","347.9999999859537","3116","","","","","","","","","","1","6","625","350"
"","","","","","html-keyboard-response","19","162677","0.0-9.0-0.1","63d729a2b7d60227b7b282de","64d3ef96556dbe1f0e02b5aa","64da90de626e05ababfbade3","","null","","","","","","","","","","","","","null","","","fallScene","","","","","","","","","","","","true","60","500","453.67114317029973","210.33","5","2","","",""
"","","","","","html-keyboard-response","20","166190","0.0-9.0-1.1","63d729a2b7d60227b7b282de","64d3ef96556dbe1f0e02b5aa","64da90de626e05ababfbade3","","","","","","","","","","","","","","","","","","","","","","","","471.9999986238178","308.9900000000947","3511","","","","","","","","","","","","",""
"","","","","","html-keyboard-response","20","166190","0.0-9.0-1.1","63d729a2b7d60227b7b282de","64d3ef96556dbe1f0e02b5aa","64da90de626e05ababfbade3","","","","","","","","","","","","","","","","","","reconstruct","","","","","","471.9999986238178","308.9900000000947","3511","","","","","","","","","","2","1","375","250"
"","","","","","html-keyboard-response","21","169193","0.0-9.0-0.2","63d729a2b7d60227b7b282de","64d3ef96556dbe1f0e02b5aa","64da90de626e05ababfbade3","","null","","","","","","","","","","","","","null","","","fallScene","","","","","","","","","","","","true","60","322.3","308.07114317029976","253.89","2","3","","",""
"","","","","","html-keyboard-response","22","172439","0.0-9.0-1.2","63d729a2b7d60227b7b282de","64d3ef96556dbe1f0e02b5aa","64da90de626e05ababfbade3","","","","","","","","","","","","","","","","","","","","","","","","783.9900028138615","319.9997627884686","3244","","","","","","","","","","","","",""
"","","","","","html-keyboard-response","22","172439","0.0-9.0-1.2","63d729a2b7d60227b7b282de","64d3ef96556dbe1f0e02b5aa","64da90de626e05ababfbade3","","","","","","","","","","","","","","","","","","reconstruct","","","","","","783.9900028138615","319.9997627884686","3244","","","","","","","","","","3","5","625","250"
"","","","","","html-keyboard-response","23","175446","0.0-9.0-0.3","63d729a2b7d60227b7b282de","64d3ef96556dbe1f0e02b5aa","64da90de626e05ababfbade3","","null","","","","","","","","","","","","","null","","","fallScene","","","","","","","","","","","","true","60","604.4000000000001","596.8711431702998","394.5","10","4","","",""
"","","","","","html-keyboard-response","24","178624","0.0-9.0-1.3","63d729a2b7d60227b7b282de","64d3ef96556dbe1f0e02b5aa","64da90de626e05ababfbade3","","","","","","","","","","","","","","","","","","","","","","","","290.9900000000068","246.00000036852103","3175","","","","","","","","","","","","",""
"","","","","","html-keyboard-response","24","178624","0.0-9.0-1.3","63d729a2b7d60227b7b282de","64d3ef96556dbe1f0e02b5aa","64da90de626e05ababfbade3","","","","","","","","","","","","","","","","","","reconstruct","","","","","","290.9900000000068","246.00000036852103","3175","","","","","","","","","","4","6","625","350"
"","","","","","html-keyboard-response","25","181628","0.0-9.0-0.4","63d729a2b7d60227b7b282de","64d3ef96556dbe1f0e02b5aa","64da90de626e05ababfbade3","","null","","","","","","","","","","","","","null","","","fallScene","","","","","","","","","","","","false","60","604.4000000000001","575.4211431702997","266.76","12","5","","",""
"","","","","","html-keyboard-response","26","187090","0.0-9.0-1.4","63d729a2b7d60227b7b282de","64d3ef96556dbe1f0e02b5aa","64da90de626e05ababfbade3","","","","","","","","","","","","","","","","","","","","","","","","731.9804258212505","359.9971129796959","5459.000000000029","","","","","","","","","","","","",""
"","","","","","html-keyboard-response","26","187090","0.0-9.0-1.4","63d729a2b7d60227b7b282de","64d3ef96556dbe1f0e02b5aa","64da90de626e05ababfbade3","","","","","","","","","","","","","","","","","","reconstruct","","","","","","731.9804258212505","359.9971129796959","5459.000000000029","","","","","","","","","","5","4","500","350"
"","","","","","html-keyboard-response","27","190094","0.0-9.0-0.5","63d729a2b7d60227b7b282de","64d3ef96556dbe1f0e02b5aa","64da90de626e05ababfbade3","","null","","","","","","","","","","","","","null","","","fallScene","","","","","","","","","","","","false","60","322.3","296.07114317029976","371.46","3","6","","",""
"","","","","","html-keyboard-response","28","193990","0.0-9.0-1.5","63d729a2b7d60227b7b282de","64d3ef96556dbe1f0e02b5aa","64da90de626e05ababfbade3","","","","","","","","","","","","","","","","","","","","","","","","325.01","358.0000000015017","3893.999999999971","","","","","","","","","","","","",""
"","","","","","html-keyboard-response","28","193990","0.0-9.0-1.5","63d729a2b7d60227b7b282de","64d3ef96556dbe1f0e02b5aa","64da90de626e05ababfbade3","","","","","","","","","","","","","","","","","","reconstruct","","","","","","325.01","358.0000000015017","3893.999999999971","","","","","","","","","","6","6","625","350"
"","","","","","html-keyboard-response","29","196993","0.0-9.0-0.6","63d729a2b7d60227b7b282de","64d3ef96556dbe1f0e02b5aa","64da90de626e05ababfbade3","","null","","","","","","","","","","","","","null","","","fallScene","","","","","","","","","","","","false","61.91499999999999","322.3","379.3711431702997","245.25","1","7","","",""
"","","","","","html-keyboard-response","30","200673","0.0-9.0-1.6","63d729a2b7d60227b7b282de","64d3ef96556dbe1f0e02b5aa","64da90de626e05ababfbade3","","","","","","","","","","","","","","","","","","","","","","","","277.99000235075016","319.9997831833104","3679","","","","","","","","","","","","",""
"","","","","","html-keyboard-response","30","200673","0.0-9.0-1.6","63d729a2b7d60227b7b282de","64d3ef96556dbe1f0e02b5aa","64da90de626e05ababfbade3","","","","","","","","","","","","","","","","","","reconstruct","","","","","","277.99000235075016","319.9997831833104","3679","","","","","","","","","","7","5","625","250"
"","","","","","html-keyboard-response","31","203677","0.0-9.0-0.7","63d729a2b7d60227b7b282de","64d3ef96556dbe1f0e02b5aa","64da90de626e05ababfbade3","","null","","","","","","","","","","","","","null","","","fallScene","","","","","","","","","","","","true","60.059999999999995","322.3","379.3711431702997","245.25","1","8","","",""
"","","","","","html-keyboard-response","32","206573","0.0-9.0-1.7","63d729a2b7d60227b7b282de","64d3ef96556dbe1f0e02b5aa","64da90de626e05ababfbade3","","","","","","","","","","","","","","","","","","","","","","","","761.9900004998674","362.99990001451295","2894","","","","","","","","","","","","",""
"","","","","","html-keyboard-response","32","206573","0.0-9.0-1.7","63d729a2b7d60227b7b282de","64d3ef96556dbe1f0e02b5aa","64da90de626e05ababfbade3","","","","","","","","","","","","","","","","","","reconstruct","","","","","","761.9900004998674","362.99990001451295","2894","","","","","","","","","","8","6","625","350"
"","","","","","html-keyboard-response","33","209577","0.0-9.0-0.8","63d729a2b7d60227b7b282de","64d3ef96556dbe1f0e02b5aa","64da90de626e05ababfbade3","","null","","","","","","","","","","","","","null","","","fallScene","","","","","","","","","","","","true","60.059999999999995","604.4000000000001","650.0211431702996","404.58000000000004","11","9","","",""
"","","","","","html-keyboard-response","34","214239","0.0-9.0-1.8","63d729a2b7d60227b7b282de","64d3ef96556dbe1f0e02b5aa","64da90de626e05ababfbade3","","","","","","","","","","","","","","","","","","","","","","","","381.9900002462056","354.9999298284107","4660.000000000029","","","","","","","","","","","","",""
"","","","","","html-keyboard-response","34","214240","0.0-9.0-1.8","63d729a2b7d60227b7b282de","64d3ef96556dbe1f0e02b5aa","64da90de626e05ababfbade3","","","","","","","","","","","","","","","","","","reconstruct","","","","","","381.9900002462056","354.9999298284107","4660.000000000029","","","","","","","","","","9","1","375","250"
"","","","","","html-keyboard-response","35","217242","0.0-9.0-0.9","63d729a2b7d60227b7b282de","64d3ef96556dbe1f0e02b5aa","64da90de626e05ababfbade3","","null","","","","","","","","","","","","","null","","","fallScene","","","","","","","","","","","","false","60","500","453.67114317029973","210.33","5","10","","",""
"","","","","","html-keyboard-response","36","220040","0.0-9.0-1.9","63d729a2b7d60227b7b282de","64d3ef96556dbe1f0e02b5aa","64da90de626e05ababfbade3","","","","","","","","","","","","","","","","","","","","","","","","697.9910169772229","350.0043937798973","2796","","","","","","","","","","","","",""
"","","","","","html-keyboard-response","36","220040","0.0-9.0-1.9","63d729a2b7d60227b7b282de","64d3ef96556dbe1f0e02b5aa","64da90de626e05ababfbade3","","","","","","","","","","","","","","","","","","reconstruct","","","","","","697.9910169772229","350.0043937798973","2796","","","","","","","","","","10","4","500","350"
"","","","","","html-keyboard-response","37","223043","0.0-9.0-0.10","63d729a2b7d60227b7b282de","64d3ef96556dbe1f0e02b5aa","64da90de626e05ababfbade3","","null","","","","","","","","","","","","","null","","","fallScene","","","","","","","","","","","","false","60","500","553.4711431702997","282.51","7","11","","",""
"","","","","","html-keyboard-response","38","226240","0.0-9.0-1.10","63d729a2b7d60227b7b282de","64d3ef96556dbe1f0e02b5aa","64da90de626e05ababfbade3","","","","","","","","","","","","","","","","","","","","","","","","379.00048087683064","376.9900115688182","3196.999999999971","","","","","","","","","","","","",""
"","","","","","html-keyboard-response","38","226241","0.0-9.0-1.10","63d729a2b7d60227b7b282de","64d3ef96556dbe1f0e02b5aa","64da90de626e05ababfbade3","","","","","","","","","","","","","","","","","","reconstruct","","","","","","379.00048087683064","376.9900115688182","3196.999999999971","","","","","","","","","","11","1","375","250"
"","","","","","html-keyboard-response","39","229245","0.0-9.0-0.11","63d729a2b7d60227b7b282de","64d3ef96556dbe1f0e02b5aa","64da90de626e05ababfbade3","","null","","","","","","","","","","","","","null","","","fallScene","","","","","","","","","","","","true","60","322.3","308.07114317029976","253.89","2","12","","",""
"","","","","","html-keyboard-response","40","231908","0.0-9.0-1.11","63d729a2b7d60227b7b282de","64d3ef96556dbe1f0e02b5aa","64da90de626e05ababfbade3","","","","","","","","","","","","","","","","","","","","","","","","483.99000077756455","375.0001247023922","2661","","","","","","","","","","","","",""
"","","","","","html-keyboard-response","40","231908","0.0-9.0-1.11","63d729a2b7d60227b7b282de","64d3ef96556dbe1f0e02b5aa","64da90de626e05ababfbade3","","","","","","","","","","","","","","","","","","reconstruct","","","","","","483.99000077756455","375.0001247023922","2661","","","","","","","","","","12","2","375","350"
"","","","","","html-keyboard-response","41","234913","0.0-9.0-0.12","63d729a2b7d60227b7b282de","64d3ef96556dbe1f0e02b5aa","64da90de626e05ababfbade3","","null","","","","","","","","","","","","","null","","","fallScene","","","","","","","","","","","","true","61.976","500","510.8711431702997","369.03","8","13","","",""
"","","","","","html-keyboard-response","42","237408","0.0-9.0-1.12","63d729a2b7d60227b7b282de","64d3ef96556dbe1f0e02b5aa","64da90de626e05ababfbade3","","","","","","","","","","","","","","","","","","","","","","","","631.000000257952","387.0099999999967","2493","","","","","","","","","","","","",""
"","","","","","html-keyboard-response","42","237408","0.0-9.0-1.12","63d729a2b7d60227b7b282de","64d3ef96556dbe1f0e02b5aa","64da90de626e05ababfbade3","","","","","","","","","","","","","","","","","","reconstruct","","","","","","631.000000257952","387.0099999999967","2493","","","","","","","","","","13","2","375","350"
"","","","","","html-keyboard-response","43","240411","0.0-9.0-0.13","63d729a2b7d60227b7b282de","64d3ef96556dbe1f0e02b5aa","64da90de626e05ababfbade3","","null","","","","","","","","","","","","","null","","","fallScene","","","","","","","","","","","","false","60","322.3","356.42114317029973","357.87","4","14","","",""
"","","","","","html-keyboard-response","44","243674","0.0-9.0-1.13","63d729a2b7d60227b7b282de","64d3ef96556dbe1f0e02b5aa","64da90de626e05ababfbade3","","","","","","","","","","","","","","","","","","","","","","","","260.99994837434673","381.9900001332613","3260.999999999971","","","","","","","","","","","","",""
"","","","","","html-keyboard-response","44","243675","0.0-9.0-1.13","63d729a2b7d60227b7b282de","64d3ef96556dbe1f0e02b5aa","64da90de626e05ababfbade3","","","","","","","","","","","","","","","","","","reconstruct","","","","","","260.99994837434673","381.9900001332613","3260.999999999971","","","","","","","","","","14","1","375","250"
"","","","","","html-keyboard-response","45","246678","0.0-9.0-0.14","63d729a2b7d60227b7b282de","64d3ef96556dbe1f0e02b5aa","64da90de626e05ababfbade3","","null","","","","","","","","","","","","","null","","","fallScene","","","","","","","","","","","","false","60","500","510.8711431702997","369.03","8","15","","",""
"","","","","","html-keyboard-response","46","250025","0.0-9.0-1.14","63d729a2b7d60227b7b282de","64d3ef96556dbe1f0e02b5aa","64da90de626e05ababfbade3","","","","","","","","","","","","","","","","","","","","","","","","388.9983751762959","362.0098671144683","3345","","","","","","","","","","","","",""
"","","","","","html-keyboard-response","46","250025","0.0-9.0-1.14","63d729a2b7d60227b7b282de","64d3ef96556dbe1f0e02b5aa","64da90de626e05ababfbade3","","","","","","","","","","","","","","","","","","reconstruct","","","","","","388.9983751762959","362.0098671144683","3345","","","","","","","","","","15","6","625","350"
"","","","","","html-keyboard-response","47","253030","0.0-9.0-0.15","63d729a2b7d60227b7b282de","64d3ef96556dbe1f0e02b5aa","64da90de626e05ababfbade3","","null","","","","","","","","","","","","","null","","","fallScene","","","","","","","","","","","","false","60","500","553.4711431702997","282.51","7","16","","",""
"","","","","","html-keyboard-response","48","257657","0.0-9.0-1.15","63d729a2b7d60227b7b282de","64d3ef96556dbe1f0e02b5aa","64da90de626e05ababfbade3","","","","","","","","","","","","","","","","","","","","","","","","406.00991136968213","367.99867156068103","4625","","","","","","","","","","","","",""
"","","","","","html-keyboard-response","48","257657","0.0-9.0-1.15","63d729a2b7d60227b7b282de","64d3ef96556dbe1f0e02b5aa","64da90de626e05ababfbade3","","","","","","","","","","","","","","","","","","reconstruct","","","","","","406.00991136968213","367.99867156068103","4625","","","","","","","","","","16","3","500","250"
"","","","","","html-keyboard-response","49","260659","0.0-9.0-0.16","63d729a2b7d60227b7b282de","64d3ef96556dbe1f0e02b5aa","64da90de626e05ababfbade3","","null","","","","","","","","","","","","","null","","","fallScene","","","","","","","","","","","","true","61.91499999999999","322.3","296.07114317029976","371.46","3","17","","",""
"","","","","","html-keyboard-response","50","264140","0.0-9.0-1.16","63d729a2b7d60227b7b282de","64d3ef96556dbe1f0e02b5aa","64da90de626e05ababfbade3","","","","","","","","","","","","","","","","","","","","","","","","675.0000701999132","400.9900002464044","3479.999999999971","","","","","","","","","","","","",""
"","","","","","html-keyboard-response","50","264140","0.0-9.0-1.16","63d729a2b7d60227b7b282de","64d3ef96556dbe1f0e02b5aa","64da90de626e05ababfbade3","","","","","","","","","","","","","","","","","","reconstruct","","","","","","675.0000701999132","400.9900002464044","3479.999999999971","","","","","","","","","","17","5","625","250"
"","","","","","html-keyboard-response","51","267153","0.0-9.0-0.17","63d729a2b7d60227b7b282de","64d3ef96556dbe1f0e02b5aa","64da90de626e05ababfbade3","","null","","","","","","","","","","","","","null","","","fallScene","","","","","","","","","","","","false","61.976","604.4000000000001","650.0211431702996","404.58000000000004","11","18","","",""
"","","","","","html-keyboard-response","52","270058","0.0-9.0-1.17","63d729a2b7d60227b7b282de","64d3ef96556dbe1f0e02b5aa","64da90de626e05ababfbade3","","","","","","","","","","","","","","","","","","","","","","","","625.9999986463281","359.99000000009164","2904","","","","","","","","","","","","",""
"","","","","","html-keyboard-response","52","270058","0.0-9.0-1.17","63d729a2b7d60227b7b282de","64d3ef96556dbe1f0e02b5aa","64da90de626e05ababfbade3","","","","","","","","","","","","","","","","","","reconstruct","","","","","","625.9999986463281","359.99000000009164","2904","","","","","","","","","","18","5","625","250"
"","","","","","html-button-response","53","271774","0.0-10.0","63d729a2b7d60227b7b282de","64d3ef96556dbe1f0e02b5aa","64da90de626e05ababfbade3","","1715","","","","","","","","","","","","","0","","","","<p><span style = ""font-size:40px;"">BREAK</span></p><p>You are doing great! Click 'Next' when you are ready for the next set.</p>","","","","","","","","","","","","","","","","","","","",""
"","","","","","html-keyboard-response","54","274777","0.0-11.0-0.0","63d729a2b7d60227b7b282de","64d3ef96556dbe1f0e02b5aa","64da90de626e05ababfbade3","","null","","","","","","","","","","","","","null","","","fallScene","","","","","","","","","","","","true","60","604.4000000000001","596.8711431702998","394.5","10","19","","",""
"","","","","","html-keyboard-response","55","278274","0.0-11.0-1.0","63d729a2b7d60227b7b282de","64d3ef96556dbe1f0e02b5aa","64da90de626e05ababfbade3","","","","","","","","","","","","","","","","","","","","","","","","307.99999905525954","359.00999999995537","3496.000000000058","","","","","","","","","","","","",""
"","","","","","html-keyboard-response","55","278274","0.0-11.0-1.0","63d729a2b7d60227b7b282de","64d3ef96556dbe1f0e02b5aa","64da90de626e05ababfbade3","","","","","","","","","","","","","","","","","","reconstruct","","","","","","307.99999905525954","359.00999999995537","3496.000000000058","","","","","","","","","","19","3","500","250"
"","","","","","html-keyboard-response","56","281278","0.0-11.0-0.1","63d729a2b7d60227b7b282de","64d3ef96556dbe1f0e02b5aa","64da90de626e05ababfbade3","","null","","","","","","","","","","","","","null","","","fallScene","","","","","","","","","","","","true","60","604.4000000000001","596.8711431702998","394.5","10","20","","",""
"","","","","","html-keyboard-response","57","284141","0.0-11.0-1.1","63d729a2b7d60227b7b282de","64d3ef96556dbe1f0e02b5aa","64da90de626e05ababfbade3","","","","","","","","","","","","","","","","","","","","","","","","339.00459281288335","356.9911170911398","2860","","","","","","","","","","","","",""
"","","","","","html-keyboard-response","57","284141","0.0-11.0-1.1","63d729a2b7d60227b7b282de","64d3ef96556dbe1f0e02b5aa","64da90de626e05ababfbade3","","","","","","","","","","","","","","","","","","reconstruct","","","","","","339.00459281288335","356.9911170911398","2860","","","","","","","","","","20","1","375","250"
"","","","","","html-keyboard-response","58","287146","0.0-11.0-0.2","63d729a2b7d60227b7b282de","64d3ef96556dbe1f0e02b5aa","64da90de626e05ababfbade3","","null","","","","","","","","","","","","","null","","","fallScene","","","","","","","","","","","","true","60","500","553.4711431702997","282.51","7","21","","",""
"","","","","","html-keyboard-response","59","290025","0.0-11.0-1.2","63d729a2b7d60227b7b282de","64d3ef96556dbe1f0e02b5aa","64da90de626e05ababfbade3","","","","","","","","","","","","","","","","","","","","","","","","532.0002057656129","326.9900021171985","2877.000000000058","","","","","","","","","","","","",""
"","","","","","html-keyboard-response","59","290025","0.0-11.0-1.2","63d729a2b7d60227b7b282de","64d3ef96556dbe1f0e02b5aa","64da90de626e05ababfbade3","","","","","","","","","","","","","","","","","","reconstruct","","","","","","532.0002057656129","326.9900021171985","2877.000000000058","","","","","","","","","","21","4","500","350"
"","","","","","html-keyboard-response","60","293030","0.0-11.0-0.3","63d729a2b7d60227b7b282de","64d3ef96556dbe1f0e02b5aa","64da90de626e05ababfbade3","","null","","","","","","","","","","","","","null","","","fallScene","","","","","","","","","","","","true","60","322.3","356.42114317029973","357.87","4","22","","",""
"","","","","","html-keyboard-response","61","296058","0.0-11.0-1.3","63d729a2b7d60227b7b282de","64d3ef96556dbe1f0e02b5aa","64da90de626e05ababfbade3","","","","","","","","","","","","","","","","","","","","","","","","636.007072846564","302.9929307113878","3026","","","","","","","","","","","","",""
"","","","","","html-keyboard-response","61","296058","0.0-11.0-1.3","63d729a2b7d60227b7b282de","64d3ef96556dbe1f0e02b5aa","64da90de626e05ababfbade3","","","","","","","","","","","","","","","","","","reconstruct","","","","","","636.007072846564","302.9929307113878","3026","","","","","","","","","","22","6","625","350"
"","","","","","html-keyboard-response","62","299061","0.0-11.0-0.4","63d729a2b7d60227b7b282de","64d3ef96556dbe1f0e02b5aa","64da90de626e05ababfbade3","","null","","","","","","","","","","","","","null","","","fallScene","","","","","","","","","","","","false","60","500","453.67114317029973","210.33","5","23","","",""
"","","","","","html-keyboard-response","63","301742","0.0-11.0-1.4","63d729a2b7d60227b7b282de","64d3ef96556dbe1f0e02b5aa","64da90de626e05ababfbade3","","","","","","","","","","","","","","","","","","","","","","","","545.990000457384","350.00009564240867","2679","","","","","","","","","","","","",""
"","","","","","html-keyboard-response","63","301742","0.0-11.0-1.4","63d729a2b7d60227b7b282de","64d3ef96556dbe1f0e02b5aa","64da90de626e05ababfbade3","","","","","","","","","","","","","","","","","","reconstruct","","","","","","545.990000457384","350.00009564240867","2679","","","","","","","","","","23","3","500","250"
"","","","","","html-keyboard-response","64","304747","0.0-11.0-0.5","63d729a2b7d60227b7b282de","64d3ef96556dbe1f0e02b5aa","64da90de626e05ababfbade3","","null","","","","","","","","","","","","","null","","","fallScene","","","","","","","","","","","","false","60","604.4000000000001","667.6211431702998","201.78","9","24","","",""
"","","","","","html-keyboard-response","65","310909","0.0-11.0-1.5","63d729a2b7d60227b7b282de","64d3ef96556dbe1f0e02b5aa","64da90de626e05ababfbade3","","","","","","","","","","","","","","","","","","","","","","","","698.0095070197513","389.9933937651438","6161","","","","","","","","","","","","",""
"","","","","","html-keyboard-response","65","310909","0.0-11.0-1.5","63d729a2b7d60227b7b282de","64d3ef96556dbe1f0e02b5aa","64da90de626e05ababfbade3","","","","","","","","","","","","","","","","","","reconstruct","","","","","","698.0095070197513","389.9933937651438","6161","","","","","","","","","","24","3","500","250"
"","","","","","html-keyboard-response","66","313913","0.0-11.0-0.6","63d729a2b7d60227b7b282de","64d3ef96556dbe1f0e02b5aa","64da90de626e05ababfbade3","","null","","","","","","","","","","","","","null","","","fallScene","","","","","","","","","","","","true","61.91499999999999","322.3","379.3711431702997","245.25","1","25","","",""
"","","","","","html-keyboard-response","67","317027","0.0-11.0-1.6","63d729a2b7d60227b7b282de","64d3ef96556dbe1f0e02b5aa","64da90de626e05ababfbade3","","","","","","","","","","","","","","","","","","","","","","","","697.9929301684693","360.00707230387695","3112","","","","","","","","","","","","",""
"","","","","","html-keyboard-response","67","317027","0.0-11.0-1.6","63d729a2b7d60227b7b282de","64d3ef96556dbe1f0e02b5aa","64da90de626e05ababfbade3","","","","","","","","","","","","","","","","","","reconstruct","","","","","","697.9929301684693","360.00707230387695","3112","","","","","","","","","","25","3","500","250"
"","","","","","html-keyboard-response","68","320031","0.0-11.0-0.7","63d729a2b7d60227b7b282de","64d3ef96556dbe1f0e02b5aa","64da90de626e05ababfbade3","","null","","","","","","","","","","","","","null","","","fallScene","","","","","","","","","","","","false","60","322.3","296.07114317029976","371.46","3","26","","",""
"","","","","","html-keyboard-response","69","322625","0.0-11.0-1.7","63d729a2b7d60227b7b282de","64d3ef96556dbe1f0e02b5aa","64da90de626e05ababfbade3","","","","","","","","","","","","","","","","","","","","","","","","368.00999974432125","420.9999284911951","2592","","","","","","","","","","","","",""
"","","","","","html-keyboard-response","69","322625","0.0-11.0-1.7","63d729a2b7d60227b7b282de","64d3ef96556dbe1f0e02b5aa","64da90de626e05ababfbade3","","","","","","","","","","","","","","","","","","reconstruct","","","","","","368.00999974432125","420.9999284911951","2592","","","","","","","","","","26","2","375","350"
"","","","","","html-keyboard-response","70","325629","0.0-11.0-0.8","63d729a2b7d60227b7b282de","64d3ef96556dbe1f0e02b5aa","64da90de626e05ababfbade3","","null","","","","","","","","","","","","","null","","","fallScene","","","","","","","","","","","","false","60","604.4000000000001","575.4211431702997","266.76","12","27","","",""
"","","","","","html-keyboard-response","71","328458","0.0-11.0-1.8","63d729a2b7d60227b7b282de","64d3ef96556dbe1f0e02b5aa","64da90de626e05ababfbade3","","","","","","","","","","","","","","","","","","","","","","","","658.9999031845307","438.99000046867275","2827","","","","","","","","","","","","",""
"","","","","","html-keyboard-response","71","328458","0.0-11.0-1.8","63d729a2b7d60227b7b282de","64d3ef96556dbe1f0e02b5aa","64da90de626e05ababfbade3","","","","","","","","","","","","","","","","","","reconstruct","","","","","","658.9999031845307","438.99000046867275","2827","","","","","","","","","","27","1","375","250"
"","","","","","html-keyboard-response","72","331463","0.0-11.0-0.9","63d729a2b7d60227b7b282de","64d3ef96556dbe1f0e02b5aa","64da90de626e05ababfbade3","","null","","","","","","","","","","","","","null","","","fallScene","","","","","","","","","","","","false","60","500","479.92114317029973","330.87","6","28","","",""
"","","","","","html-keyboard-response","73","334892","0.0-11.0-1.9","63d729a2b7d60227b7b282de","64d3ef96556dbe1f0e02b5aa","64da90de626e05ababfbade3","","","","","","","","","","","","","","","","","","","","","","","","636.0069495682772","392.0071905146381","3428","","","","","","","","","","","","",""
"","","","","","html-keyboard-response","73","334892","0.0-11.0-1.9","63d729a2b7d60227b7b282de","64d3ef96556dbe1f0e02b5aa","64da90de626e05ababfbade3","","","","","","","","","","","","","","","","","","reconstruct","","","","","","636.0069495682772","392.0071905146381","3428","","","","","","","","","","28","3","500","250"
"","","","","","html-keyboard-response","74","337897","0.0-11.0-0.10","63d729a2b7d60227b7b282de","64d3ef96556dbe1f0e02b5aa","64da90de626e05ababfbade3","","null","","","","","","","","","","","","","null","","","fallScene","","","","","","","","","","","","true","60","500","479.92114317029973","330.87","6","29","","",""
"","","","","","html-keyboard-response","75","341709","0.0-11.0-1.10","63d729a2b7d60227b7b282de","64d3ef96556dbe1f0e02b5aa","64da90de626e05ababfbade3","","","","","","","","","","","","","","","","","","","","","","","","421.00716764605284","369.99302684791064","3811","","","","","","","","","","","","",""
"","","","","","html-keyboard-response","75","341709","0.0-11.0-1.10","63d729a2b7d60227b7b282de","64d3ef96556dbe1f0e02b5aa","64da90de626e05ababfbade3","","","","","","","","","","","","","","","","","","reconstruct","","","","","","421.00716764605284","369.99302684791064","3811","","","","","","","","","","29","1","375","250"
"","","","","","html-keyboard-response","76","344712","0.0-11.0-0.11","63d729a2b7d60227b7b282de","64d3ef96556dbe1f0e02b5aa","64da90de626e05ababfbade3","","null","","","","","","","","","","","","","null","","","fallScene","","","","","","","","","","","","true","60","500","479.92114317029973","330.87","6","30","","",""
"","","","","","html-keyboard-response","77","347526","0.0-11.0-1.11","63d729a2b7d60227b7b282de","64d3ef96556dbe1f0e02b5aa","64da90de626e05ababfbade3","","","","","","","","","","","","","","","","","","","","","","","","360.99853594193837","381.99010775384494","2812","","","","","","","","","","","","",""
"","","","","","html-keyboard-response","77","347526","0.0-11.0-1.11","63d729a2b7d60227b7b282de","64d3ef96556dbe1f0e02b5aa","64da90de626e05ababfbade3","","","","","","","","","","","","","","","","","","reconstruct","","","","","","360.99853594193837","381.99010775384494","2812","","","","","","","","","","30","6","625","350"
"","","","","","html-keyboard-response","78","350530","0.0-11.0-0.12","63d729a2b7d60227b7b282de","64d3ef96556dbe1f0e02b5aa","64da90de626e05ababfbade3","","null","","","","","","","","","","","","","null","","","fallScene","","","","","","","","","","","","true","60","322.3","308.07114317029976","253.89","2","31","","",""
"","","","","","html-keyboard-response","79","353761","0.0-11.0-1.12","63d729a2b7d60227b7b282de","64d3ef96556dbe1f0e02b5aa","64da90de626e05ababfbade3","","","","","","","","","","","","","","","","","","","","","","","","426.9982838732414","393.00985164498695","3228","","","","","","","","","","","","",""
"","","","","","html-keyboard-response","79","353761","0.0-11.0-1.12","63d729a2b7d60227b7b282de","64d3ef96556dbe1f0e02b5aa","64da90de626e05ababfbade3","","","","","","","","","","","","","","","","","","reconstruct","","","","","","426.9982838732414","393.00985164498695","3228","","","","","","","","","","31","1","375","250"
"","","","","","html-keyboard-response","80","356766","0.0-11.0-0.13","63d729a2b7d60227b7b282de","64d3ef96556dbe1f0e02b5aa","64da90de626e05ababfbade3","","null","","","","","","","","","","","","","null","","","fallScene","","","","","","","","","","","","true","60","500","479.92114317029973","330.87","6","32","","",""
"","","","","","html-keyboard-response","81","359944","0.0-11.0-1.13","63d729a2b7d60227b7b282de","64d3ef96556dbe1f0e02b5aa","64da90de626e05ababfbade3","","","","","","","","","","","","","","","","","","","","","","","","426.00707021328117","402.0070719222393","3176","","","","","","","","","","","","",""
"","","","","","html-keyboard-response","81","359944","0.0-11.0-1.13","63d729a2b7d60227b7b282de","64d3ef96556dbe1f0e02b5aa","64da90de626e05ababfbade3","","","","","","","","","","","","","","","","","","reconstruct","","","","","","426.00707021328117","402.0070719222393","3176","","","","","","","","","","32","5","625","250"
"","","","","","html-keyboard-response","82","362948","0.0-11.0-0.14","63d729a2b7d60227b7b282de","64d3ef96556dbe1f0e02b5aa","64da90de626e05ababfbade3","","null","","","","","","","","","","","","","null","","","fallScene","","","","","","","","","","","","false","60.059999999999995","322.3","356.42114317029973","357.87","4","33","","",""
"","","","","","html-keyboard-response","83","365694","0.0-11.0-1.14","63d729a2b7d60227b7b282de","64d3ef96556dbe1f0e02b5aa","64da90de626e05ababfbade3","","","","","","","","","","","","","","","","","","","","","","","","323.01","349.00000000095764","2742.999999999942","","","","","","","","","","","","",""
"","","","","","html-keyboard-response","83","365694","0.0-11.0-1.14","63d729a2b7d60227b7b282de","64d3ef96556dbe1f0e02b5aa","64da90de626e05ababfbade3","","","","","","","","","","","","","","","","","","reconstruct","","","","","","323.01","349.00000000095764","2742.999999999942","","","","","","","","","","33","3","500","250"
"","","","","","html-keyboard-response","84","368700","0.0-11.0-0.15","63d729a2b7d60227b7b282de","64d3ef96556dbe1f0e02b5aa","64da90de626e05ababfbade3","","null","","","","","","","","","","","","","null","","","fallScene","","","","","","","","","","","","true","60","604.4000000000001","596.8711431702998","394.5","10","34","","",""
"","","","","","html-keyboard-response","85","372309","0.0-11.0-1.15","63d729a2b7d60227b7b282de","64d3ef96556dbe1f0e02b5aa","64da90de626e05ababfbade3","","","","","","","","","","","","","","","","","","","","","","","","324.99976189497573","358.990002835102","3607","","","","","","","","","","","","",""
"","","","","","html-keyboard-response","85","372309","0.0-11.0-1.15","63d729a2b7d60227b7b282de","64d3ef96556dbe1f0e02b5aa","64da90de626e05ababfbade3","","","","","","","","","","","","","","","","","","reconstruct","","","","","","324.99976189497573","358.990002835102","3607","","","","","","","","","","34","5","625","250"
"","","","","","html-keyboard-response","86","375314","0.0-11.0-0.16","63d729a2b7d60227b7b282de","64d3ef96556dbe1f0e02b5aa","64da90de626e05ababfbade3","","null","","","","","","","","","","","","","null","","","fallScene","","","","","","","","","","","","false","60","322.3","379.3711431702997","245.25","1","35","","",""
"","","","","","html-keyboard-response","87","378693","0.0-11.0-1.16","63d729a2b7d60227b7b282de","64d3ef96556dbe1f0e02b5aa","64da90de626e05ababfbade3","","","","","","","","","","","","","","","","","","","","","","","","303.0003726632433","243.0099930536928","3378","","","","","","","","","","","","",""
"","","","","","html-keyboard-response","87","378693","0.0-11.0-1.16","63d729a2b7d60227b7b282de","64d3ef96556dbe1f0e02b5aa","64da90de626e05ababfbade3","","","","","","","","","","","","","","","","","","reconstruct","","","","","","303.0003726632433","243.0099930536928","3378","","","","","","","","","","35","4","500","350"
"","","","","","html-keyboard-response","88","381697","0.0-11.0-0.17","63d729a2b7d60227b7b282de","64d3ef96556dbe1f0e02b5aa","64da90de626e05ababfbade3","","null","","","","","","","","","","","","","null","","","fallScene","","","","","","","","","","","","false","61.976","322.3","296.07114317029976","371.46","3","36","","",""
"","","","","","html-keyboard-response","89","384843","0.0-11.0-1.17","63d729a2b7d60227b7b282de","64d3ef96556dbe1f0e02b5aa","64da90de626e05ababfbade3","","","","","","","","","","","","","","","","","","","","","","","","370.99292101430643","334.0070631410541","3145.000000000058","","","","","","","","","","","","",""
"","","","","","html-keyboard-response","89","384843","0.0-11.0-1.17","63d729a2b7d60227b7b282de","64d3ef96556dbe1f0e02b5aa","64da90de626e05ababfbade3","","","","","","","","","","","","","","","","","","reconstruct","","","","","","370.99292101430643","334.0070631410541","3145.000000000058","","","","","","","","","","36","3","500","250"
"","","","","","html-button-response","90","386996","0.0-12.0","63d729a2b7d60227b7b282de","64d3ef96556dbe1f0e02b5aa","64da90de626e05ababfbade3","","2151","","","","","","","","","","","","","0","","","","<p><span style = ""font-size:40px;"">BREAK</span></p><p>You are halfway done! Click 'Next' when you are ready for the next set.</p>","","","","","","","","","","","","","","","","","","","",""
"","","","","","html-keyboard-response","91","390000","0.0-13.0-0.0","63d729a2b7d60227b7b282de","64d3ef96556dbe1f0e02b5aa","64da90de626e05ababfbade3","","null","","","","","","","","","","","","","null","","","fallScene","","","","","","","","","","","","false","60","604.4000000000001","667.6211431702998","201.78","9","37","","",""
"","","","","","html-keyboard-response","92","393246","0.0-13.0-1.0","63d729a2b7d60227b7b282de","64d3ef96556dbe1f0e02b5aa","64da90de626e05ababfbade3","","","","","","","","","","","","","","","","","","","","","","","","587.99","361.00000000684986","3245","","","","","","","","","","","","",""
"","","","","","html-keyboard-response","92","393246","0.0-13.0-1.0","63d729a2b7d60227b7b282de","64d3ef96556dbe1f0e02b5aa","64da90de626e05ababfbade3","","","","","","","","","","","","","","","","","","reconstruct","","","","","","587.99","361.00000000684986","3245","","","","","","","","","","37","1","375","250"
"","","","","","html-keyboard-response","93","396251","0.0-13.0-0.1","63d729a2b7d60227b7b282de","64d3ef96556dbe1f0e02b5aa","64da90de626e05ababfbade3","","null","","","","","","","","","","","","","null","","","fallScene","","","","","","","","","","","","true","60","604.4000000000001","650.0211431702996","404.58000000000004","11","38","","",""
"","","","","","html-keyboard-response","94","399029","0.0-13.0-1.1","63d729a2b7d60227b7b282de","64d3ef96556dbe1f0e02b5aa","64da90de626e05ababfbade3","","","","","","","","","","","","","","","","","","","","","","","","364.0000701214487","351.0099997541461","2776","","","","","","","","","","","","",""
"","","","","","html-keyboard-response","94","399029","0.0-13.0-1.1","63d729a2b7d60227b7b282de","64d3ef96556dbe1f0e02b5aa","64da90de626e05ababfbade3","","","","","","","","","","","","","","","","","","reconstruct","","","","","","364.0000701214487","351.0099997541461","2776","","","","","","","","","","38","4","500","350"
"","","","","","html-keyboard-response","95","402035","0.0-13.0-0.2","63d729a2b7d60227b7b282de","64d3ef96556dbe1f0e02b5aa","64da90de626e05ababfbade3","","null","","","","","","","","","","","","","null","","","fallScene","","","","","","","","","","","","false","60.059999999999995","500","510.8711431702997","369.03","8","39","","",""
"","","","","","html-keyboard-response","96","405663","0.0-13.0-1.2","63d729a2b7d60227b7b282de","64d3ef96556dbe1f0e02b5aa","64da90de626e05ababfbade3","","","","","","","","","","","","","","","","","","","","","","","","409.0099955925685","340.99970313436665","3627","","","","","","","","","","","","",""
"","","","","","html-keyboard-response","96","405664","0.0-13.0-1.2","63d729a2b7d60227b7b282de","64d3ef96556dbe1f0e02b5aa","64da90de626e05ababfbade3","","","","","","","","","","","","","","","","","","reconstruct","","","","","","409.0099955925685","340.99970313436665","3627","","","","","","","","","","39","1","375","250"
"","","","","","html-keyboard-response","97","408667","0.0-13.0-0.3","63d729a2b7d60227b7b282de","64d3ef96556dbe1f0e02b5aa","64da90de626e05ababfbade3","","null","","","","","","","","","","","","","null","","","fallScene","","","","","","","","","","","","false","61.976","604.4000000000001","667.6211431702998","201.78","9","40","","",""
"","","","","","html-keyboard-response","98","411464","0.0-13.0-1.3","63d729a2b7d60227b7b282de","64d3ef96556dbe1f0e02b5aa","64da90de626e05ababfbade3","","","","","","","","","","","","","","","","","","","","","","","","648.99","381.99999999715254","2795","","","","","","","","","","","","",""
"","","","","","html-keyboard-response","98","411464","0.0-13.0-1.3","63d729a2b7d60227b7b282de","64d3ef96556dbe1f0e02b5aa","64da90de626e05ababfbade3","","","","","","","","","","","","","","","","","","reconstruct","","","","","","648.99","381.99999999715254","2795","","","","","","","","","","40","5","625","250"
"","","","","","html-keyboard-response","99","414467","0.0-13.0-0.4","63d729a2b7d60227b7b282de","64d3ef96556dbe1f0e02b5aa","64da90de626e05ababfbade3","","null","","","","","","","","","","","","","null","","","fallScene","","","","","","","","","","","","true","60","322.3","308.07114317029976","253.89","2","41","","",""
"","","","","","html-keyboard-response","100","418296","0.0-13.0-1.4","63d729a2b7d60227b7b282de","64d3ef96556dbe1f0e02b5aa","64da90de626e05ababfbade3","","","","","","","","","","","","","","","","","","","","","","","","717.9900001377273","269.9999475164118","3827.999999999942","","","","","","","","","","","","",""
"","","","","","html-keyboard-response","100","418296","0.0-13.0-1.4","63d729a2b7d60227b7b282de","64d3ef96556dbe1f0e02b5aa","64da90de626e05ababfbade3","","","","","","","","","","","","","","","","","","reconstruct","","","","","","717.9900001377273","269.9999475164118","3827.999999999942","","","","","","","","","","41","6","625","350"
"","","","","","html-keyboard-response","101","421302","0.0-13.0-0.5","63d729a2b7d60227b7b282de","64d3ef96556dbe1f0e02b5aa","64da90de626e05ababfbade3","","null","","","","","","","","","","","","","null","","","fallScene","","","","","","","","","","","","false","60","500","553.4711431702997","282.51","7","42","","",""
"","","","","","html-keyboard-response","102","425246","0.0-13.0-1.5","63d729a2b7d60227b7b282de","64d3ef96556dbe1f0e02b5aa","64da90de626e05ababfbade3","","","","","","","","","","","","","","","","","","","","","","","","473.9998962074218","334.99000053865944","3942","","","","","","","","","","","","",""
"","","","","","html-keyboard-response","102","425246","0.0-13.0-1.5","63d729a2b7d60227b7b282de","64d3ef96556dbe1f0e02b5aa","64da90de626e05ababfbade3","","","","","","","","","","","","","","","","","","reconstruct","","","","","","473.9998962074218","334.99000053865944","3942","","","","","","","","","","42","5","625","250"
"","","","","","html-keyboard-response","103","428249","0.0-13.0-0.6","63d729a2b7d60227b7b282de","64d3ef96556dbe1f0e02b5aa","64da90de626e05ababfbade3","","null","","","","","","","","","","","","","null","","","fallScene","","","","","","","","","","","","false","60.059999999999995","500","553.4711431702997","282.51","7","43","","",""
"","","","","","html-keyboard-response","104","431498","0.0-13.0-1.6","63d729a2b7d60227b7b282de","64d3ef96556dbe1f0e02b5aa","64da90de626e05ababfbade3","","","","","","","","","","","","","","","","","","","","","","","","409.01","373.99999999331123","3246","","","","","","","","","","","","",""
"","","","","","html-keyboard-response","104","431498","0.0-13.0-1.6","63d729a2b7d60227b7b282de","64d3ef96556dbe1f0e02b5aa","64da90de626e05ababfbade3","","","","","","","","","","","","","","","","","","reconstruct","","","","","","409.01","373.99999999331123","3246","","","","","","","","","","43","6","625","350"
"","","","","","html-keyboard-response","105","434502","0.0-13.0-0.7","63d729a2b7d60227b7b282de","64d3ef96556dbe1f0e02b5aa","64da90de626e05ababfbade3","","null","","","","","","","","","","","","","null","","","fallScene","","","","","","","","","","","","true","61.976","604.4000000000001","667.6211431702998","201.78","9","44","","",""
"","","","","","html-keyboard-response","106","436980","0.0-13.0-1.7","63d729a2b7d60227b7b282de","64d3ef96556dbe1f0e02b5aa","64da90de626e05ababfbade3","","","","","","","","","","","","","","","","","","","","","","","","400.9900008754693","345.00013232014373","2476","","","","","","","","","","","","",""
"","","","","","html-keyboard-response","106","436980","0.0-13.0-1.7","63d729a2b7d60227b7b282de","64d3ef96556dbe1f0e02b5aa","64da90de626e05ababfbade3","","","","","","","","","","","","","","","","","","reconstruct","","","","","","400.9900008754693","345.00013232014373","2476","","","","","","","","","","44","6","625","350"
"","","","","","html-keyboard-response","107","439984","0.0-13.0-0.8","63d729a2b7d60227b7b282de","64d3ef96556dbe1f0e02b5aa","64da90de626e05ababfbade3","","null","","","","","","","","","","","","","null","","","fallScene","","","","","","","","","","","","true","61.91499999999999","500","510.8711431702997","369.03","8","45","","",""
"","","","","","html-keyboard-response","108","442463","0.0-13.0-1.8","63d729a2b7d60227b7b282de","64d3ef96556dbe1f0e02b5aa","64da90de626e05ababfbade3","","","","","","","","","","","","","","","","","","","","","","","","568.9900927242144","313.9986413659401","2477","","","","","","","","","","","","",""
"","","","","","html-keyboard-response","108","442463","0.0-13.0-1.8","63d729a2b7d60227b7b282de","64d3ef96556dbe1f0e02b5aa","64da90de626e05ababfbade3","","","","","","","","","","","","","","","","","","reconstruct","","","","","","568.9900927242144","313.9986413659401","2477","","","","","","","","","","45","4","500","350"
"","","","","","html-keyboard-response","109","445466","0.0-13.0-0.9","63d729a2b7d60227b7b282de","64d3ef96556dbe1f0e02b5aa","64da90de626e05ababfbade3","","null","","","","","","","","","","","","","null","","","fallScene","","","","","","","","","","","","false","60.059999999999995","604.4000000000001","667.6211431702998","201.78","9","46","","",""
"","","","","","html-keyboard-response","110","447847","0.0-13.0-1.9","63d729a2b7d60227b7b282de","64d3ef96556dbe1f0e02b5aa","64da90de626e05ababfbade3","","","","","","","","","","","","","","","","","","","","","","","","543.99","350","2378","","","","","","","","","","","","",""
"","","","","","html-keyboard-response","110","447847","0.0-13.0-1.9","63d729a2b7d60227b7b282de","64d3ef96556dbe1f0e02b5aa","64da90de626e05ababfbade3","","","","","","","","","","","","","","","","","","reconstruct","","","","","","543.99","350","2378","","","","","","","","","","46","4","500","350"
"","","","","","html-keyboard-response","111","450851","0.0-13.0-0.10","63d729a2b7d60227b7b282de","64d3ef96556dbe1f0e02b5aa","64da90de626e05ababfbade3","","null","","","","","","","","","","","","","null","","","fallScene","","","","","","","","","","","","false","60.059999999999995","604.4000000000001","575.4211431702997","266.76","12","47","","",""
"","","","","","html-keyboard-response","112","454080","0.0-13.0-1.10","63d729a2b7d60227b7b282de","64d3ef96556dbe1f0e02b5aa","64da90de626e05ababfbade3","","","","","","","","","","","","","","","","","","","","","","","","613.9901739306597","369.0018569763916","3226","","","","","","","","","","","","",""
"","","","","","html-keyboard-response","112","454080","0.0-13.0-1.10","63d729a2b7d60227b7b282de","64d3ef96556dbe1f0e02b5aa","64da90de626e05ababfbade3","","","","","","","","","","","","","","","","","","reconstruct","","","","","","613.9901739306597","369.0018569763916","3226","","","","","","","","","","47","3","500","250"
"","","","","","html-keyboard-response","113","457085","0.0-13.0-0.11","63d729a2b7d60227b7b282de","64d3ef96556dbe1f0e02b5aa","64da90de626e05ababfbade3","","null","","","","","","","","","","","","","null","","","fallScene","","","","","","","","","","","","true","60","604.4000000000001","667.6211431702998","201.78","9","48","","",""
"","","","","","html-keyboard-response","114","461550","0.0-13.0-1.11","63d729a2b7d60227b7b282de","64d3ef96556dbe1f0e02b5aa","64da90de626e05ababfbade3","","","","","","","","","","","","","","","","","","","","","","","","369.9999000032342","320.99000049998017","4463","","","","","","","","","","","","",""
"","","","","","html-keyboard-response","114","461550","0.0-13.0-1.11","63d729a2b7d60227b7b282de","64d3ef96556dbe1f0e02b5aa","64da90de626e05ababfbade3","","","","","","","","","","","","","","","","","","reconstruct","","","","","","369.9999000032342","320.99000049998017","4463","","","","","","","","","","48","2","375","350"
"","","","","","html-keyboard-response","115","464558","0.0-13.0-0.12","63d729a2b7d60227b7b282de","64d3ef96556dbe1f0e02b5aa","64da90de626e05ababfbade3","","null","","","","","","","","","","","","","null","","","fallScene","","","","","","","","","","","","false","60","322.3","296.07114317029976","371.46","3","49","","",""
"","","","","","html-keyboard-response","116","467514","0.0-13.0-1.12","63d729a2b7d60227b7b282de","64d3ef96556dbe1f0e02b5aa","64da90de626e05ababfbade3","","","","","","","","","","","","","","","","","","","","","","","","323.0070982711382","287.00704375942576","2954","","","","","","","","","","","","",""
"","","","","","html-keyboard-response","116","467514","0.0-13.0-1.12","63d729a2b7d60227b7b282de","64d3ef96556dbe1f0e02b5aa","64da90de626e05ababfbade3","","","","","","","","","","","","","","","","","","reconstruct","","","","","","323.0070982711382","287.00704375942576","2954","","","","","","","","","","49","1","375","250"
"","","","","","html-keyboard-response","117","470518","0.0-13.0-0.13","63d729a2b7d60227b7b282de","64d3ef96556dbe1f0e02b5aa","64da90de626e05ababfbade3","","null","","","","","","","","","","","","","null","","","fallScene","","","","","","","","","","","","true","60","604.4000000000001","575.4211431702997","266.76","12","50","","",""
"","","","","","html-keyboard-response","118","473647","0.0-13.0-1.13","63d729a2b7d60227b7b282de","64d3ef96556dbe1f0e02b5aa","64da90de626e05ababfbade3","","","","","","","","","","","","","","","","","","","","","","","","324.00000458591705","291.99000000105156","3127","","","","","","","","","","","","",""
"","","","","","html-keyboard-response","118","473647","0.0-13.0-1.13","63d729a2b7d60227b7b282de","64d3ef96556dbe1f0e02b5aa","64da90de626e05ababfbade3","","","","","","","","","","","","","","","","","","reconstruct","","","","","","324.00000458591705","291.99000000105156","3127","","","","","","","","","","50","2","375","350"
"","","","","","html-keyboard-response","119","476651","0.0-13.0-0.14","63d729a2b7d60227b7b282de","64d3ef96556dbe1f0e02b5aa","64da90de626e05ababfbade3","","null","","","","","","","","","","","","","null","","","fallScene","","","","","","","","","","","","true","60","322.3","379.3711431702997","245.25","1","51","","",""
"","","","","","html-keyboard-response","120","479880","0.0-13.0-1.14","63d729a2b7d60227b7b282de","64d3ef96556dbe1f0e02b5aa","64da90de626e05ababfbade3","","","","","","","","","","","","","","","","","","","","","","","","689.9999995987256","277.009999999992","3228","","","","","","","","","","","","",""
"","","","","","html-keyboard-response","120","479880","0.0-13.0-1.14","63d729a2b7d60227b7b282de","64d3ef96556dbe1f0e02b5aa","64da90de626e05ababfbade3","","","","","","","","","","","","","","","","","","reconstruct","","","","","","689.9999995987256","277.009999999992","3228","","","","","","","","","","51","2","375","350"
"","","","","","html-keyboard-response","121","482884","0.0-13.0-0.15","63d729a2b7d60227b7b282de","64d3ef96556dbe1f0e02b5aa","64da90de626e05ababfbade3","","null","","","","","","","","","","","","","null","","","fallScene","","","","","","","","","","","","true","60","500","453.67114317029973","210.33","5","52","","",""
"","","","","","html-keyboard-response","122","485630","0.0-13.0-1.15","63d729a2b7d60227b7b282de","64d3ef96556dbe1f0e02b5aa","64da90de626e05ababfbade3","","","","","","","","","","","","","","","","","","","","","","","","426.9997617641575","311.00999716178137","2744","","","","","","","","","","","","",""
"","","","","","html-keyboard-response","122","485630","0.0-13.0-1.15","63d729a2b7d60227b7b282de","64d3ef96556dbe1f0e02b5aa","64da90de626e05ababfbade3","","","","","","","","","","","","","","","","","","reconstruct","","","","","","426.9997617641575","311.00999716178137","2744","","","","","","","","","","52","2","375","350"
"","","","","","html-keyboard-response","123","488635","0.0-13.0-0.16","63d729a2b7d60227b7b282de","64d3ef96556dbe1f0e02b5aa","64da90de626e05ababfbade3","","null","","","","","","","","","","","","","null","","","fallScene","","","","","","","","","","","","false","60","604.4000000000001","650.0211431702996","404.58000000000004","11","53","","",""
"","","","","","html-keyboard-response","124","492413","0.0-13.0-1.16","63d729a2b7d60227b7b282de","64d3ef96556dbe1f0e02b5aa","64da90de626e05ababfbade3","","","","","","","","","","","","","","","","","","","","","","","","655.0099997563465","359.99993019303736","3776.000000000058","","","","","","","","","","","","",""
"","","","","","html-keyboard-response","124","492413","0.0-13.0-1.16","63d729a2b7d60227b7b282de","64d3ef96556dbe1f0e02b5aa","64da90de626e05ababfbade3","","","","","","","","","","","","","","","","","","reconstruct","","","","","","655.0099997563465","359.99993019303736","3776.000000000058","","","","","","","","","","53","2","375","350"
"","","","","","html-keyboard-response","125","495417","0.0-13.0-0.17","63d729a2b7d60227b7b282de","64d3ef96556dbe1f0e02b5aa","64da90de626e05ababfbade3","","null","","","","","","","","","","","","","null","","","fallScene","","","","","","","","","","","","true","61.976","500","453.67114317029973","210.33","5","54","","",""
"","","","","","html-keyboard-response","126","498581","0.0-13.0-1.17","63d729a2b7d60227b7b282de","64d3ef96556dbe1f0e02b5aa","64da90de626e05ababfbade3","","","","","","","","","","","","","","","","","","","","","","","","460.00887499695267","370.9953919169832","3161","","","","","","","","","","","","",""
"","","","","","html-keyboard-response","126","498582","0.0-13.0-1.17","63d729a2b7d60227b7b282de","64d3ef96556dbe1f0e02b5aa","64da90de626e05ababfbade3","","","","","","","","","","","","","","","","","","reconstruct","","","","","","460.00887499695267","370.9953919169832","3161","","","","","","","","","","54","5","625","250"
"","","","","","html-button-response","127","500165","0.0-14.0","63d729a2b7d60227b7b282de","64d3ef96556dbe1f0e02b5aa","64da90de626e05ababfbade3","","1581","","","","","","","","","","","","","0","","","","<p><span style = ""font-size:40px;"">BREAK</span></p><p>You are almost done! Click 'Next' when you are ready for the next set.</p>","","","","","","","","","","","","","","","","","","","",""
"","","","","","html-keyboard-response","128","503169","0.0-15.0-0.0","63d729a2b7d60227b7b282de","64d3ef96556dbe1f0e02b5aa","64da90de626e05ababfbade3","","null","","","","","","","","","","","","","null","","","fallScene","","","","","","","","","","","","false","60","322.3","308.07114317029976","253.89","2","55","","",""
"","","","","","html-keyboard-response","129","505974","0.0-15.0-1.0","63d729a2b7d60227b7b282de","64d3ef96556dbe1f0e02b5aa","64da90de626e05ababfbade3","","","","","","","","","","","","","","","","","","","","","","","","456.00999999156465","347.000012988723","2803","","","","","","","","","","","","",""
"","","","","","html-keyboard-response","129","505974","0.0-15.0-1.0","63d729a2b7d60227b7b282de","64d3ef96556dbe1f0e02b5aa","64da90de626e05ababfbade3","","","","","","","","","","","","","","","","","","reconstruct","","","","","","456.00999999156465","347.000012988723","2803","","","","","","","","","","55","3","500","250"
"","","","","","html-keyboard-response","130","508977","0.0-15.0-0.1","63d729a2b7d60227b7b282de","64d3ef96556dbe1f0e02b5aa","64da90de626e05ababfbade3","","null","","","","","","","","","","","","","null","","","fallScene","","","","","","","","","","","","false","60","500","479.92114317029973","330.87","6","56","","",""
"","","","","","html-keyboard-response","131","511728","0.0-15.0-1.1","63d729a2b7d60227b7b282de","64d3ef96556dbe1f0e02b5aa","64da90de626e05ababfbade3","","","","","","","","","","","","","","","","","","","","","","","","588.9971925338124","360.0095978192109","2749","","","","","","","","","","","","",""
"","","","","","html-keyboard-response","131","511728","0.0-15.0-1.1","63d729a2b7d60227b7b282de","64d3ef96556dbe1f0e02b5aa","64da90de626e05ababfbade3","","","","","","","","","","","","","","","","","","reconstruct","","","","","","588.9971925338124","360.0095978192109","2749","","","","","","","","","","56","4","500","350"
"","","","","","html-keyboard-response","132","514731","0.0-15.0-0.2","63d729a2b7d60227b7b282de","64d3ef96556dbe1f0e02b5aa","64da90de626e05ababfbade3","","null","","","","","","","","","","","","","null","","","fallScene","","","","","","","","","","","","false","60.059999999999995","604.4000000000001","596.8711431702998","394.5","10","57","","",""
"","","","","","html-keyboard-response","133","517425","0.0-15.0-1.2","63d729a2b7d60227b7b282de","64d3ef96556dbe1f0e02b5aa","64da90de626e05ababfbade3","","","","","","","","","","","","","","","","","","","","","","","","643.0000999950004","343.9900004999625","2693","","","","","","","","","","","","",""
"","","","","","html-keyboard-response","133","517426","0.0-15.0-1.2","63d729a2b7d60227b7b282de","64d3ef96556dbe1f0e02b5aa","64da90de626e05ababfbade3","","","","","","","","","","","","","","","","","","reconstruct","","","","","","643.0000999950004","343.9900004999625","2693","","","","","","","","","","57","4","500","350"
"","","","","","html-keyboard-response","134","520429","0.0-15.0-0.3","63d729a2b7d60227b7b282de","64d3ef96556dbe1f0e02b5aa","64da90de626e05ababfbade3","","null","","","","","","","","","","","","","null","","","fallScene","","","","","","","","","","","","false","60","322.3","296.07114317029976","371.46","3","58","","",""
"","","","","","html-keyboard-response","135","522877","0.0-15.0-1.3","63d729a2b7d60227b7b282de","64d3ef96556dbe1f0e02b5aa","64da90de626e05ababfbade3","","","","","","","","","","","","","","","","","","","","","","","","323.99502677007735","364.00867565468053","2446","","","","","","","","","","","","",""
"","","","","","html-keyboard-response","135","522877","0.0-15.0-1.3","63d729a2b7d60227b7b282de","64d3ef96556dbe1f0e02b5aa","64da90de626e05ababfbade3","","","","","","","","","","","","","","","","","","reconstruct","","","","","","323.99502677007735","364.00867565468053","2446","","","","","","","","","","58","4","500","350"
"","","","","","html-keyboard-response","136","525881","0.0-15.0-0.4","63d729a2b7d60227b7b282de","64d3ef96556dbe1f0e02b5aa","64da90de626e05ababfbade3","","null","","","","","","","","","","","","","null","","","fallScene","","","","","","","","","","","","false","61.976","322.3","308.07114317029976","253.89","2","59","","",""
"","","","","","html-keyboard-response","137","532463","0.0-15.0-1.4","63d729a2b7d60227b7b282de","64d3ef96556dbe1f0e02b5aa","64da90de626e05ababfbade3","","","","","","","","","","","","","","","","","","","","","","","","381.00621588003895","316.99907248727834","6580","","","","","","","","","","","","",""
"","","","","","html-keyboard-response","137","532463","0.0-15.0-1.4","63d729a2b7d60227b7b282de","64d3ef96556dbe1f0e02b5aa","64da90de626e05ababfbade3","","","","","","","","","","","","","","","","","","reconstruct","","","","","","381.00621588003895","316.99907248727834","6580","","","","","","","","","","59","4","500","350"
"","","","","","html-keyboard-response","138","535466","0.0-15.0-0.5","63d729a2b7d60227b7b282de","64d3ef96556dbe1f0e02b5aa","64da90de626e05ababfbade3","","null","","","","","","","","","","","","","null","","","fallScene","","","","","","","","","","","","true","60","604.4000000000001","575.4211431702997","266.76","12","60","","",""
"","","","","","html-keyboard-response","139","537925","0.0-15.0-1.5","63d729a2b7d60227b7b282de","64d3ef96556dbe1f0e02b5aa","64da90de626e05ababfbade3","","","","","","","","","","","","","","","","","","","","","","","","377.9999125493966","305.99000038238773","2457","","","","","","","","","","","","",""
"","","","","","html-keyboard-response","139","537925","0.0-15.0-1.5","63d729a2b7d60227b7b282de","64d3ef96556dbe1f0e02b5aa","64da90de626e05ababfbade3","","","","","","","","","","","","","","","","","","reconstruct","","","","","","377.9999125493966","305.99000038238773","2457","","","","","","","","","","60","5","625","250"
"","","","","","html-keyboard-response","140","540928","0.0-15.0-0.6","63d729a2b7d60227b7b282de","64d3ef96556dbe1f0e02b5aa","64da90de626e05ababfbade3","","null","","","","","","","","","","","","","null","","","fallScene","","","","","","","","","","","","true","60","322.3","356.42114317029973","357.87","4","61","","",""
"","","","","","html-keyboard-response","141","543610","0.0-15.0-1.6","63d729a2b7d60227b7b282de","64d3ef96556dbe1f0e02b5aa","64da90de626e05ababfbade3","","","","","","","","","","","","","","","","","","","","","","","","648.9900000000018","310.0000001923007","2681","","","","","","","","","","","","",""
"","","","","","html-keyboard-response","141","543610","0.0-15.0-1.6","63d729a2b7d60227b7b282de","64d3ef96556dbe1f0e02b5aa","64da90de626e05ababfbade3","","","","","","","","","","","","","","","","","","reconstruct","","","","","","648.9900000000018","310.0000001923007","2681","","","","","","","","","","61","4","500","350"
"","","","","","html-keyboard-response","142","546614","0.0-15.0-0.7","63d729a2b7d60227b7b282de","64d3ef96556dbe1f0e02b5aa","64da90de626e05ababfbade3","","null","","","","","","","","","","","","","null","","","fallScene","","","","","","","","","","","","false","60","500","453.67114317029973","210.33","5","62","","",""
"","","","","","html-keyboard-response","143","549774","0.0-15.0-1.7","63d729a2b7d60227b7b282de","64d3ef96556dbe1f0e02b5aa","64da90de626e05ababfbade3","","","","","","","","","","","","","","","","","","","","","","","","506.0000010306097","313.0099999999469","3158","","","","","","","","","","","","",""
"","","","","","html-keyboard-response","143","549774","0.0-15.0-1.7","63d729a2b7d60227b7b282de","64d3ef96556dbe1f0e02b5aa","64da90de626e05ababfbade3","","","","","","","","","","","","","","","","","","reconstruct","","","","","","506.0000010306097","313.0099999999469","3158","","","","","","","","","","62","6","625","350"
"","","","","","html-keyboard-response","144","552776","0.0-15.0-0.8","63d729a2b7d60227b7b282de","64d3ef96556dbe1f0e02b5aa","64da90de626e05ababfbade3","","null","","","","","","","","","","","","","null","","","fallScene","","","","","","","","","","","","false","60","604.4000000000001","650.0211431702996","404.58000000000004","11","63","","",""
"","","","","","html-keyboard-response","145","556310","0.0-15.0-1.8","63d729a2b7d60227b7b282de","64d3ef96556dbe1f0e02b5aa","64da90de626e05ababfbade3","","","","","","","","","","","","","","","","","","","","","","","","626.9912565011881","366.99514703920005","3532","","","","","","","","","","","","",""
"","","","","","html-keyboard-response","145","556310","0.0-15.0-1.8","63d729a2b7d60227b7b282de","64d3ef96556dbe1f0e02b5aa","64da90de626e05ababfbade3","","","","","","","","","","","","","","","","","","reconstruct","","","","","","626.9912565011881","366.99514703920005","3532","","","","","","","","","","63","3","500","250"
"","","","","","html-keyboard-response","146","559314","0.0-15.0-0.9","63d729a2b7d60227b7b282de","64d3ef96556dbe1f0e02b5aa","64da90de626e05ababfbade3","","null","","","","","","","","","","","","","null","","","fallScene","","","","","","","","","","","","true","61.976","604.4000000000001","650.0211431702996","404.58000000000004","11","64","","",""
"","","","","","html-keyboard-response","147","561776","0.0-15.0-1.9","63d729a2b7d60227b7b282de","64d3ef96556dbe1f0e02b5aa","64da90de626e05ababfbade3","","","","","","","","","","","","","","","","","","","","","","","","358.009422912883","385.9966520584235","2460","","","","","","","","","","","","",""
"","","","","","html-keyboard-response","147","561776","0.0-15.0-1.9","63d729a2b7d60227b7b282de","64d3ef96556dbe1f0e02b5aa","64da90de626e05ababfbade3","","","","","","","","","","","","","","","","","","reconstruct","","","","","","358.009422912883","385.9966520584235","2460","","","","","","","","","","64","6","625","350"
"","","","","","html-keyboard-response","148","564781","0.0-15.0-0.10","63d729a2b7d60227b7b282de","64d3ef96556dbe1f0e02b5aa","64da90de626e05ababfbade3","","null","","","","","","","","","","","","","null","","","fallScene","","","","","","","","","","","","false","61.976","500","479.92114317029973","330.87","6","65","","",""
"","","","","","html-keyboard-response","149","568011","0.0-15.0-1.10","63d729a2b7d60227b7b282de","64d3ef96556dbe1f0e02b5aa","64da90de626e05ababfbade3","","","","","","","","","","","","","","","","","","","","","","","","594.0001002311037","407.0099994976737","3228","","","","","","","","","","","","",""
"","","","","","html-keyboard-response","149","568011","0.0-15.0-1.10","63d729a2b7d60227b7b282de","64d3ef96556dbe1f0e02b5aa","64da90de626e05ababfbade3","","","","","","","","","","","","","","","","","","reconstruct","","","","","","594.0001002311037","407.0099994976737","3228","","","","","","","","","","65","2","375","350"
"","","","","","html-keyboard-response","150","571016","0.0-15.0-0.11","63d729a2b7d60227b7b282de","64d3ef96556dbe1f0e02b5aa","64da90de626e05ababfbade3","","null","","","","","","","","","","","","","null","","","fallScene","","","","","","","","","","","","true","60","604.4000000000001","596.8711431702998","394.5","10","66","","",""
"","","","","","html-keyboard-response","151","574810","0.0-15.0-1.11","63d729a2b7d60227b7b282de","64d3ef96556dbe1f0e02b5aa","64da90de626e05ababfbade3","","","","","","","","","","","","","","","","","","","","","","","","336.99000020183934","370.9999364646049","3792","","","","","","","","","","","","",""
"","","","","","html-keyboard-response","151","574810","0.0-15.0-1.11","63d729a2b7d60227b7b282de","64d3ef96556dbe1f0e02b5aa","64da90de626e05ababfbade3","","","","","","","","","","","","","","","","","","reconstruct","","","","","","336.99000020183934","370.9999364646049","3792","","","","","","","","","","66","2","375","350"
"","","","","","html-keyboard-response","152","577814","0.0-15.0-0.12","63d729a2b7d60227b7b282de","64d3ef96556dbe1f0e02b5aa","64da90de626e05ababfbade3","","null","","","","","","","","","","","","","null","","","fallScene","","","","","","","","","","","","true","60.059999999999995","500","553.4711431702997","282.51","7","67","","",""
"","","","","","html-keyboard-response","153","580393","0.0-15.0-1.12","63d729a2b7d60227b7b282de","64d3ef96556dbe1f0e02b5aa","64da90de626e05ababfbade3","","","","","","","","","","","","","","","","","","","","","","","","560.008992273342","364.9956251834161","2578","","","","","","","","","","","","",""
"","","","","","html-keyboard-response","153","580394","0.0-15.0-1.12","63d729a2b7d60227b7b282de","64d3ef96556dbe1f0e02b5aa","64da90de626e05ababfbade3","","","","","","","","","","","","","","","","","","reconstruct","","","","","","560.008992273342","364.9956251834161","2578","","","","","","","","","","67","2","375","350"
"","","","","","html-keyboard-response","154","583397","0.0-15.0-0.13","63d729a2b7d60227b7b282de","64d3ef96556dbe1f0e02b5aa","64da90de626e05ababfbade3","","null","","","","","","","","","","","","","null","","","fallScene","","","","","","","","","","","","false","62.03699999999999","322.3","356.42114317029973","357.87","4","68","","",""
"","","","","","html-keyboard-response","155","588494","0.0-15.0-1.13","63d729a2b7d60227b7b282de","64d3ef96556dbe1f0e02b5aa","64da90de626e05ababfbade3","","","","","","","","","","","","","","","","","","","","","","","","202.9900000000027","434.000000232578","5096","","","","","","","","","","","","",""
"","","","","","html-keyboard-response","155","588494","0.0-15.0-1.13","63d729a2b7d60227b7b282de","64d3ef96556dbe1f0e02b5aa","64da90de626e05ababfbade3","","","","","","","","","","","","","","","","","","reconstruct","","","","","","202.9900000000027","434.000000232578","5096","","","","","","","","","","68","5","625","250"
"","","","","","html-keyboard-response","156","591498","0.0-15.0-0.14","63d729a2b7d60227b7b282de","64d3ef96556dbe1f0e02b5aa","64da90de626e05ababfbade3","","null","","","","","","","","","","","","","null","","","fallScene","","","","","","","","","","","","false","60","500","510.8711431702997","369.03","8","69","","",""
"","","","","","html-keyboard-response","157","594897","0.0-15.0-1.14","63d729a2b7d60227b7b282de","64d3ef96556dbe1f0e02b5aa","64da90de626e05ababfbade3","","","","","","","","","","","","","","","","","","","","","","","","365.0099999999571","392.99999907340975","3397","","","","","","","","","","","","",""
"","","","","","html-keyboard-response","157","594897","0.0-15.0-1.14","63d729a2b7d60227b7b282de","64d3ef96556dbe1f0e02b5aa","64da90de626e05ababfbade3","","","","","","","","","","","","","","","","","","reconstruct","","","","","","365.0099999999571","392.99999907340975","3397","","","","","","","","","","69","3","500","250"
"","","","","","html-keyboard-response","158","597901","0.0-15.0-0.15","63d729a2b7d60227b7b282de","64d3ef96556dbe1f0e02b5aa","64da90de626e05ababfbade3","","null","","","","","","","","","","","","","null","","","fallScene","","","","","","","","","","","","false","61.976","322.3","379.3711431702997","245.25","1","70","","",""
"","","","","","html-keyboard-response","159","600511","0.0-15.0-1.15","63d729a2b7d60227b7b282de","64d3ef96556dbe1f0e02b5aa","64da90de626e05ababfbade3","","","","","","","","","","","","","","","","","","","","","","","","307.9999972263843","323.00999999961533","2608","","","","","","","","","","","","",""
"","","","","","html-keyboard-response","159","600511","0.0-15.0-1.15","63d729a2b7d60227b7b282de","64d3ef96556dbe1f0e02b5aa","64da90de626e05ababfbade3","","","","","","","","","","","","","","","","","","reconstruct","","","","","","307.9999972263843","323.00999999961533","2608","","","","","","","","","","70","1","375","250"
"","","","","","html-keyboard-response","160","603515","0.0-15.0-0.16","63d729a2b7d60227b7b282de","64d3ef96556dbe1f0e02b5aa","64da90de626e05ababfbade3","","null","","","","","","","","","","","","","null","","","fallScene","","","","","","","","","","","","true","60","322.3","356.42114317029973","357.87","4","71","","",""
"","","","","","html-keyboard-response","161","606282","0.0-15.0-1.16","63d729a2b7d60227b7b282de","64d3ef96556dbe1f0e02b5aa","64da90de626e05ababfbade3","","","","","","","","","","","","","","","","","","","","","","","","717.0070725040166","358.99293036868465","2766","","","","","","","","","","","","",""
"","","","","","html-keyboard-response","161","606282","0.0-15.0-1.16","63d729a2b7d60227b7b282de","64d3ef96556dbe1f0e02b5aa","64da90de626e05ababfbade3","","","","","","","","","","","","","","","","","","reconstruct","","","","","","717.0070725040166","358.99293036868465","2766","","","","","","","","","","71","2","375","350"
"","","","","","html-keyboard-response","162","609285","0.0-15.0-0.17","63d729a2b7d60227b7b282de","64d3ef96556dbe1f0e02b5aa","64da90de626e05ababfbade3","","null","","","","","","","","","","","","","null","","","fallScene","","","","","","","","","","","","true","61.976","500","510.8711431702997","369.03","8","72","","",""
"","","","","","html-keyboard-response","163","611896","0.0-15.0-1.17","63d729a2b7d60227b7b282de","64d3ef96556dbe1f0e02b5aa","64da90de626e05ababfbade3","","","","","","","","","","","","","","","","","","","","","","","","609.9999300524584","390.9900002446359","2609","","","","","","","","","","","","",""
"","","","","","html-keyboard-response","163","611896","0.0-15.0-1.17","63d729a2b7d60227b7b282de","64d3ef96556dbe1f0e02b5aa","64da90de626e05ababfbade3","","","","","","","","","","","","","","","","","","reconstruct","","","","","","609.9999300524584","390.9900002446359","2609","","","","","","","","","","72","5","625","250"
"","","","","","survey-text","164","628911","0.0-16.0","63d729a2b7d60227b7b282de","64d3ef96556dbe1f0e02b5aa","64da90de626e05ababfbade3","","17006","","","","","","","","","","","","","{""Summary"":""Guess where the hidden triangle was behind the gray square""}","","","","","","","","","","","","","","","","","","","","","","","",""
"","","","","","survey-text","165","632444","0.0-17.0","63d729a2b7d60227b7b282de","64d3ef96556dbe1f0e02b5aa","64da90de626e05ababfbade3","","3528","","","","","","","","","","","","","{""Comments"":""""}","","","","","","","","","","","","","","","","","","","","","","","",""
