"success","timeout","failed_images","failed_audio","failed_video","trial_type","trial_index","time_elapsed","internal_node_id","subject_id","study_id","session_id","view_history","rt","width","height","webaudio","browser","browser_version","mobile","os","fullscreen","vsync_rate","webcam","microphone","url","response","triangle_prac_final_x","triangle_prac_final_y","trial_name","stimulus","ball_X_prac_occ","ball_Y_prac_occ","obstacle_X_prac_occ","obstacle_Y_prac_occ","triangle_final_x","triangle_final_y","response_time","obstacle_X_prac_occ_init","obstacle_Y_prac_occ_init","question_order","flipped","runnerFPS","ball_X","obstacle_groundTruth_x","obstacle_groundTruth_y","stimulus_idx","currentTrial","obstacle_idx","obstacle_initial_x","obstacle_initial_y"
"true","false","[]","[]","[]","preload","0","98","0.0-0.0","63d94906463da95ed3d8e627","64d3ef96556dbe1f0e02b5aa","64db812ba6828320f065cd41","","","","","","","","","","","","","","","","","","","","","","","","","","","","","","","","","","","","","","",""
"","","","","","instructions","1","3012","0.0-1.0","63d94906463da95ed3d8e627","64d3ef96556dbe1f0e02b5aa","64db812ba6828320f065cd41","[{""page_index"":0,""viewing_time"":2913}]","2913","","","","","","","","","","","","","","","","","","","","","","","","","","","","","","","","","","","","",""
"","","","","","browser-check","2","4012","0.0-2.0","63d94906463da95ed3d8e627","64d3ef96556dbe1f0e02b5aa","64db812ba6828320f065cd41","","","1707","835","true","chrome","115.0.0","false","Windows 10","true","60.32","false","true","","","","","","","","","","","","","","","","","","","","","","","","","",""
"","","","","","external-html","3","6620","0.0-3.0","63d94906463da95ed3d8e627","64d3ef96556dbe1f0e02b5aa","64db812ba6828320f065cd41","","2542","","","","","","","","","","","","consent.html","","","","","","","","","","","","","","","","","","","","","","","","",""
"true","","","","","fullscreen","4","9657","0.0-4.0","63d94906463da95ed3d8e627","64d3ef96556dbe1f0e02b5aa","64db812ba6828320f065cd41","","2534","","","","","","","","","","","","","","","","","","","","","","","","","","","","","","","","","","","","",""
"","","","","","survey-text","5","12365","0.0-5.0","63d94906463da95ed3d8e627","64d3ef96556dbe1f0e02b5aa","64db812ba6828320f065cd41","","2703","","","","","","","","","","","","","{""prolificID"":""63d94906463da95ed3d8e627""}","","","","","","","","","","","","","","","","","","","","","","","",""
"","","","","","browser-check","6","13361","0.0-6.0","63d94906463da95ed3d8e627","64d3ef96556dbe1f0e02b5aa","64db812ba6828320f065cd41","","","1707","835","true","chrome","115.0.0","false","Windows 10","true","60.4","false","true","","","","","","","","","","","","","","","","","","","","","","","","","",""
"","","","","","instructions","7","41364","0.0-7.0-0.0-0.0","63d94906463da95ed3d8e627","64d3ef96556dbe1f0e02b5aa","64db812ba6828320f065cd41","[{""page_index"":0,""viewing_time"":10130},{""page_index"":1,""viewing_time"":4712},{""page_index"":2,""viewing_time"":5952},{""page_index"":3,""viewing_time"":7208}]","28003","","","","","","","","","","","","","","","","","","","","","","","","","","","","","","","","","","","","",""
"","","","","","html-keyboard-response","8","49000","0.0-7.0-0.0-1.0","63d94906463da95ed3d8e627","64d3ef96556dbe1f0e02b5aa","64db812ba6828320f065cd41","","","","","","","","","","","","","","","","764.9971292799934","324.99298761326355","","","","","","","","","","","","","","","","","","","","","",""
"","","","","","html-keyboard-response","8","49000","0.0-7.0-0.0-1.0","63d94906463da95ed3d8e627","64d3ef96556dbe1f0e02b5aa","64db812ba6828320f065cd41","","","","","","","","","","","","","","","","","","practiceTrial_move","","","","","","","","","","","","","","","","","","","","",""
"","","","","","html-button-response","9","50821","0.0-7.0-0.0-2.0","63d94906463da95ed3d8e627","64d3ef96556dbe1f0e02b5aa","64db812ba6828320f065cd41","","1819","","","","","","","","","","","","","0","","","","<p>To help you get more comfortable with the task, let's begin with a practice trial first!</p><p>As described previously, you will first see a video of a ball falling, some of it behind a gray screen.</p><p>After the video, you will drag a triangle to the spot you think the ball hit the triangle behind the screen.</p><p>Click 'Next' to start your practice trial.</p>","","","","","","","","","","","","","","","","","","","",""
"","","","","","html-keyboard-response","10","53828","0.0-7.0-0.0-3.0","63d94906463da95ed3d8e627","64d3ef96556dbe1f0e02b5aa","64db812ba6828320f065cd41","","null","","","","","","","","","","","","","null","","","fallScene_practiceTrial_withOccluder","","400","50","420","415","","","","","","","","","","","","","","","",""
"","","","","","html-keyboard-response","11","57595","0.0-7.0-0.0-4.0","63d94906463da95ed3d8e627","64d3ef96556dbe1f0e02b5aa","64db812ba6828320f065cd41","","","","","","","","","","","","","","","","","","","","","","","","386.9900000000001","309.99999995233685","3766.7999999523163","","","","","","","","","","","","",""
"","","","","","html-keyboard-response","11","57596","0.0-7.0-0.0-4.0","63d94906463da95ed3d8e627","64d3ef96556dbe1f0e02b5aa","64db812ba6828320f065cd41","","","","","","","","","","","","","","","","","","reconstruct_practiceTrial_withOccluder","","","","","","386.9900000000001","309.99999995233685","3766.7999999523163","500","300","","","","","","","","","","",""
"","","","","","html-button-response","12","60228","0.0-7.0-0.0-5.0","63d94906463da95ed3d8e627","64d3ef96556dbe1f0e02b5aa","64db812ba6828320f065cd41","","2630","","","","","","","","","","","","","1","","","","<p>Ok! We're almost ready to get started.</p><p>We just have a <b>brief quiz</b>, to make sure you understood the task.</p><p>If you need to review the instructions, click 'Previous'.</p><p>It's important to understand the task to do the study, so you have to pass the quiz to move to the study.</p>","","","","","","","","","","","","","","","","","","","",""
"","","","","","survey-multi-choice","13","67416","0.0-7.0-1.0-0.0","63d94906463da95ed3d8e627","64d3ef96556dbe1f0e02b5aa","64db812ba6828320f065cd41","","7183","","","","","","","","","","","","","{""generalProcedure"":""Watch a video of a ball falling, some of it behind a gray screen. After each video, drag a triangle to where I think the ball hit the triangle behind the screen.""}","","","","","","","","","","","","","","[0]","","","","","","","","","",""
"","","","","","survey-multi-choice","14","69557","0.0-7.0-1.0-1.0","63d94906463da95ed3d8e627","64d3ef96556dbe1f0e02b5aa","64db812ba6828320f065cd41","","2136","","","","","","","","","","","","","{""checkBallHitObstacle"":""Yes.""}","","","","","","","","","","","","","","[0]","","","","","","","","","",""
"","","","","","survey-multi-choice","15","71972","0.0-7.0-1.0-2.0","63d94906463da95ed3d8e627","64d3ef96556dbe1f0e02b5aa","64db812ba6828320f065cd41","","2412","","","","","","","","","","","","","{""checkTriangleVisibility"":""No, the triangle is hidden behind the gray screen.""}","","","","","","","","","","","","","","[0]","","","","","","","","","",""
"","","","","","instructions","16","72861","0.0-8.0","63d94906463da95ed3d8e627","64d3ef96556dbe1f0e02b5aa","64db812ba6828320f065cd41","[{""page_index"":0,""viewing_time"":884}]","885","","","","","","","","","","","","","","","","","","","","","","","","","","","","","","","","","","","","",""
"","","","","","html-keyboard-response","17","75883","0.0-9.0-0.0","63d94906463da95ed3d8e627","64d3ef96556dbe1f0e02b5aa","64db812ba6828320f065cd41","","null","","","","","","","","","","","","","null","","","fallScene","","","","","","","","","","","","false","62.00643899999977","500","479.92114317029973","330.87","6","1","","",""
"","","","","","html-keyboard-response","18","78804","0.0-9.0-1.0","63d94906463da95ed3d8e627","64d3ef96556dbe1f0e02b5aa","64db812ba6828320f065cd41","","","","","","","","","","","","","","","","","","","","","","","","443.0000042311838","298.9900000008951","2919.5","","","","","","","","","","","","",""
"","","","","","html-keyboard-response","18","78804","0.0-9.0-1.0","63d94906463da95ed3d8e627","64d3ef96556dbe1f0e02b5aa","64db812ba6828320f065cd41","","","","","","","","","","","","","","","","","","reconstruct","","","","","","443.0000042311838","298.9900000008951","2919.5","","","","","","","","","","1","5","625","250"
"","","","","","html-keyboard-response","19","81815","0.0-9.0-0.1","63d94906463da95ed3d8e627","64d3ef96556dbe1f0e02b5aa","64db812ba6828320f065cd41","","null","","","","","","","","","","","","","null","","","fallScene","","","","","","","","","","","","true","61.99064000000031","604.4000000000001","596.8711431702998","394.5","10","2","","",""
"","","","","","html-keyboard-response","20","84572","0.0-9.0-1.1","63d94906463da95ed3d8e627","64d3ef96556dbe1f0e02b5aa","64db812ba6828320f065cd41","","","","","","","","","","","","","","","","","","","","","","","","408.0018054294226","291.99016432897054","2756","","","","","","","","","","","","",""
"","","","","","html-keyboard-response","20","84572","0.0-9.0-1.1","63d94906463da95ed3d8e627","64d3ef96556dbe1f0e02b5aa","64db812ba6828320f065cd41","","","","","","","","","","","","","","","","","","reconstruct","","","","","","408.0018054294226","291.99016432897054","2756","","","","","","","","","","2","5","625","250"
"","","","","","html-keyboard-response","21","87581","0.0-9.0-0.2","63d94906463da95ed3d8e627","64d3ef96556dbe1f0e02b5aa","64db812ba6828320f065cd41","","null","","","","","","","","","","","","","null","","","fallScene","","","","","","","","","","","","false","62.00625599999995","322.3","379.3711431702997","245.25","1","3","","",""
"","","","","","html-keyboard-response","22","90669","0.0-9.0-1.2","63d94906463da95ed3d8e627","64d3ef96556dbe1f0e02b5aa","64db812ba6828320f065cd41","","","","","","","","","","","","","","","","","","","","","","","","360.99076040210934","254.99617510381592","3086.399999976158","","","","","","","","","","","","",""
"","","","","","html-keyboard-response","22","90669","0.0-9.0-1.2","63d94906463da95ed3d8e627","64d3ef96556dbe1f0e02b5aa","64db812ba6828320f065cd41","","","","","","","","","","","","","","","","","","reconstruct","","","","","","360.99076040210934","254.99617510381592","3086.399999976158","","","","","","","","","","3","2","375","350"
"","","","","","html-keyboard-response","23","93676","0.0-9.0-0.3","63d94906463da95ed3d8e627","64d3ef96556dbe1f0e02b5aa","64db812ba6828320f065cd41","","null","","","","","","","","","","","","","null","","","fallScene","","","","","","","","","","","","true","62.00595100000056","604.4000000000001","650.0211431702996","404.58000000000004","11","4","","",""
"","","","","","html-keyboard-response","24","95917","0.0-9.0-1.3","63d94906463da95ed3d8e627","64d3ef96556dbe1f0e02b5aa","64db812ba6828320f065cd41","","","","","","","","","","","","","","","","","","","","","","","","340.9999999971291","253.01000000000002","2240.7999999523163","","","","","","","","","","","","",""
"","","","","","html-keyboard-response","24","95917","0.0-9.0-1.3","63d94906463da95ed3d8e627","64d3ef96556dbe1f0e02b5aa","64db812ba6828320f065cd41","","","","","","","","","","","","","","","","","","reconstruct","","","","","","340.9999999971291","253.01000000000002","2240.7999999523163","","","","","","","","","","4","6","625","350"
"","","","","","html-keyboard-response","25","98929","0.0-9.0-0.4","63d94906463da95ed3d8e627","64d3ef96556dbe1f0e02b5aa","64db812ba6828320f065cd41","","null","","","","","","","","","","","","","null","","","fallScene","","","","","","","","","","","","true","61.99161600000052","322.3","296.07114317029976","371.46","3","5","","",""
"","","","","","html-keyboard-response","26","101484","0.0-9.0-1.4","63d94906463da95ed3d8e627","64d3ef96556dbe1f0e02b5aa","64db812ba6828320f065cd41","","","","","","","","","","","","","","","","","","","","","","","","650.99","333.99999999136213","2554.6999999284744","","","","","","","","","","","","",""
"","","","","","html-keyboard-response","26","101484","0.0-9.0-1.4","63d94906463da95ed3d8e627","64d3ef96556dbe1f0e02b5aa","64db812ba6828320f065cd41","","","","","","","","","","","","","","","","","","reconstruct","","","","","","650.99","333.99999999136213","2554.6999999284744","","","","","","","","","","5","6","625","350"
"","","","","","html-keyboard-response","27","104492","0.0-9.0-0.5","63d94906463da95ed3d8e627","64d3ef96556dbe1f0e02b5aa","64db812ba6828320f065cd41","","null","","","","","","","","","","","","","null","","","fallScene","","","","","","","","","","","","false","62.00637800000042","322.3","308.07114317029976","253.89","2","6","","",""
"","","","","","html-keyboard-response","28","107132","0.0-9.0-1.5","63d94906463da95ed3d8e627","64d3ef96556dbe1f0e02b5aa","64db812ba6828320f065cd41","","","","","","","","","","","","","","","","","","","","","","","","325.0099999992894","295.0000037699757","2639.600000023842","","","","","","","","","","","","",""
"","","","","","html-keyboard-response","28","107132","0.0-9.0-1.5","63d94906463da95ed3d8e627","64d3ef96556dbe1f0e02b5aa","64db812ba6828320f065cd41","","","","","","","","","","","","","","","","","","reconstruct","","","","","","325.0099999992894","295.0000037699757","2639.600000023842","","","","","","","","","","6","2","375","350"
"","","","","","html-keyboard-response","29","110144","0.0-9.0-0.6","63d94906463da95ed3d8e627","64d3ef96556dbe1f0e02b5aa","64db812ba6828320f065cd41","","null","","","","","","","","","","","","","null","","","fallScene","","","","","","","","","","","","true","62.00656100000024","604.4000000000001","596.8711431702998","394.5","10","7","","",""
"","","","","","html-keyboard-response","30","112614","0.0-9.0-1.6","63d94906463da95ed3d8e627","64d3ef96556dbe1f0e02b5aa","64db812ba6828320f065cd41","","","","","","","","","","","","","","","","","","","","","","","","408.99000000000007","308.0000000400291","2469.0999999046326","","","","","","","","","","","","",""
"","","","","","html-keyboard-response","30","112614","0.0-9.0-1.6","63d94906463da95ed3d8e627","64d3ef96556dbe1f0e02b5aa","64db812ba6828320f065cd41","","","","","","","","","","","","","","","","","","reconstruct","","","","","","408.99000000000007","308.0000000400291","2469.0999999046326","","","","","","","","","","7","2","375","350"
"","","","","","html-keyboard-response","31","115626","0.0-9.0-0.7","63d94906463da95ed3d8e627","64d3ef96556dbe1f0e02b5aa","64db812ba6828320f065cd41","","null","","","","","","","","","","","","","null","","","fallScene","","","","","","","","","","","","true","62.00589000000032","322.3","379.3711431702997","245.25","1","8","","",""
"","","","","","html-keyboard-response","32","118117","0.0-9.0-1.7","63d94906463da95ed3d8e627","64d3ef96556dbe1f0e02b5aa","64db812ba6828320f065cd41","","","","","","","","","","","","","","","","","","","","","","","","644","279.01","2489.5","","","","","","","","","","","","",""
"","","","","","html-keyboard-response","32","118117","0.0-9.0-1.7","63d94906463da95ed3d8e627","64d3ef96556dbe1f0e02b5aa","64db812ba6828320f065cd41","","","","","","","","","","","","","","","","","","reconstruct","","","","","","644","279.01","2489.5","","","","","","","","","","8","5","625","250"
"","","","","","html-keyboard-response","33","121125","0.0-9.0-0.8","63d94906463da95ed3d8e627","64d3ef96556dbe1f0e02b5aa","64db812ba6828320f065cd41","","null","","","","","","","","","","","","","null","","","fallScene","","","","","","","","","","","","true","60.0057600000003","604.4000000000001","575.4211431702997","266.76","12","9","","",""
"","","","","","html-keyboard-response","34","123469","0.0-9.0-1.8","63d94906463da95ed3d8e627","64d3ef96556dbe1f0e02b5aa","64db812ba6828320f065cd41","","","","","","","","","","","","","","","","","","","","","","","","409.9903187663467","291.00250473849934","2342.2999999523163","","","","","","","","","","","","",""
"","","","","","html-keyboard-response","34","123469","0.0-9.0-1.8","63d94906463da95ed3d8e627","64d3ef96556dbe1f0e02b5aa","64db812ba6828320f065cd41","","","","","","","","","","","","","","","","","","reconstruct","","","","","","409.9903187663467","291.00250473849934","2342.2999999523163","","","","","","","","","","9","3","500","250"
"","","","","","html-keyboard-response","35","126478","0.0-9.0-0.9","63d94906463da95ed3d8e627","64d3ef96556dbe1f0e02b5aa","64db812ba6828320f065cd41","","null","","","","","","","","","","","","","null","","","fallScene","","","","","","","","","","","","true","60.00353999999963","604.4000000000001","575.4211431702997","266.76","12","10","","",""
"","","","","","html-keyboard-response","36","128911","0.0-9.0-1.9","63d94906463da95ed3d8e627","64d3ef96556dbe1f0e02b5aa","64db812ba6828320f065cd41","","","","","","","","","","","","","","","","","","","","","","","","399.00013862676735","283.0099990390848","2431.0999999046326","","","","","","","","","","","","",""
"","","","","","html-keyboard-response","36","128911","0.0-9.0-1.9","63d94906463da95ed3d8e627","64d3ef96556dbe1f0e02b5aa","64db812ba6828320f065cd41","","","","","","","","","","","","","","","","","","reconstruct","","","","","","399.00013862676735","283.0099990390848","2431.0999999046326","","","","","","","","","","10","6","625","350"
"","","","","","html-keyboard-response","37","131923","0.0-9.0-0.10","63d94906463da95ed3d8e627","64d3ef96556dbe1f0e02b5aa","64db812ba6828320f065cd41","","null","","","","","","","","","","","","","null","","","fallScene","","","","","","","","","","","","true","60.00407999999996","322.3","308.07114317029976","253.89","2","11","","",""
"","","","","","html-keyboard-response","38","134797","0.0-9.0-1.10","63d94906463da95ed3d8e627","64d3ef96556dbe1f0e02b5aa","64db812ba6828320f065cd41","","","","","","","","","","","","","","","","","","","","","","","","689.0026890237224","284.990368325617","2872.399999976158","","","","","","","","","","","","",""
"","","","","","html-keyboard-response","38","134797","0.0-9.0-1.10","63d94906463da95ed3d8e627","64d3ef96556dbe1f0e02b5aa","64db812ba6828320f065cd41","","","","","","","","","","","","","","","","","","reconstruct","","","","","","689.0026890237224","284.990368325617","2872.399999976158","","","","","","","","","","11","6","625","350"
"","","","","","html-keyboard-response","39","137805","0.0-9.0-0.11","63d94906463da95ed3d8e627","64d3ef96556dbe1f0e02b5aa","64db812ba6828320f065cd41","","null","","","","","","","","","","","","","null","","","fallScene","","","","","","","","","","","","false","62.000155999998704","322.3","296.07114317029976","371.46","3","12","","",""
"","","","","","html-keyboard-response","40","140526","0.0-9.0-1.11","63d94906463da95ed3d8e627","64d3ef96556dbe1f0e02b5aa","64db812ba6828320f065cd41","","","","","","","","","","","","","","","","","","","","","","","","294.0080217313006","303.99402908491595","2719.600000023842","","","","","","","","","","","","",""
"","","","","","html-keyboard-response","40","140526","0.0-9.0-1.11","63d94906463da95ed3d8e627","64d3ef96556dbe1f0e02b5aa","64db812ba6828320f065cd41","","","","","","","","","","","","","","","","","","reconstruct","","","","","","294.0080217313006","303.99402908491595","2719.600000023842","","","","","","","","","","12","2","375","350"
"","","","","","html-keyboard-response","41","143533","0.0-9.0-0.12","63d94906463da95ed3d8e627","64d3ef96556dbe1f0e02b5aa","64db812ba6828320f065cd41","","null","","","","","","","","","","","","","null","","","fallScene","","","","","","","","","","","","false","62.00595100000056","604.4000000000001","667.6211431702998","201.78","9","13","","",""
"","","","","","html-keyboard-response","42","147564","0.0-9.0-1.12","63d94906463da95ed3d8e627","64d3ef96556dbe1f0e02b5aa","64db812ba6828320f065cd41","","","","","","","","","","","","","","","","","","","","","","","","639.9900000000017","349.9900001826448","4030.7000000476837","","","","","","","","","","","","",""
"","","","","","html-keyboard-response","42","147564","0.0-9.0-1.12","63d94906463da95ed3d8e627","64d3ef96556dbe1f0e02b5aa","64db812ba6828320f065cd41","","","","","","","","","","","","","","","","","","reconstruct","","","","","","639.9900000000017","349.9900001826448","4030.7000000476837","","","","","","","","","","13","5","625","250"
"","","","","","html-keyboard-response","43","150569","0.0-9.0-0.13","63d94906463da95ed3d8e627","64d3ef96556dbe1f0e02b5aa","64db812ba6828320f065cd41","","null","","","","","","","","","","","","","null","","","fallScene","","","","","","","","","","","","false","59.01475000000001","500","453.67114317029973","210.33","5","14","","",""
"","","","","","html-keyboard-response","44","152494","0.0-9.0-1.13","63d94906463da95ed3d8e627","64d3ef96556dbe1f0e02b5aa","64db812ba6828320f065cd41","","","","","","","","","","","","","","","","","","","","","","","","482.0001980441567","306.0099980387333","1924.1000000238419","","","","","","","","","","","","",""
"","","","","","html-keyboard-response","44","152494","0.0-9.0-1.13","63d94906463da95ed3d8e627","64d3ef96556dbe1f0e02b5aa","64db812ba6828320f065cd41","","","","","","","","","","","","","","","","","","reconstruct","","","","","","482.0001980441567","306.0099980387333","1924.1000000238419","","","","","","","","","","14","4","500","350"
"","","","","","html-keyboard-response","45","155502","0.0-9.0-0.14","63d94906463da95ed3d8e627","64d3ef96556dbe1f0e02b5aa","64db812ba6828320f065cd41","","null","","","","","","","","","","","","","null","","","fallScene","","","","","","","","","","","","false","57.94124100000035","500","553.4711431702997","282.51","7","15","","",""
"","","","","","html-keyboard-response","46","158046","0.0-9.0-1.14","63d94906463da95ed3d8e627","64d3ef96556dbe1f0e02b5aa","64db812ba6828320f065cd41","","","","","","","","","","","","","","","","","","","","","","","","517.9920630247505","296.0060831261608","2542.399999976158","","","","","","","","","","","","",""
"","","","","","html-keyboard-response","46","158046","0.0-9.0-1.14","63d94906463da95ed3d8e627","64d3ef96556dbe1f0e02b5aa","64db812ba6828320f065cd41","","","","","","","","","","","","","","","","","","reconstruct","","","","","","517.9920630247505","296.0060831261608","2542.399999976158","","","","","","","","","","15","1","375","250"
"","","","","","html-keyboard-response","47","161058","0.0-9.0-0.15","63d94906463da95ed3d8e627","64d3ef96556dbe1f0e02b5aa","64db812ba6828320f065cd41","","null","","","","","","","","","","","","","null","","","fallScene","","","","","","","","","","","","true","60.97259999999951","322.3","296.07114317029976","371.46","3","16","","",""
"","","","","","html-keyboard-response","48","164029","0.0-9.0-1.15","63d94906463da95ed3d8e627","64d3ef96556dbe1f0e02b5aa","64db812ba6828320f065cd41","","","","","","","","","","","","","","","","","","","","","","","","705.0099999962781","307.00000862779103","2970.5","","","","","","","","","","","","",""
"","","","","","html-keyboard-response","48","164029","0.0-9.0-1.15","63d94906463da95ed3d8e627","64d3ef96556dbe1f0e02b5aa","64db812ba6828320f065cd41","","","","","","","","","","","","","","","","","","reconstruct","","","","","","705.0099999962781","307.00000862779103","2970.5","","","","","","","","","","16","1","375","250"
"","","","","","html-keyboard-response","49","167042","0.0-9.0-0.16","63d94906463da95ed3d8e627","64d3ef96556dbe1f0e02b5aa","64db812ba6828320f065cd41","","null","","","","","","","","","","","","","null","","","fallScene","","","","","","","","","","","","false","53.87121399999972","322.3","296.07114317029976","371.46","3","17","","",""
"","","","","","html-keyboard-response","50","170220","0.0-9.0-1.16","63d94906463da95ed3d8e627","64d3ef96556dbe1f0e02b5aa","64db812ba6828320f065cd41","","","","","","","","","","","","","","","","","","","","","","","","293.00394974316697","270.99081307837656","3177.8000000715256","","","","","","","","","","","","",""
"","","","","","html-keyboard-response","50","170220","0.0-9.0-1.16","63d94906463da95ed3d8e627","64d3ef96556dbe1f0e02b5aa","64db812ba6828320f065cd41","","","","","","","","","","","","","","","","","","reconstruct","","","","","","293.00394974316697","270.99081307837656","3177.8000000715256","","","","","","","","","","17","4","500","350"
"","","","","","html-keyboard-response","51","173229","0.0-9.0-0.17","63d94906463da95ed3d8e627","64d3ef96556dbe1f0e02b5aa","64db812ba6828320f065cd41","","null","","","","","","","","","","","","","null","","","fallScene","","","","","","","","","","","","true","55.90271500000002","322.3","356.42114317029973","357.87","4","18","","",""
"","","","","","html-keyboard-response","52","175797","0.0-9.0-1.17","63d94906463da95ed3d8e627","64d3ef96556dbe1f0e02b5aa","64db812ba6828320f065cd41","","","","","","","","","","","","","","","","","","","","","","","","693.9906718270062","353.99639650328186","2566.8000000715256","","","","","","","","","","","","",""
"","","","","","html-keyboard-response","52","175797","0.0-9.0-1.17","63d94906463da95ed3d8e627","64d3ef96556dbe1f0e02b5aa","64db812ba6828320f065cd41","","","","","","","","","","","","","","","","","","reconstruct","","","","","","693.9906718270062","353.99639650328186","2566.8000000715256","","","","","","","","","","18","6","625","350"
"","","","","","html-button-response","53","177767","0.0-10.0","63d94906463da95ed3d8e627","64d3ef96556dbe1f0e02b5aa","64db812ba6828320f065cd41","","1962","","","","","","","","","","","","","0","","","","<p><span style = ""font-size:40px;"">BREAK</span></p><p>You are doing great! Click 'Next' when you are ready for the next set.</p>","","","","","","","","","","","","","","","","","","","",""
"","","","","","html-keyboard-response","54","180781","0.0-11.0-0.0","63d94906463da95ed3d8e627","64d3ef96556dbe1f0e02b5aa","64db812ba6828320f065cd41","","null","","","","","","","","","","","","","null","","","fallScene","","","","","","","","","","","","true","51.851546999999265","500","453.67114317029973","210.33","5","19","","",""
"","","","","","html-keyboard-response","55","183813","0.0-11.0-1.0","63d94906463da95ed3d8e627","64d3ef96556dbe1f0e02b5aa","64db812ba6828320f065cd41","","","","","","","","","","","","","","","","","","","","","","","","541.0099999428214","286.0000338166938","3029.899999976158","","","","","","","","","","","","",""
"","","","","","html-keyboard-response","55","183813","0.0-11.0-1.0","63d94906463da95ed3d8e627","64d3ef96556dbe1f0e02b5aa","64db812ba6828320f065cd41","","","","","","","","","","","","","","","","","","reconstruct","","","","","","541.0099999428214","286.0000338166938","3029.899999976158","","","","","","","","","","19","5","625","250"
"","","","","","html-keyboard-response","56","186824","0.0-11.0-0.1","63d94906463da95ed3d8e627","64d3ef96556dbe1f0e02b5aa","64db812ba6828320f065cd41","","null","","","","","","","","","","","","","null","","","fallScene","","","","","","","","","","","","false","50.82010000000009","322.3","356.42114317029973","357.87","4","20","","",""
"","","","","","html-keyboard-response","57","189557","0.0-11.0-1.1","63d94906463da95ed3d8e627","64d3ef96556dbe1f0e02b5aa","64db812ba6828320f065cd41","","","","","","","","","","","","","","","","","","","","","","","","336.00999644408313","290.99973334349306","2731.7999999523163","","","","","","","","","","","","",""
"","","","","","html-keyboard-response","57","189557","0.0-11.0-1.1","63d94906463da95ed3d8e627","64d3ef96556dbe1f0e02b5aa","64db812ba6828320f065cd41","","","","","","","","","","","","","","","","","","reconstruct","","","","","","336.00999644408313","290.99973334349306","2731.7999999523163","","","","","","","","","","20","5","625","250"
"","","","","","html-keyboard-response","58","192577","0.0-11.0-0.2","63d94906463da95ed3d8e627","64d3ef96556dbe1f0e02b5aa","64db812ba6828320f065cd41","","null","","","","","","","","","","","","","null","","","fallScene","","","","","","","","","","","","false","47.777380000000385","322.3","296.07114317029976","371.46","3","21","","",""
"","","","","","html-keyboard-response","59","195231","0.0-11.0-1.2","63d94906463da95ed3d8e627","64d3ef96556dbe1f0e02b5aa","64db812ba6828320f065cd41","","","","","","","","","","","","","","","","","","","","","","","","302.00980571169583","270.0019616365968","2653.100000023842","","","","","","","","","","","","",""
"","","","","","html-keyboard-response","59","195232","0.0-11.0-1.2","63d94906463da95ed3d8e627","64d3ef96556dbe1f0e02b5aa","64db812ba6828320f065cd41","","","","","","","","","","","","","","","","","","reconstruct","","","","","","302.00980571169583","270.0019616365968","2653.100000023842","","","","","","","","","","21","3","500","250"
"","","","","","html-keyboard-response","60","198238","0.0-11.0-0.3","63d94906463da95ed3d8e627","64d3ef96556dbe1f0e02b5aa","64db812ba6828320f065cd41","","null","","","","","","","","","","","","","null","","","fallScene","","","","","","","","","","","","false","45.75726000000039","500","479.92114317029973","330.87","6","22","","",""
"","","","","","html-keyboard-response","61","200877","0.0-11.0-1.3","63d94906463da95ed3d8e627","64d3ef96556dbe1f0e02b5aa","64db812ba6828320f065cd41","","","","","","","","","","","","","","","","","","","","","","","","489.99998994171585","292.00999999494155","2638.100000023842","","","","","","","","","","","","",""
"","","","","","html-keyboard-response","61","200877","0.0-11.0-1.3","63d94906463da95ed3d8e627","64d3ef96556dbe1f0e02b5aa","64db812ba6828320f065cd41","","","","","","","","","","","","","","","","","","reconstruct","","","","","","489.99998994171585","292.00999999494155","2638.100000023842","","","","","","","","","","22","6","625","350"
"","","","","","html-keyboard-response","62","203889","0.0-11.0-0.4","63d94906463da95ed3d8e627","64d3ef96556dbe1f0e02b5aa","64db812ba6828320f065cd41","","null","","","","","","","","","","","","","null","","","fallScene","","","","","","","","","","","","true","48.558144000000084","500","479.92114317029973","330.87","6","23","","",""
"","","","","","html-keyboard-response","63","206574","0.0-11.0-1.4","63d94906463da95ed3d8e627","64d3ef96556dbe1f0e02b5aa","64db812ba6828320f065cd41","","","","","","","","","","","","","","","","","","","","","","","","531.0075536767455","301.9934469878968","2683.8000000715256","","","","","","","","","","","","",""
"","","","","","html-keyboard-response","63","206574","0.0-11.0-1.4","63d94906463da95ed3d8e627","64d3ef96556dbe1f0e02b5aa","64db812ba6828320f065cd41","","","","","","","","","","","","","","","","","","reconstruct","","","","","","531.0075536767455","301.9934469878968","2683.8000000715256","","","","","","","","","","23","3","500","250"
"","","","","","html-keyboard-response","64","209583","0.0-11.0-0.5","63d94906463da95ed3d8e627","64d3ef96556dbe1f0e02b5aa","64db812ba6828320f065cd41","","null","","","","","","","","","","","","","null","","","fallScene","","","","","","","","","","","","false","41.67592600000018","500","510.8711431702997","369.03","8","24","","",""
"","","","","","html-keyboard-response","65","213908","0.0-11.0-1.5","63d94906463da95ed3d8e627","64d3ef96556dbe1f0e02b5aa","64db812ba6828320f065cd41","","","","","","","","","","","","","","","","","","","","","","","","506.99534639817875","305.00885121404605","4324.100000023842","","","","","","","","","","","","",""
"","","","","","html-keyboard-response","65","213909","0.0-11.0-1.5","63d94906463da95ed3d8e627","64d3ef96556dbe1f0e02b5aa","64db812ba6828320f065cd41","","","","","","","","","","","","","","","","","","reconstruct","","","","","","506.99534639817875","305.00885121404605","4324.100000023842","","","","","","","","","","24","6","625","350"
"","","","","","html-keyboard-response","66","216915","0.0-11.0-0.6","63d94906463da95ed3d8e627","64d3ef96556dbe1f0e02b5aa","64db812ba6828320f065cd41","","null","","","","","","","","","","","","","null","","","fallScene","","","","","","","","","","","","true","40.66184000000008","500","453.67114317029973","210.33","5","25","","",""
"","","","","","html-keyboard-response","67","219628","0.0-11.0-1.6","63d94906463da95ed3d8e627","64d3ef96556dbe1f0e02b5aa","64db812ba6828320f065cd41","","","","","","","","","","","","","","","","","","","","","","","","482.0075349958864","308.00657448378143","2712.600000023842","","","","","","","","","","","","",""
"","","","","","html-keyboard-response","67","219628","0.0-11.0-1.6","63d94906463da95ed3d8e627","64d3ef96556dbe1f0e02b5aa","64db812ba6828320f065cd41","","","","","","","","","","","","","","","","","","reconstruct","","","","","","482.0075349958864","308.00657448378143","2712.600000023842","","","","","","","","","","25","1","375","250"
"","","","","","html-keyboard-response","68","222637","0.0-11.0-0.7","63d94906463da95ed3d8e627","64d3ef96556dbe1f0e02b5aa","64db812ba6828320f065cd41","","null","","","","","","","","","","","","","null","","","fallScene","","","","","","","","","","","","true","40.67260000000009","604.4000000000001","650.0211431702996","404.58000000000004","11","26","","",""
"","","","","","html-keyboard-response","69","225364","0.0-11.0-1.7","63d94906463da95ed3d8e627","64d3ef96556dbe1f0e02b5aa","64db812ba6828320f065cd41","","","","","","","","","","","","","","","","","","","","","","","","319.0062517692549","304.9921951693687","2725.899999976158","","","","","","","","","","","","",""
"","","","","","html-keyboard-response","69","225364","0.0-11.0-1.7","63d94906463da95ed3d8e627","64d3ef96556dbe1f0e02b5aa","64db812ba6828320f065cd41","","","","","","","","","","","","","","","","","","reconstruct","","","","","","319.0062517692549","304.9921951693687","2725.899999976158","","","","","","","","","","26","5","625","250"
"","","","","","html-keyboard-response","70","228374","0.0-11.0-0.8","63d94906463da95ed3d8e627","64d3ef96556dbe1f0e02b5aa","64db812ba6828320f065cd41","","null","","","","","","","","","","","","","null","","","fallScene","","","","","","","","","","","","true","41.6774840000002","500","453.67114317029973","210.33","5","27","","",""
"","","","","","html-keyboard-response","71","231356","0.0-11.0-1.8","63d94906463da95ed3d8e627","64d3ef96556dbe1f0e02b5aa","64db812ba6828320f065cd41","","","","","","","","","","","","","","","","","","","","","","","","495.0099895622109","301.00045677875977","2982.100000023842","","","","","","","","","","","","",""
"","","","","","html-keyboard-response","71","231357","0.0-11.0-1.8","63d94906463da95ed3d8e627","64d3ef96556dbe1f0e02b5aa","64db812ba6828320f065cd41","","","","","","","","","","","","","","","","","","reconstruct","","","","","","495.0099895622109","301.00045677875977","2982.100000023842","","","","","","","","","","27","6","625","350"
"","","","","","html-keyboard-response","72","234370","0.0-11.0-0.9","63d94906463da95ed3d8e627","64d3ef96556dbe1f0e02b5aa","64db812ba6828320f065cd41","","null","","","","","","","","","","","","","null","","","fallScene","","","","","","","","","","","","false","38.621110000000044","604.4000000000001","596.8711431702998","394.5","10","28","","",""
"","","","","","html-keyboard-response","73","237252","0.0-11.0-1.9","63d94906463da95ed3d8e627","64d3ef96556dbe1f0e02b5aa","64db812ba6828320f065cd41","","","","","","","","","","","","","","","","","","","","","","","","582.01","345.9999999952441","2881.600000023842","","","","","","","","","","","","",""
"","","","","","html-keyboard-response","73","237253","0.0-11.0-1.9","63d94906463da95ed3d8e627","64d3ef96556dbe1f0e02b5aa","64db812ba6828320f065cd41","","","","","","","","","","","","","","","","","","reconstruct","","","","","","582.01","345.9999999952441","2881.600000023842","","","","","","","","","","28","6","625","350"
"","","","","","html-keyboard-response","74","240256","0.0-11.0-0.10","63d94906463da95ed3d8e627","64d3ef96556dbe1f0e02b5aa","64db812ba6828320f065cd41","","null","","","","","","","","","","","","","null","","","fallScene","","","","","","","","","","","","true","37.59803100000001","604.4000000000001","596.8711431702998","394.5","10","29","","",""
"","","","","","html-keyboard-response","75","243769","0.0-11.0-1.10","63d94906463da95ed3d8e627","64d3ef96556dbe1f0e02b5aa","64db812ba6828320f065cd41","","","","","","","","","","","","","","","","","","","","","","","","402.0098447069174","319.00175549016234","3511.600000023842","","","","","","","","","","","","",""
"","","","","","html-keyboard-response","75","243769","0.0-11.0-1.10","63d94906463da95ed3d8e627","64d3ef96556dbe1f0e02b5aa","64db812ba6828320f065cd41","","","","","","","","","","","","","","","","","","reconstruct","","","","","","402.0098447069174","319.00175549016234","3511.600000023842","","","","","","","","","","29","3","500","250"
"","","","","","html-keyboard-response","76","246781","0.0-11.0-0.11","63d94906463da95ed3d8e627","64d3ef96556dbe1f0e02b5aa","64db812ba6828320f065cd41","","null","","","","","","","","","","","","","null","","","fallScene","","","","","","","","","","","","true","34.56569200000022","500","553.4711431702997","282.51","7","30","","",""
"","","","","","html-keyboard-response","77","250409","0.0-11.0-1.11","63d94906463da95ed3d8e627","64d3ef96556dbe1f0e02b5aa","64db812ba6828320f065cd41","","","","","","","","","","","","","","","","","","","","","","","","463.00780590090164","310.0062504328741","3626.899999976158","","","","","","","","","","","","",""
"","","","","","html-keyboard-response","77","250409","0.0-11.0-1.11","63d94906463da95ed3d8e627","64d3ef96556dbe1f0e02b5aa","64db812ba6828320f065cd41","","","","","","","","","","","","","","","","","","reconstruct","","","","","","463.00780590090164","310.0062504328741","3626.899999976158","","","","","","","","","","30","5","625","250"
"","","","","","html-keyboard-response","78","253425","0.0-11.0-0.12","63d94906463da95ed3d8e627","64d3ef96556dbe1f0e02b5aa","64db812ba6828320f065cd41","","null","","","","","","","","","","","","","null","","","fallScene","","","","","","","","","","","","true","36.59695199999981","500","453.67114317029973","210.33","5","31","","",""
"","","","","","html-keyboard-response","79","256032","0.0-11.0-1.12","63d94906463da95ed3d8e627","64d3ef96556dbe1f0e02b5aa","64db812ba6828320f065cd41","","","","","","","","","","","","","","","","","","","","","","","","523.9900137887632","253.0005249620315","2606.4000000953674","","","","","","","","","","","","",""
"","","","","","html-keyboard-response","79","256032","0.0-11.0-1.12","63d94906463da95ed3d8e627","64d3ef96556dbe1f0e02b5aa","64db812ba6828320f065cd41","","","","","","","","","","","","","","","","","","reconstruct","","","","","","523.9900137887632","253.0005249620315","2606.4000000953674","","","","","","","","","","31","3","500","250"
"","","","","","html-keyboard-response","80","259043","0.0-11.0-0.13","63d94906463da95ed3d8e627","64d3ef96556dbe1f0e02b5aa","64db812ba6828320f065cd41","","null","","","","","","","","","","","","","null","","","fallScene","","","","","","","","","","","","false","37.607281000000015","604.4000000000001","667.6211431702998","201.78","9","32","","",""
"","","","","","html-keyboard-response","81","262696","0.0-11.0-1.13","63d94906463da95ed3d8e627","64d3ef96556dbe1f0e02b5aa","64db812ba6828320f065cd41","","","","","","","","","","","","","","","","","","","","","","","","650.9954897764552","284.99107487347004","3651.899999976158","","","","","","","","","","","","",""
"","","","","","html-keyboard-response","81","262696","0.0-11.0-1.13","63d94906463da95ed3d8e627","64d3ef96556dbe1f0e02b5aa","64db812ba6828320f065cd41","","","","","","","","","","","","","","","","","","reconstruct","","","","","","650.9954897764552","284.99107487347004","3651.899999976158","","","","","","","","","","32","1","375","250"
"","","","","","html-keyboard-response","82","265702","0.0-11.0-0.14","63d94906463da95ed3d8e627","64d3ef96556dbe1f0e02b5aa","64db812ba6828320f065cd41","","null","","","","","","","","","","","","","null","","","fallScene","","","","","","","","","","","","false","37.19048400000064","500","479.92114317029973","330.87","6","33","","",""
"","","","","","html-keyboard-response","83","269559","0.0-11.0-1.14","63d94906463da95ed3d8e627","64d3ef96556dbe1f0e02b5aa","64db812ba6828320f065cd41","","","","","","","","","","","","","","","","","","","","","","","","477.00730178539476","323.993167436056","3856.600000023842","","","","","","","","","","","","",""
"","","","","","html-keyboard-response","83","269560","0.0-11.0-1.14","63d94906463da95ed3d8e627","64d3ef96556dbe1f0e02b5aa","64db812ba6828320f065cd41","","","","","","","","","","","","","","","","","","reconstruct","","","","","","477.00730178539476","323.993167436056","3856.600000023842","","","","","","","","","","33","1","375","250"
"","","","","","html-keyboard-response","84","272577","0.0-11.0-0.15","63d94906463da95ed3d8e627","64d3ef96556dbe1f0e02b5aa","64db812ba6828320f065cd41","","null","","","","","","","","","","","","","null","","","fallScene","","","","","","","","","","","","false","37.18591199999931","604.4000000000001","575.4211431702997","266.76","12","34","","",""
"","","","","","html-keyboard-response","85","275808","0.0-11.0-1.15","63d94906463da95ed3d8e627","64d3ef96556dbe1f0e02b5aa","64db812ba6828320f065cd41","","","","","","","","","","","","","","","","","","","","","","","","599.9993110258815","271.0099762375004","3229.9000000953674","","","","","","","","","","","","",""
"","","","","","html-keyboard-response","85","275808","0.0-11.0-1.15","63d94906463da95ed3d8e627","64d3ef96556dbe1f0e02b5aa","64db812ba6828320f065cd41","","","","","","","","","","","","","","","","","","reconstruct","","","","","","599.9993110258815","271.0099762375004","3229.9000000953674","","","","","","","","","","34","4","500","350"
"","","","","","html-keyboard-response","86","278817","0.0-11.0-0.16","63d94906463da95ed3d8e627","64d3ef96556dbe1f0e02b5aa","64db812ba6828320f065cd41","","null","","","","","","","","","","","","","null","","","fallScene","","","","","","","","","","","","true","32.518080000000076","500","510.8711431702997","369.03","8","35","","",""
"","","","","","html-keyboard-response","87","281753","0.0-11.0-1.16","63d94906463da95ed3d8e627","64d3ef96556dbe1f0e02b5aa","64db812ba6828320f065cd41","","","","","","","","","","","","","","","","","","","","","","","","502.9916313102145","332.00547403245093","2935.4000000953674","","","","","","","","","","","","",""
"","","","","","html-keyboard-response","87","281753","0.0-11.0-1.16","63d94906463da95ed3d8e627","64d3ef96556dbe1f0e02b5aa","64db812ba6828320f065cd41","","","","","","","","","","","","","","","","","","reconstruct","","","","","","502.9916313102145","332.00547403245093","2935.4000000953674","","","","","","","","","","35","3","500","250"
"","","","","","html-keyboard-response","88","284773","0.0-11.0-0.17","63d94906463da95ed3d8e627","64d3ef96556dbe1f0e02b5aa","64db812ba6828320f065cd41","","null","","","","","","","","","","","","","null","","","fallScene","","","","","","","","","","","","false","32.53782400000095","500","553.4711431702997","282.51","7","36","","",""
"","","","","","html-keyboard-response","89","287784","0.0-11.0-1.17","63d94906463da95ed3d8e627","64d3ef96556dbe1f0e02b5aa","64db812ba6828320f065cd41","","","","","","","","","","","","","","","","","","","","","","","","521.9914150534031","286.9948717749729","3010.3000000715256","","","","","","","","","","","","",""
"","","","","","html-keyboard-response","89","287784","0.0-11.0-1.17","63d94906463da95ed3d8e627","64d3ef96556dbe1f0e02b5aa","64db812ba6828320f065cd41","","","","","","","","","","","","","","","","","","reconstruct","","","","","","521.9914150534031","286.9948717749729","3010.3000000715256","","","","","","","","","","36","2","375","350"
"","","","","","html-button-response","90","290282","0.0-12.0","63d94906463da95ed3d8e627","64d3ef96556dbe1f0e02b5aa","64db812ba6828320f065cd41","","2492","","","","","","","","","","","","","0","","","","<p><span style = ""font-size:40px;"">BREAK</span></p><p>You are halfway done! Click 'Next' when you are ready for the next set.</p>","","","","","","","","","","","","","","","","","","","",""
"","","","","","html-keyboard-response","91","293295","0.0-13.0-0.0","63d94906463da95ed3d8e627","64d3ef96556dbe1f0e02b5aa","64db812ba6828320f065cd41","","null","","","","","","","","","","","","","null","","","fallScene","","","","","","","","","","","","false","32.02755699999991","322.3","308.07114317029976","253.89","2","37","","",""
"","","","","","html-keyboard-response","92","298953","0.0-13.0-1.0","63d94906463da95ed3d8e627","64d3ef96556dbe1f0e02b5aa","64db812ba6828320f065cd41","","","","","","","","","","","","","","","","","","","","","","","","309.9904631020756","232.99699208078914","5657.300000071526","","","","","","","","","","","","",""
"","","","","","html-keyboard-response","92","298953","0.0-13.0-1.0","63d94906463da95ed3d8e627","64d3ef96556dbe1f0e02b5aa","64db812ba6828320f065cd41","","","","","","","","","","","","","","","","","","reconstruct","","","","","","309.9904631020756","232.99699208078914","5657.300000071526","","","","","","","","","","37","4","500","350"
"","","","","","html-keyboard-response","93","301962","0.0-13.0-0.1","63d94906463da95ed3d8e627","64d3ef96556dbe1f0e02b5aa","64db812ba6828320f065cd41","","null","","","","","","","","","","","","","null","","","fallScene","","","","","","","","","","","","true","34.094676000000675","500","453.67114317029973","210.33","5","38","","",""
"","","","","","html-keyboard-response","94","304428","0.0-13.0-1.1","63d94906463da95ed3d8e627","64d3ef96556dbe1f0e02b5aa","64db812ba6828320f065cd41","","","","","","","","","","","","","","","","","","","","","","","","518.9977072082384","333.0097336070363","2465.5","","","","","","","","","","","","",""
"","","","","","html-keyboard-response","94","304428","0.0-13.0-1.1","63d94906463da95ed3d8e627","64d3ef96556dbe1f0e02b5aa","64db812ba6828320f065cd41","","","","","","","","","","","","","","","","","","reconstruct","","","","","","518.9977072082384","333.0097336070363","2465.5","","","","","","","","","","38","2","375","350"
"","","","","","html-keyboard-response","95","307441","0.0-13.0-0.2","63d94906463da95ed3d8e627","64d3ef96556dbe1f0e02b5aa","64db812ba6828320f065cd41","","null","","","","","","","","","","","","","null","","","fallScene","","","","","","","","","","","","true","30.993720000000323","500","553.4711431702997","282.51","7","39","","",""
"","","","","","html-keyboard-response","96","310059","0.0-13.0-1.2","63d94906463da95ed3d8e627","64d3ef96556dbe1f0e02b5aa","64db812ba6828320f065cd41","","","","","","","","","","","","","","","","","","","","","","","","461.9981916123005","285.00983512755016","2617.2999999523163","","","","","","","","","","","","",""
"","","","","","html-keyboard-response","96","310059","0.0-13.0-1.2","63d94906463da95ed3d8e627","64d3ef96556dbe1f0e02b5aa","64db812ba6828320f065cd41","","","","","","","","","","","","","","","","","","reconstruct","","","","","","461.9981916123005","285.00983512755016","2617.2999999523163","","","","","","","","","","39","4","500","350"
"","","","","","html-keyboard-response","97","313065","0.0-13.0-0.3","63d94906463da95ed3d8e627","64d3ef96556dbe1f0e02b5aa","64db812ba6828320f065cd41","","null","","","","","","","","","","","","","null","","","fallScene","","","","","","","","","","","","false","29.959610000000744","500","510.8711431702997","369.03","8","40","","",""
"","","","","","html-keyboard-response","98","315852","0.0-13.0-1.3","63d94906463da95ed3d8e627","64d3ef96556dbe1f0e02b5aa","64db812ba6828320f065cd41","","","","","","","","","","","","","","","","","","","","","","","","552.9900000072533","324.00001204435546","2785.3000000715256","","","","","","","","","","","","",""
"","","","","","html-keyboard-response","98","315852","0.0-13.0-1.3","63d94906463da95ed3d8e627","64d3ef96556dbe1f0e02b5aa","64db812ba6828320f065cd41","","","","","","","","","","","","","","","","","","reconstruct","","","","","","552.9900000072533","324.00001204435546","2785.3000000715256","","","","","","","","","","40","1","375","250"
"","","","","","html-keyboard-response","99","318863","0.0-13.0-0.4","63d94906463da95ed3d8e627","64d3ef96556dbe1f0e02b5aa","64db812ba6828320f065cd41","","null","","","","","","","","","","","","","null","","","fallScene","","","","","","","","","","","","false","29.95952299999999","322.3","356.42114317029973","357.87","4","41","","",""
"","","","","","html-keyboard-response","100","321875","0.0-13.0-1.4","63d94906463da95ed3d8e627","64d3ef96556dbe1f0e02b5aa","64db812ba6828320f065cd41","","","","","","","","","","","","","","","","","","","","","","","","345.00999884272034","338.9998478676441","3011","","","","","","","","","","","","",""
"","","","","","html-keyboard-response","100","321875","0.0-13.0-1.4","63d94906463da95ed3d8e627","64d3ef96556dbe1f0e02b5aa","64db812ba6828320f065cd41","","","","","","","","","","","","","","","","","","reconstruct","","","","","","345.00999884272034","338.9998478676441","3011","","","","","","","","","","41","4","500","350"
"","","","","","html-keyboard-response","101","324891","0.0-13.0-0.5","63d94906463da95ed3d8e627","64d3ef96556dbe1f0e02b5aa","64db812ba6828320f065cd41","","null","","","","","","","","","","","","","null","","","fallScene","","","","","","","","","","","","true","29.9545059999997","322.3","379.3711431702997","245.25","1","42","","",""
"","","","","","html-keyboard-response","102","327910","0.0-13.0-1.5","63d94906463da95ed3d8e627","64d3ef96556dbe1f0e02b5aa","64db812ba6828320f065cd41","","","","","","","","","","","","","","","","","","","","","","","","691.9900004918276","310.0000991781749","3018.2999999523163","","","","","","","","","","","","",""
"","","","","","html-keyboard-response","102","327911","0.0-13.0-1.5","63d94906463da95ed3d8e627","64d3ef96556dbe1f0e02b5aa","64db812ba6828320f065cd41","","","","","","","","","","","","","","","","","","reconstruct","","","","","","691.9900004918276","310.0000991781749","3018.2999999523163","","","","","","","","","","42","4","500","350"
"","","","","","html-keyboard-response","103","330925","0.0-13.0-0.6","63d94906463da95ed3d8e627","64d3ef96556dbe1f0e02b5aa","64db812ba6828320f065cd41","","null","","","","","","","","","","","","","null","","","fallScene","","","","","","","","","","","","false","29.476991999999274","604.4000000000001","575.4211431702997","266.76","12","43","","",""
"","","","","","html-keyboard-response","104","334252","0.0-13.0-1.6","63d94906463da95ed3d8e627","64d3ef96556dbe1f0e02b5aa","64db812ba6828320f065cd41","","","","","","","","","","","","","","","","","","","","","","","","602.9978227577172","312.9902398967197","3326.100000023842","","","","","","","","","","","","",""
"","","","","","html-keyboard-response","104","334252","0.0-13.0-1.6","63d94906463da95ed3d8e627","64d3ef96556dbe1f0e02b5aa","64db812ba6828320f065cd41","","","","","","","","","","","","","","","","","","reconstruct","","","","","","602.9978227577172","312.9902398967197","3326.100000023842","","","","","","","","","","43","2","375","350"
"","","","","","html-keyboard-response","105","337259","0.0-13.0-0.7","63d94906463da95ed3d8e627","64d3ef96556dbe1f0e02b5aa","64db812ba6828320f065cd41","","null","","","","","","","","","","","","","null","","","fallScene","","","","","","","","","","","","true","28.459704000000144","500","553.4711431702997","282.51","7","44","","",""
"","","","","","html-keyboard-response","106","340271","0.0-13.0-1.7","63d94906463da95ed3d8e627","64d3ef96556dbe1f0e02b5aa","64db812ba6828320f065cd41","","","","","","","","","","","","","","","","","","","","","","","","477.0099999991562","344.9999958919658","3010.8000000715256","","","","","","","","","","","","",""
"","","","","","html-keyboard-response","106","340271","0.0-13.0-1.7","63d94906463da95ed3d8e627","64d3ef96556dbe1f0e02b5aa","64db812ba6828320f065cd41","","","","","","","","","","","","","","","","","","reconstruct","","","","","","477.0099999991562","344.9999958919658","3010.8000000715256","","","","","","","","","","44","3","500","250"
"","","","","","html-keyboard-response","107","343293","0.0-13.0-0.8","63d94906463da95ed3d8e627","64d3ef96556dbe1f0e02b5aa","64db812ba6828320f065cd41","","null","","","","","","","","","","","","","null","","","fallScene","","","","","","","","","","","","true","27.449523000000916","604.4000000000001","667.6211431702998","201.78","9","45","","",""
"","","","","","html-keyboard-response","108","346644","0.0-13.0-1.8","63d94906463da95ed3d8e627","64d3ef96556dbe1f0e02b5aa","64db812ba6828320f065cd41","","","","","","","","","","","","","","","","","","","","","","","","318.01","210.9999999906299","3348","","","","","","","","","","","","",""
"","","","","","html-keyboard-response","108","346644","0.0-13.0-1.8","63d94906463da95ed3d8e627","64d3ef96556dbe1f0e02b5aa","64db812ba6828320f065cd41","","","","","","","","","","","","","","","","","","reconstruct","","","","","","318.01","210.9999999906299","3348","","","","","","","","","","45","3","500","250"
"","","","","","html-keyboard-response","109","349659","0.0-13.0-0.9","63d94906463da95ed3d8e627","64d3ef96556dbe1f0e02b5aa","64db812ba6828320f065cd41","","null","","","","","","","","","","","","","null","","","fallScene","","","","","","","","","","","","true","26.43058599999966","604.4000000000001","667.6211431702998","201.78","9","46","","",""
"","","","","","html-keyboard-response","110","352651","0.0-13.0-1.9","63d94906463da95ed3d8e627","64d3ef96556dbe1f0e02b5aa","64db812ba6828320f065cd41","","","","","","","","","","","","","","","","","","","","","","","","353.00961897171203","229.99726588529813","2991.2999999523163","","","","","","","","","","","","",""
"","","","","","html-keyboard-response","110","352651","0.0-13.0-1.9","63d94906463da95ed3d8e627","64d3ef96556dbe1f0e02b5aa","64db812ba6828320f065cd41","","","","","","","","","","","","","","","","","","reconstruct","","","","","","353.00961897171203","229.99726588529813","2991.2999999523163","","","","","","","","","","46","4","500","350"
"","","","","","html-keyboard-response","111","355667","0.0-13.0-0.10","63d94906463da95ed3d8e627","64d3ef96556dbe1f0e02b5aa","64db812ba6828320f065cd41","","null","","","","","","","","","","","","","null","","","fallScene","","","","","","","","","","","","true","26.42767399999907","604.4000000000001","575.4211431702997","266.76","12","47","","",""
"","","","","","html-keyboard-response","112","361230","0.0-13.0-1.10","63d94906463da95ed3d8e627","64d3ef96556dbe1f0e02b5aa","64db812ba6828320f065cd41","","","","","","","","","","","","","","","","","","","","","","","","342.9901748629057","315.9981380974574","5551.399999976158","","","","","","","","","","","","",""
"","","","","","html-keyboard-response","112","361230","0.0-13.0-1.10","63d94906463da95ed3d8e627","64d3ef96556dbe1f0e02b5aa","64db812ba6828320f065cd41","","","","","","","","","","","","","","","","","","reconstruct","","","","","","342.9901748629057","315.9981380974574","5551.399999976158","","","","","","","","","","47","1","375","250"
"","","","","","html-keyboard-response","113","364254","0.0-13.0-0.11","63d94906463da95ed3d8e627","64d3ef96556dbe1f0e02b5aa","64db812ba6828320f065cd41","","null","","","","","","","","","","","","","null","","","fallScene","","","","","","","","","","","","false","15.49814999999944","604.4000000000001","596.8711431702998","394.5","10","48","","",""
"","","","","","html-keyboard-response","114","368269","0.0-13.0-1.11","63d94906463da95ed3d8e627","64d3ef96556dbe1f0e02b5aa","64db812ba6828320f065cd41","","","","","","","","","","","","","","","","","","","","","","","","642.0056328948891","343.00826259615184","4013.2999999523163","","","","","","","","","","","","",""
"","","","","","html-keyboard-response","114","368269","0.0-13.0-1.11","63d94906463da95ed3d8e627","64d3ef96556dbe1f0e02b5aa","64db812ba6828320f065cd41","","","","","","","","","","","","","","","","","","reconstruct","","","","","","642.0056328948891","343.00826259615184","4013.2999999523163","","","","","","","","","","48","1","375","250"
"","","","","","html-keyboard-response","115","371275","0.0-13.0-0.12","63d94906463da95ed3d8e627","64d3ef96556dbe1f0e02b5aa","64db812ba6828320f065cd41","","null","","","","","","","","","","","","","null","","","fallScene","","","","","","","","","","","","true","24.795023999999742","322.3","296.07114317029976","371.46","3","49","","",""
"","","","","","html-keyboard-response","116","375070","0.0-13.0-1.12","63d94906463da95ed3d8e627","64d3ef96556dbe1f0e02b5aa","64db812ba6828320f065cd41","","","","","","","","","","","","","","","","","","","","","","","","710.9906255907706","329.9965185561043","3794.5","","","","","","","","","","","","",""
"","","","","","html-keyboard-response","116","375070","0.0-13.0-1.12","63d94906463da95ed3d8e627","64d3ef96556dbe1f0e02b5aa","64db812ba6828320f065cd41","","","","","","","","","","","","","","","","","","reconstruct","","","","","","710.9906255907706","329.9965185561043","3794.5","","","","","","","","","","49","5","625","250"
"","","","","","html-keyboard-response","117","378079","0.0-13.0-0.13","63d94906463da95ed3d8e627","64d3ef96556dbe1f0e02b5aa","64db812ba6828320f065cd41","","null","","","","","","","","","","","","","null","","","fallScene","","","","","","","","","","","","false","26.24487500000105","604.4000000000001","667.6211431702998","201.78","9","50","","",""
"","","","","","html-keyboard-response","118","381022","0.0-13.0-1.13","63d94906463da95ed3d8e627","64d3ef96556dbe1f0e02b5aa","64db812ba6828320f065cd41","","","","","","","","","","","","","","","","","","","","","","","","682.9900000183173","326.9999808598008","2942.1999999284744","","","","","","","","","","","","",""
"","","","","","html-keyboard-response","118","381023","0.0-13.0-1.13","63d94906463da95ed3d8e627","64d3ef96556dbe1f0e02b5aa","64db812ba6828320f065cd41","","","","","","","","","","","","","","","","","","reconstruct","","","","","","682.9900000183173","326.9999808598008","2942.1999999284744","","","","","","","","","","50","2","375","350"
"","","","","","html-keyboard-response","119","384029","0.0-13.0-0.14","63d94906463da95ed3d8e627","64d3ef96556dbe1f0e02b5aa","64db812ba6828320f065cd41","","null","","","","","","","","","","","","","null","","","fallScene","","","","","","","","","","","","true","26.422239999999757","604.4000000000001","667.6211431702998","201.78","9","51","","",""
"","","","","","html-keyboard-response","120","387133","0.0-13.0-1.14","63d94906463da95ed3d8e627","64d3ef96556dbe1f0e02b5aa","64db812ba6828320f065cd41","","","","","","","","","","","","","","","","","","","","","","","","338.00999950007883","245.0000999908663","3103.3000000715256","","","","","","","","","","","","",""
"","","","","","html-keyboard-response","120","387133","0.0-13.0-1.14","63d94906463da95ed3d8e627","64d3ef96556dbe1f0e02b5aa","64db812ba6828320f065cd41","","","","","","","","","","","","","","","","","","reconstruct","","","","","","338.00999950007883","245.0000999908663","3103.3000000715256","","","","","","","","","","51","6","625","350"
"","","","","","html-keyboard-response","121","390146","0.0-13.0-0.15","63d94906463da95ed3d8e627","64d3ef96556dbe1f0e02b5aa","64db812ba6828320f065cd41","","null","","","","","","","","","","","","","null","","","fallScene","","","","","","","","","","","","true","23.761484000000173","500","510.8711431702997","369.03","8","52","","",""
"","","","","","html-keyboard-response","122","393333","0.0-13.0-1.15","63d94906463da95ed3d8e627","64d3ef96556dbe1f0e02b5aa","64db812ba6828320f065cd41","","","","","","","","","","","","","","","","","","","","","","","","484.9999019828566","306.99000048037954","3186.1999999284744","","","","","","","","","","","","",""
"","","","","","html-keyboard-response","122","393333","0.0-13.0-1.15","63d94906463da95ed3d8e627","64d3ef96556dbe1f0e02b5aa","64db812ba6828320f065cd41","","","","","","","","","","","","","","","","","","reconstruct","","","","","","484.9999019828566","306.99000048037954","3186.1999999284744","","","","","","","","","","52","5","625","250"
"","","","","","html-keyboard-response","123","396342","0.0-13.0-0.16","63d94906463da95ed3d8e627","64d3ef96556dbe1f0e02b5aa","64db812ba6828320f065cd41","","null","","","","","","","","","","","","","null","","","fallScene","","","","","","","","","","","","false","20.001879999999655","322.3","379.3711431702997","245.25","1","53","","",""
"","","","","","html-keyboard-response","124","400310","0.0-13.0-1.16","63d94906463da95ed3d8e627","64d3ef96556dbe1f0e02b5aa","64db812ba6828320f065cd41","","","","","","","","","","","","","","","","","","","","","","","","325.9954558911545","212.99109207797517","3966.5","","","","","","","","","","","","",""
"","","","","","html-keyboard-response","124","400310","0.0-13.0-1.16","63d94906463da95ed3d8e627","64d3ef96556dbe1f0e02b5aa","64db812ba6828320f065cd41","","","","","","","","","","","","","","","","","","reconstruct","","","","","","325.9954558911545","212.99109207797517","3966.5","","","","","","","","","","53","6","625","350"
"","","","","","html-keyboard-response","125","403324","0.0-13.0-0.17","63d94906463da95ed3d8e627","64d3ef96556dbe1f0e02b5aa","64db812ba6828320f065cd41","","null","","","","","","","","","","","","","null","","","fallScene","","","","","","","","","","","","false","23.374002999999966","604.4000000000001","650.0211431702996","404.58000000000004","11","54","","",""
"","","","","","html-keyboard-response","126","406204","0.0-13.0-1.17","63d94906463da95ed3d8e627","64d3ef96556dbe1f0e02b5aa","64db812ba6828320f065cd41","","","","","","","","","","","","","","","","","","","","","","","","655.0039468777703","304.00918815301713","2878.7000000476837","","","","","","","","","","","","",""
"","","","","","html-keyboard-response","126","406204","0.0-13.0-1.17","63d94906463da95ed3d8e627","64d3ef96556dbe1f0e02b5aa","64db812ba6828320f065cd41","","","","","","","","","","","","","","","","","","reconstruct","","","","","","655.0039468777703","304.00918815301713","2878.7000000476837","","","","","","","","","","54","1","375","250"
"","","","","","html-button-response","127","407466","0.0-14.0","63d94906463da95ed3d8e627","64d3ef96556dbe1f0e02b5aa","64db812ba6828320f065cd41","","1255","","","","","","","","","","","","","0","","","","<p><span style = ""font-size:40px;"">BREAK</span></p><p>You are almost done! Click 'Next' when you are ready for the next set.</p>","","","","","","","","","","","","","","","","","","","",""
"","","","","","html-keyboard-response","128","410471","0.0-15.0-0.0","63d94906463da95ed3d8e627","64d3ef96556dbe1f0e02b5aa","64db812ba6828320f065cd41","","null","","","","","","","","","","","","","null","","","fallScene","","","","","","","","","","","","true","26.24812499999971","604.4000000000001","596.8711431702998","394.5","10","55","","",""
"","","","","","html-keyboard-response","129","413773","0.0-15.0-1.0","63d94906463da95ed3d8e627","64d3ef96556dbe1f0e02b5aa","64db812ba6828320f065cd41","","","","","","","","","","","","","","","","","","","","","","","","355.990248401757","262.9977849759128","3301.2999999523163","","","","","","","","","","","","",""
"","","","","","html-keyboard-response","129","413774","0.0-15.0-1.0","63d94906463da95ed3d8e627","64d3ef96556dbe1f0e02b5aa","64db812ba6828320f065cd41","","","","","","","","","","","","","","","","","","reconstruct","","","","","","355.990248401757","262.9977849759128","3301.2999999523163","","","","","","","","","","55","4","500","350"
"","","","","","html-keyboard-response","130","416788","0.0-15.0-0.1","63d94906463da95ed3d8e627","64d3ef96556dbe1f0e02b5aa","64db812ba6828320f065cd41","","null","","","","","","","","","","","","","null","","","fallScene","","","","","","","","","","","","false","24.7905839999998","322.3","308.07114317029976","253.89","2","56","","",""
"","","","","","html-keyboard-response","131","420374","0.0-15.0-1.1","63d94906463da95ed3d8e627","64d3ef96556dbe1f0e02b5aa","64db812ba6828320f065cd41","","","","","","","","","","","","","","","","","","","","","","","","323.00971154866363","334.99761550371056","3584.6999999284744","","","","","","","","","","","","",""
"","","","","","html-keyboard-response","131","420374","0.0-15.0-1.1","63d94906463da95ed3d8e627","64d3ef96556dbe1f0e02b5aa","64db812ba6828320f065cd41","","","","","","","","","","","","","","","","","","reconstruct","","","","","","323.00971154866363","334.99761550371056","3584.6999999284744","","","","","","","","","","56","1","375","250"
"","","","","","html-keyboard-response","132","423390","0.0-15.0-0.2","63d94906463da95ed3d8e627","64d3ef96556dbe1f0e02b5aa","64db812ba6828320f065cd41","","null","","","","","","","","","","","","","null","","","fallScene","","","","","","","","","","","","false","23.76005800000072","604.4000000000001","650.0211431702996","404.58000000000004","11","57","","",""
"","","","","","html-keyboard-response","133","426782","0.0-15.0-1.2","63d94906463da95ed3d8e627","64d3ef96556dbe1f0e02b5aa","64db812ba6828320f065cd41","","","","","","","","","","","","","","","","","","","","","","","","660.0099450438058","321.00104694971196","3390.5999999046326","","","","","","","","","","","","",""
"","","","","","html-keyboard-response","133","426782","0.0-15.0-1.2","63d94906463da95ed3d8e627","64d3ef96556dbe1f0e02b5aa","64db812ba6828320f065cd41","","","","","","","","","","","","","","","","","","reconstruct","","","","","","660.0099450438058","321.00104694971196","3390.5999999046326","","","","","","","","","","57","4","500","350"
"","","","","","html-keyboard-response","134","429788","0.0-15.0-0.3","63d94906463da95ed3d8e627","64d3ef96556dbe1f0e02b5aa","64db812ba6828320f065cd41","","null","","","","","","","","","","","","","null","","","fallScene","","","","","","","","","","","","true","23.0887140000005","500","479.92114317029973","330.87","6","58","","",""
"","","","","","html-keyboard-response","135","433693","0.0-15.0-1.3","63d94906463da95ed3d8e627","64d3ef96556dbe1f0e02b5aa","64db812ba6828320f065cd41","","","","","","","","","","","","","","","","","","","","","","","","481.99285333481333","258.0069946534374","3904.2000000476837","","","","","","","","","","","","",""
"","","","","","html-keyboard-response","135","433694","0.0-15.0-1.3","63d94906463da95ed3d8e627","64d3ef96556dbe1f0e02b5aa","64db812ba6828320f065cd41","","","","","","","","","","","","","","","","","","reconstruct","","","","","","481.99285333481333","258.0069946534374","3904.2000000476837","","","","","","","","","","58","2","375","350"
"","","","","","html-keyboard-response","136","436701","0.0-15.0-0.4","63d94906463da95ed3d8e627","64d3ef96556dbe1f0e02b5aa","64db812ba6828320f065cd41","","null","","","","","","","","","","","","","null","","","fallScene","","","","","","","","","","","","false","23.09927400000009","604.4000000000001","650.0211431702996","404.58000000000004","11","59","","",""
"","","","","","html-keyboard-response","137","440062","0.0-15.0-1.4","63d94906463da95ed3d8e627","64d3ef96556dbe1f0e02b5aa","64db812ba6828320f065cd41","","","","","","","","","","","","","","","","","","","","","","","","662.009497902579","348.99687112694414","3359.7999999523163","","","","","","","","","","","","",""
"","","","","","html-keyboard-response","137","440062","0.0-15.0-1.4","63d94906463da95ed3d8e627","64d3ef96556dbe1f0e02b5aa","64db812ba6828320f065cd41","","","","","","","","","","","","","","","","","","reconstruct","","","","","","662.009497902579","348.99687112694414","3359.7999999523163","","","","","","","","","","59","3","500","250"
"","","","","","html-keyboard-response","138","443073","0.0-15.0-0.5","63d94906463da95ed3d8e627","64d3ef96556dbe1f0e02b5aa","64db812ba6828320f065cd41","","null","","","","","","","","","","","","","null","","","fallScene","","","","","","","","","","","","true","23.755872000000032","500","510.8711431702997","369.03","8","60","","",""
"","","","","","html-keyboard-response","139","448584","0.0-15.0-1.5","63d94906463da95ed3d8e627","64d3ef96556dbe1f0e02b5aa","64db812ba6828320f065cd41","","","","","","","","","","","","","","","","","","","","","","","","444.01010016285284","290.0099094942249","5510.299999952316","","","","","","","","","","","","",""
"","","","","","html-keyboard-response","139","448584","0.0-15.0-1.5","63d94906463da95ed3d8e627","64d3ef96556dbe1f0e02b5aa","64db812ba6828320f065cd41","","","","","","","","","","","","","","","","","","reconstruct","","","","","","444.01010016285284","290.0099094942249","5510.299999952316","","","","","","","","","","60","4","500","350"
"","","","","","html-keyboard-response","140","451604","0.0-15.0-0.6","63d94906463da95ed3d8e627","64d3ef96556dbe1f0e02b5aa","64db812ba6828320f065cd41","","null","","","","","","","","","","","","","null","","","fallScene","","","","","","","","","","","","false","24.139005999999934","322.3","356.42114317029973","357.87","4","61","","",""
"","","","","","html-keyboard-response","141","455910","0.0-15.0-1.6","63d94906463da95ed3d8e627","64d3ef96556dbe1f0e02b5aa","64db812ba6828320f065cd41","","","","","","","","","","","","","","","","","","","","","","","","343.0019887479242","374.99396954095306","4305.100000023842","","","","","","","","","","","","",""
"","","","","","html-keyboard-response","141","455910","0.0-15.0-1.6","63d94906463da95ed3d8e627","64d3ef96556dbe1f0e02b5aa","64db812ba6828320f065cd41","","","","","","","","","","","","","","","","","","reconstruct","","","","","","343.0019887479242","374.99396954095306","4305.100000023842","","","","","","","","","","61","3","500","250"
"","","","","","html-keyboard-response","142","458917","0.0-15.0-0.7","63d94906463da95ed3d8e627","64d3ef96556dbe1f0e02b5aa","64db812ba6828320f065cd41","","null","","","","","","","","","","","","","null","","","fallScene","","","","","","","","","","","","true","21.352505999999238","322.3","379.3711431702997","245.25","1","62","","",""
"","","","","","html-keyboard-response","143","461838","0.0-15.0-1.7","63d94906463da95ed3d8e627","64d3ef96556dbe1f0e02b5aa","64db812ba6828320f065cd41","","","","","","","","","","","","","","","","","","","","","","","","703.9948808253397","288.0085903463724","2920.2999999523163","","","","","","","","","","","","",""
"","","","","","html-keyboard-response","143","461838","0.0-15.0-1.7","63d94906463da95ed3d8e627","64d3ef96556dbe1f0e02b5aa","64db812ba6828320f065cd41","","","","","","","","","","","","","","","","","","reconstruct","","","","","","703.9948808253397","288.0085903463724","2920.2999999523163","","","","","","","","","","62","3","500","250"
"","","","","","html-keyboard-response","144","464848","0.0-15.0-0.8","63d94906463da95ed3d8e627","64d3ef96556dbe1f0e02b5aa","64db812ba6828320f065cd41","","null","","","","","","","","","","","","","null","","","fallScene","","","","","","","","","","","","false","21.345345000000144","322.3","379.3711431702997","245.25","1","63","","",""
"","","","","","html-keyboard-response","145","468014","0.0-15.0-1.8","63d94906463da95ed3d8e627","64d3ef96556dbe1f0e02b5aa","64db812ba6828320f065cd41","","","","","","","","","","","","","","","","","","","","","","","","330.00999895667695","274.00014444850984","3165.2999999523163","","","","","","","","","","","","",""
"","","","","","html-keyboard-response","145","468014","0.0-15.0-1.8","63d94906463da95ed3d8e627","64d3ef96556dbe1f0e02b5aa","64db812ba6828320f065cd41","","","","","","","","","","","","","","","","","","reconstruct","","","","","","330.00999895667695","274.00014444850984","3165.2999999523163","","","","","","","","","","63","1","375","250"
"","","","","","html-keyboard-response","146","471028","0.0-15.0-0.9","63d94906463da95ed3d8e627","64d3ef96556dbe1f0e02b5aa","64db812ba6828320f065cd41","","null","","","","","","","","","","","","","null","","","fallScene","","","","","","","","","","","","true","22.737154000000913","322.3","308.07114317029976","253.89","2","64","","",""
"","","","","","html-keyboard-response","147","474765","0.0-15.0-1.9","63d94906463da95ed3d8e627","64d3ef96556dbe1f0e02b5aa","64db812ba6828320f065cd41","","","","","","","","","","","","","","","","","","","","","","","","734.0006246163606","276.9900195263438","3735.7999999523163","","","","","","","","","","","","",""
"","","","","","html-keyboard-response","147","474765","0.0-15.0-1.9","63d94906463da95ed3d8e627","64d3ef96556dbe1f0e02b5aa","64db812ba6828320f065cd41","","","","","","","","","","","","","","","","","","reconstruct","","","","","","734.0006246163606","276.9900195263438","3735.7999999523163","","","","","","","","","","64","5","625","250"
"","","","","","html-keyboard-response","148","477776","0.0-15.0-0.10","63d94906463da95ed3d8e627","64d3ef96556dbe1f0e02b5aa","64db812ba6828320f065cd41","","null","","","","","","","","","","","","","null","","","fallScene","","","","","","","","","","","","true","22.72555999999959","322.3","356.42114317029973","357.87","4","65","","",""
"","","","","","html-keyboard-response","149","480877","0.0-15.0-1.10","63d94906463da95ed3d8e627","64d3ef96556dbe1f0e02b5aa","64db812ba6828320f065cd41","","","","","","","","","","","","","","","","","","","","","","","","632.9906738834843","277.003608815697","3100.0999999046326","","","","","","","","","","","","",""
"","","","","","html-keyboard-response","149","480877","0.0-15.0-1.10","63d94906463da95ed3d8e627","64d3ef96556dbe1f0e02b5aa","64db812ba6828320f065cd41","","","","","","","","","","","","","","","","","","reconstruct","","","","","","632.9906738834843","277.003608815697","3100.0999999046326","","","","","","","","","","65","2","375","350"
"","","","","","html-keyboard-response","150","483896","0.0-15.0-0.11","63d94906463da95ed3d8e627","64d3ef96556dbe1f0e02b5aa","64db812ba6828320f065cd41","","null","","","","","","","","","","","","","null","","","fallScene","","","","","","","","","","","","false","20.323240000000222","500","553.4711431702997","282.51","7","66","","",""
"","","","","","html-keyboard-response","151","487438","0.0-15.0-1.11","63d94906463da95ed3d8e627","64d3ef96556dbe1f0e02b5aa","64db812ba6828320f065cd41","","","","","","","","","","","","","","","","","","","","","","","","503.0099991419457","357.99986900248166","3541.100000023842","","","","","","","","","","","","",""
"","","","","","html-keyboard-response","151","487438","0.0-15.0-1.11","63d94906463da95ed3d8e627","64d3ef96556dbe1f0e02b5aa","64db812ba6828320f065cd41","","","","","","","","","","","","","","","","","","reconstruct","","","","","","503.0099991419457","357.99986900248166","3541.100000023842","","","","","","","","","","66","6","625","350"
"","","","","","html-keyboard-response","152","490462","0.0-15.0-0.12","63d94906463da95ed3d8e627","64d3ef96556dbe1f0e02b5aa","64db812ba6828320f065cd41","","null","","","","","","","","","","","","","null","","","fallScene","","","","","","","","","","","","false","20.329459999999962","322.3","308.07114317029976","253.89","2","67","","",""
"","","","","","html-keyboard-response","153","493669","0.0-15.0-1.12","63d94906463da95ed3d8e627","64d3ef96556dbe1f0e02b5aa","64db812ba6828320f065cd41","","","","","","","","","","","","","","","","","","","","","","","","271.00869191925085","305.9950552512969","3206","","","","","","","","","","","","",""
"","","","","","html-keyboard-response","153","493669","0.0-15.0-1.12","63d94906463da95ed3d8e627","64d3ef96556dbe1f0e02b5aa","64db812ba6828320f065cd41","","","","","","","","","","","","","","","","","","reconstruct","","","","","","271.00869191925085","305.9950552512969","3206","","","","","","","","","","67","3","500","250"
"","","","","","html-keyboard-response","154","496676","0.0-15.0-0.13","63d94906463da95ed3d8e627","64d3ef96556dbe1f0e02b5aa","64db812ba6828320f065cd41","","null","","","","","","","","","","","","","null","","","fallScene","","","","","","","","","","","","false","20.657800000000282","322.3","356.42114317029973","357.87","4","68","","",""
"","","","","","html-keyboard-response","155","500646","0.0-15.0-1.13","63d94906463da95ed3d8e627","64d3ef96556dbe1f0e02b5aa","64db812ba6828320f065cd41","","","","","","","","","","","","","","","","","","","","","","","","316.0099938629446","364.00035029051395","3968.2000000476837","","","","","","","","","","","","",""
"","","","","","html-keyboard-response","155","500646","0.0-15.0-1.13","63d94906463da95ed3d8e627","64d3ef96556dbe1f0e02b5aa","64db812ba6828320f065cd41","","","","","","","","","","","","","","","","","","reconstruct","","","","","","316.0099938629446","364.00035029051395","3968.2000000476837","","","","","","","","","","68","1","375","250"
"","","","","","html-keyboard-response","156","503672","0.0-15.0-0.14","63d94906463da95ed3d8e627","64d3ef96556dbe1f0e02b5aa","64db812ba6828320f065cd41","","null","","","","","","","","","","","","","null","","","fallScene","","","","","","","","","","","","true","20.662939999999942","500","510.8711431702997","369.03","8","69","","",""
"","","","","","html-keyboard-response","157","507869","0.0-15.0-1.14","63d94906463da95ed3d8e627","64d3ef96556dbe1f0e02b5aa","64db812ba6828320f065cd41","","","","","","","","","","","","","","","","","","","","","","","","446.99826587638285","302.00984849304615","4195.600000023842","","","","","","","","","","","","",""
"","","","","","html-keyboard-response","157","507870","0.0-15.0-1.14","63d94906463da95ed3d8e627","64d3ef96556dbe1f0e02b5aa","64db812ba6828320f065cd41","","","","","","","","","","","","","","","","","","reconstruct","","","","","","446.99826587638285","302.00984849304615","4195.600000023842","","","","","","","","","","69","2","375","350"
"","","","","","html-keyboard-response","158","510876","0.0-15.0-0.15","63d94906463da95ed3d8e627","64d3ef96556dbe1f0e02b5aa","64db812ba6828320f065cd41","","null","","","","","","","","","","","","","null","","","fallScene","","","","","","","","","","","","false","15.996480000000448","500","479.92114317029973","330.87","6","70","","",""
"","","","","","html-keyboard-response","159","514181","0.0-15.0-1.15","63d94906463da95ed3d8e627","64d3ef96556dbe1f0e02b5aa","64db812ba6828320f065cd41","","","","","","","","","","","","","","","","","","","","","","","","446.0094331916884","259.00331886947174","3304.8000000715256","","","","","","","","","","","","",""
"","","","","","html-keyboard-response","159","514181","0.0-15.0-1.15","63d94906463da95ed3d8e627","64d3ef96556dbe1f0e02b5aa","64db812ba6828320f065cd41","","","","","","","","","","","","","","","","","","reconstruct","","","","","","446.0094331916884","259.00331886947174","3304.8000000715256","","","","","","","","","","70","4","500","350"
"","","","","","html-keyboard-response","160","517190","0.0-15.0-0.16","63d94906463da95ed3d8e627","64d3ef96556dbe1f0e02b5aa","64db812ba6828320f065cd41","","null","","","","","","","","","","","","","null","","","fallScene","","","","","","","","","","","","false","18.29644199999969","604.4000000000001","650.0211431702996","404.58000000000004","11","71","","",""
"","","","","","html-keyboard-response","161","520206","0.0-15.0-1.16","63d94906463da95ed3d8e627","64d3ef96556dbe1f0e02b5aa","64db812ba6828320f065cd41","","","","","","","","","","","","","","","","","","","","","","","","644.9976814288553","289.0097274985401","3015.100000023842","","","","","","","","","","","","",""
"","","","","","html-keyboard-response","161","520206","0.0-15.0-1.16","63d94906463da95ed3d8e627","64d3ef96556dbe1f0e02b5aa","64db812ba6828320f065cd41","","","","","","","","","","","","","","","","","","reconstruct","","","","","","644.9976814288553","289.0097274985401","3015.100000023842","","","","","","","","","","71","2","375","350"
"","","","","","html-keyboard-response","162","523212","0.0-15.0-0.17","63d94906463da95ed3d8e627","64d3ef96556dbe1f0e02b5aa","64db812ba6828320f065cd41","","null","","","","","","","","","","","","","null","","","fallScene","","","","","","","","","","","","false","19.945249999999998","604.4000000000001","575.4211431702997","266.76","12","72","","",""
"","","","","","html-keyboard-response","163","526438","0.0-15.0-1.17","63d94906463da95ed3d8e627","64d3ef96556dbe1f0e02b5aa","64db812ba6828320f065cd41","","","","","","","","","","","","","","","","","","","","","","","","569.0098403426578","328.00177979110526","3225.100000023842","","","","","","","","","","","","",""
"","","","","","html-keyboard-response","163","526438","0.0-15.0-1.17","63d94906463da95ed3d8e627","64d3ef96556dbe1f0e02b5aa","64db812ba6828320f065cd41","","","","","","","","","","","","","","","","","","reconstruct","","","","","","569.0098403426578","328.00177979110526","3225.100000023842","","","","","","","","","","72","5","625","250"
"","","","","","survey-text","164","559075","0.0-16.0","63d94906463da95ed3d8e627","64d3ef96556dbe1f0e02b5aa","64db812ba6828320f065cd41","","32617","","","","","","","","","","","","","{""Summary"":""I placed a triangle in a place where I thought a ball had rolled off of.""}","","","","","","","","","","","","","","","","","","","","","","","",""
"","","","","","survey-text","165","560682","0.0-17.0","63d94906463da95ed3d8e627","64d3ef96556dbe1f0e02b5aa","64db812ba6828320f065cd41","","1588","","","","","","","","","","","","","{""Comments"":""""}","","","","","","","","","","","","","","","","","","","","","","","",""
