"success","timeout","failed_images","failed_audio","failed_video","trial_type","trial_index","time_elapsed","internal_node_id","subject_id","study_id","session_id","view_history","rt","width","height","webaudio","browser","browser_version","mobile","os","fullscreen","vsync_rate","webcam","microphone","url","response","triangle_prac_final_x","triangle_prac_final_y","trial_name","stimulus","ball_X_prac_occ","ball_Y_prac_occ","obstacle_X_prac_occ","obstacle_Y_prac_occ","triangle_final_x","triangle_final_y","response_time","obstacle_X_prac_occ_init","obstacle_Y_prac_occ_init","question_order","comprehensionCheck","flipped","runnerFPS","ball_X","obstacle_groundTruth_x","obstacle_groundTruth_y","stimulus_idx","currentTrial","obstacle_idx","obstacle_initial_x","obstacle_initial_y"
"true","false","[]","[]","[]","preload","0","140","0.0-0.0","63eac01fdd7ce6b0923a36e2","64d3ef96556dbe1f0e02b5aa","64da63f7e55b62d438ba8b51","","","","","","","","","","","","","","","","","","","","","","","","","","","","","","","","","","","","","","","",""
"","","","","","instructions","1","6211","0.0-1.0","63eac01fdd7ce6b0923a36e2","64d3ef96556dbe1f0e02b5aa","64da63f7e55b62d438ba8b51","[{""page_index"":0,""viewing_time"":6072}]","6072","","","","","","","","","","","","","","","","","","","","","","","","","","","","","","","","","","","","","",""
"","","","","","browser-check","2","6624","0.0-2.0","63eac01fdd7ce6b0923a36e2","64d3ef96556dbe1f0e02b5aa","64da63f7e55b62d438ba8b51","","","1920","1013","true","chrome","115.0.0","false","Windows 10","true","145.99","false","true","","","","","","","","","","","","","","","","","","","","","","","","","","",""
"","","","","","external-html","3","8952","0.0-3.0","63eac01fdd7ce6b0923a36e2","64d3ef96556dbe1f0e02b5aa","64da63f7e55b62d438ba8b51","","2198","","","","","","","","","","","","consent.html","","","","","","","","","","","","","","","","","","","","","","","","","",""
"true","","","","","fullscreen","4","44094","0.0-4.0","63eac01fdd7ce6b0923a36e2","64d3ef96556dbe1f0e02b5aa","64da63f7e55b62d438ba8b51","","34629","","","","","","","","","","","","","","","","","","","","","","","","","","","","","","","","","","","","","",""
"","","","","","survey-text","5","49162","0.0-5.0","63eac01fdd7ce6b0923a36e2","64d3ef96556dbe1f0e02b5aa","64da63f7e55b62d438ba8b51","","5066","","","","","","","","","","","","","{""prolificID"":""63eac01fdd7ce6b0923a36e2""}","","","","","","","","","","","","","","","","","","","","","","","","",""
"","","","","","browser-check","6","49572","0.0-6.0","63eac01fdd7ce6b0923a36e2","64d3ef96556dbe1f0e02b5aa","64da63f7e55b62d438ba8b51","","","1920","1080","true","chrome","115.0.0","false","Windows 10","true","146.7","false","true","","","","","","","","","","","","","","","","","","","","","","","","","","",""
"","","","","","instructions","7","67647","0.0-7.0-0.0-0.0","63eac01fdd7ce6b0923a36e2","64d3ef96556dbe1f0e02b5aa","64da63f7e55b62d438ba8b51","[{""page_index"":0,""viewing_time"":7617},{""page_index"":1,""viewing_time"":1252},{""page_index"":2,""viewing_time"":5872},{""page_index"":3,""viewing_time"":3334}]","18075","","","","","","","","","","","","","","","","","","","","","","","","","","","","","","","","","","","","","",""
"","","","","","html-keyboard-response","8","90389","0.0-7.0-0.0-1.0","63eac01fdd7ce6b0923a36e2","64d3ef96556dbe1f0e02b5aa","64da63f7e55b62d438ba8b51","","","","","","","","","","","","","","","","33.99160915059416","582.9945599957492","","","","","","","","","","","","","","","","","","","","","","",""
"","","","","","html-keyboard-response","8","90389","0.0-7.0-0.0-1.0","63eac01fdd7ce6b0923a36e2","64d3ef96556dbe1f0e02b5aa","64da63f7e55b62d438ba8b51","","","","","","","","","","","","","","","","","","practiceTrial_move","","","","","","","","","","","","","","","","","","","","","",""
"","","","","","html-button-response","9","92487","0.0-7.0-0.0-2.0","63eac01fdd7ce6b0923a36e2","64d3ef96556dbe1f0e02b5aa","64da63f7e55b62d438ba8b51","","2095","","","","","","","","","","","","","0","","","","<p>To help you get more comfortable with the task, let's begin with a practice trial first!</p><p>As described previously, you will first see a video of a ball falling, some of it behind a gray screen.</p><p>After the video, you will drag a triangle to the spot you think the ball hit the triangle behind the screen.</p><p>Click 'Next' to start your practice trial.</p>","","","","","","","","","","","","","","","","","","","","",""
"","","","","","html-keyboard-response","10","95495","0.0-7.0-0.0-3.0","63eac01fdd7ce6b0923a36e2","64d3ef96556dbe1f0e02b5aa","64da63f7e55b62d438ba8b51","","null","","","","","","","","","","","","","null","","","fallScene_practiceTrial_withOccluder","","400","50","420","415","","","","","","","","","","","","","","","","",""
"","","","","","html-keyboard-response","11","98193","0.0-7.0-0.0-4.0","63eac01fdd7ce6b0923a36e2","64d3ef96556dbe1f0e02b5aa","64da63f7e55b62d438ba8b51","","","","","","","","","","","","","","","","","","","","","","","","341.9998999935872","377.99000050007663","2702","","","","","","","","","","","","","",""
"","","","","","html-keyboard-response","11","98193","0.0-7.0-0.0-4.0","63eac01fdd7ce6b0923a36e2","64d3ef96556dbe1f0e02b5aa","64da63f7e55b62d438ba8b51","","","","","","","","","","","","","","","","","","reconstruct_practiceTrial_withOccluder","","","","","","341.9998999935872","377.99000050007663","2702","500","300","","","","","","","","","","","",""
"","","","","","html-button-response","12","99803","0.0-7.0-0.0-5.0","63eac01fdd7ce6b0923a36e2","64d3ef96556dbe1f0e02b5aa","64da63f7e55b62d438ba8b51","","1609","","","","","","","","","","","","","1","","","","<p>Ok! We're almost ready to get started.</p><p>We just have a <b>brief quiz</b>, to make sure you understood the task.</p><p>If you need to review the instructions, click 'Previous'.</p><p>It's important to understand the task to do the study, so you have to pass the quiz to move to the study.</p>","","","","","","","","","","","","","","","","","","","","",""
"","","","","","survey-multi-choice","13","129503","0.0-7.0-1.0-0.0","63eac01fdd7ce6b0923a36e2","64d3ef96556dbe1f0e02b5aa","64da63f7e55b62d438ba8b51","","29699","","","","","","","","","","","","","{""generalProcedure"":""Watch a video of a ball falling, some of it behind a gray screen. After each video, drag a triangle to where I think the ball hit the triangle behind the screen.""}","","","","","","","","","","","","","","[0]","","","","","","","","","","",""
"","","","","","survey-multi-choice","14","133112","0.0-7.0-1.0-1.0","63eac01fdd7ce6b0923a36e2","64d3ef96556dbe1f0e02b5aa","64da63f7e55b62d438ba8b51","","3606","","","","","","","","","","","","","{""checkBallHitObstacle"":""I am not sure.""}","","","","","","","","","","","","","","[0]","","","","","","","","","","",""
"","","","","","survey-multi-choice","15","136831","0.0-7.0-1.0-2.0","63eac01fdd7ce6b0923a36e2","64d3ef96556dbe1f0e02b5aa","64da63f7e55b62d438ba8b51","","3718","","","","","","","","","","","","","{""checkTriangleVisibility"":""No, the triangle is hidden behind the gray screen.""}","","","","","","","","","","","","","","[0]","","","","","","","","","","",""
"","","","","","html-button-response","16","138400","0.0-7.0-2.0-0.0","63eac01fdd7ce6b0923a36e2","64d3ef96556dbe1f0e02b5aa","64da63f7e55b62d438ba8b51","","1567","","","","","","","","","","","","","0","","","","<p>Oops! You did not pass the quiz.</p><p>You will now repeat the instructions and practice.</p>","","","","","","","","","","","failed","","","","","","","","","",""
"","","","","","instructions","17","151416","0.0-7.1-0.1-0.1","63eac01fdd7ce6b0923a36e2","64d3ef96556dbe1f0e02b5aa","64da63f7e55b62d438ba8b51","[{""page_index"":0,""viewing_time"":6293},{""page_index"":1,""viewing_time"":2465},{""page_index"":2,""viewing_time"":2081},{""page_index"":3,""viewing_time"":2175}]","13015","","","","","","","","","","","","","","","","","","","","","","","","","","","","","","","","","","","","","",""
"","","","","","html-keyboard-response","18","155083","0.0-7.1-0.1-1.1","63eac01fdd7ce6b0923a36e2","64d3ef96556dbe1f0e02b5aa","64da63f7e55b62d438ba8b51","","","","","","","","","","","","","","","","509.9900002557089","391.0000715130198","","","","","","","","","","","","","","","","","","","","","","",""
"","","","","","html-keyboard-response","18","155083","0.0-7.1-0.1-1.1","63eac01fdd7ce6b0923a36e2","64d3ef96556dbe1f0e02b5aa","64da63f7e55b62d438ba8b51","","","","","","","","","","","","","","","","","","practiceTrial_move","","","","","","","","","","","","","","","","","","","","","",""
"","","","","","html-button-response","19","156578","0.0-7.1-0.1-2.1","63eac01fdd7ce6b0923a36e2","64d3ef96556dbe1f0e02b5aa","64da63f7e55b62d438ba8b51","","1494","","","","","","","","","","","","","0","","","","<p>To help you get more comfortable with the task, let's begin with a practice trial first!</p><p>As described previously, you will first see a video of a ball falling, some of it behind a gray screen.</p><p>After the video, you will drag a triangle to the spot you think the ball hit the triangle behind the screen.</p><p>Click 'Next' to start your practice trial.</p>","","","","","","","","","","","","","","","","","","","","",""
"","","","","","html-keyboard-response","20","159578","0.0-7.1-0.1-3.1","63eac01fdd7ce6b0923a36e2","64d3ef96556dbe1f0e02b5aa","64da63f7e55b62d438ba8b51","","null","","","","","","","","","","","","","null","","","fallScene_practiceTrial_withOccluder","","400","50","420","415","","","","","","","","","","","","","","","","",""
"","","","","","html-keyboard-response","21","161205","0.0-7.1-0.1-4.1","63eac01fdd7ce6b0923a36e2","64d3ef96556dbe1f0e02b5aa","64da63f7e55b62d438ba8b51","","","","","","","","","","","","","","","","","","","","","","","","419.0099934687494","364.00036136180563","1627","","","","","","","","","","","","","",""
"","","","","","html-keyboard-response","21","161205","0.0-7.1-0.1-4.1","63eac01fdd7ce6b0923a36e2","64d3ef96556dbe1f0e02b5aa","64da63f7e55b62d438ba8b51","","","","","","","","","","","","","","","","","","reconstruct_practiceTrial_withOccluder","","","","","","419.0099934687494","364.00036136180563","1627","500","300","","","","","","","","","","","",""
"","","","","","html-button-response","22","162166","0.0-7.1-0.1-5.1","63eac01fdd7ce6b0923a36e2","64d3ef96556dbe1f0e02b5aa","64da63f7e55b62d438ba8b51","","960","","","","","","","","","","","","","1","","","","<p>Ok! We're almost ready to get started.</p><p>We just have a <b>brief quiz</b>, to make sure you understood the task.</p><p>If you need to review the instructions, click 'Previous'.</p><p>It's important to understand the task to do the study, so you have to pass the quiz to move to the study.</p>","","","","","","","","","","","","","","","","","","","","",""
"","","","","","survey-multi-choice","23","164192","0.0-7.1-1.1-0.1","63eac01fdd7ce6b0923a36e2","64d3ef96556dbe1f0e02b5aa","64da63f7e55b62d438ba8b51","","2024","","","","","","","","","","","","","{""generalProcedure"":""Watch a video of a ball falling, some of it behind a gray screen. After each video, drag a triangle to where I think the ball hit the triangle behind the screen.""}","","","","","","","","","","","","","","[0]","","","","","","","","","","",""
"","","","","","survey-multi-choice","24","165474","0.0-7.1-1.1-1.1","63eac01fdd7ce6b0923a36e2","64d3ef96556dbe1f0e02b5aa","64da63f7e55b62d438ba8b51","","1280","","","","","","","","","","","","","{""checkBallHitObstacle"":""Yes.""}","","","","","","","","","","","","","","[0]","","","","","","","","","","",""
"","","","","","survey-multi-choice","25","167664","0.0-7.1-1.1-2.1","63eac01fdd7ce6b0923a36e2","64d3ef96556dbe1f0e02b5aa","64da63f7e55b62d438ba8b51","","2188","","","","","","","","","","","","","{""checkTriangleVisibility"":""No, the triangle is hidden behind the gray screen.""}","","","","","","","","","","","","","","[0]","","","","","","","","","","",""
"","","","","","instructions","26","168376","0.0-8.0","63eac01fdd7ce6b0923a36e2","64d3ef96556dbe1f0e02b5aa","64da63f7e55b62d438ba8b51","[{""page_index"":0,""viewing_time"":710}]","711","","","","","","","","","","","","","","","","","","","","","","","","","","","","","","","","","","","","","",""
"","","","","","html-keyboard-response","27","171384","0.0-9.0-0.0","63eac01fdd7ce6b0923a36e2","64d3ef96556dbe1f0e02b5aa","64da63f7e55b62d438ba8b51","","null","","","","","","","","","","","","","null","","","fallScene","","","","","","","","","","","","","true","144","604.4000000000001","667.6211431702998","201.78","9","1","","",""
"","","","","","html-keyboard-response","28","172983","0.0-9.0-1.0","63eac01fdd7ce6b0923a36e2","64d3ef96556dbe1f0e02b5aa","64da63f7e55b62d438ba8b51","","","","","","","","","","","","","","","","","","","","","","","","413.99999999999983","311.99","1597","","","","","","","","","","","","","",""
"","","","","","html-keyboard-response","28","172983","0.0-9.0-1.0","63eac01fdd7ce6b0923a36e2","64d3ef96556dbe1f0e02b5aa","64da63f7e55b62d438ba8b51","","","","","","","","","","","","","","","","","","reconstruct","","","","","","413.99999999999983","311.99","1597","","","","","","","","","","","1","5","625","250"
"","","","","","html-keyboard-response","29","175988","0.0-9.0-0.1","63eac01fdd7ce6b0923a36e2","64d3ef96556dbe1f0e02b5aa","64da63f7e55b62d438ba8b51","","null","","","","","","","","","","","","","null","","","fallScene","","","","","","","","","","","","","true","144","322.3","379.3711431702997","245.25","1","2","","",""
"","","","","","html-keyboard-response","30","178080","0.0-9.0-1.1","63eac01fdd7ce6b0923a36e2","64d3ef96556dbe1f0e02b5aa","64da63f7e55b62d438ba8b51","","","","","","","","","","","","","","","","","","","","","","","","619.0099971970326","291.9997632480392","2092","","","","","","","","","","","","","",""
"","","","","","html-keyboard-response","30","178080","0.0-9.0-1.1","63eac01fdd7ce6b0923a36e2","64d3ef96556dbe1f0e02b5aa","64da63f7e55b62d438ba8b51","","","","","","","","","","","","","","","","","","reconstruct","","","","","","619.0099971970326","291.9997632480392","2092","","","","","","","","","","","2","2","375","350"
"","","","","","html-keyboard-response","31","181085","0.0-9.0-0.2","63eac01fdd7ce6b0923a36e2","64d3ef96556dbe1f0e02b5aa","64da63f7e55b62d438ba8b51","","null","","","","","","","","","","","","","null","","","fallScene","","","","","","","","","","","","","false","144","322.3","296.07114317029976","371.46","3","3","","",""
"","","","","","html-keyboard-response","32","182811","0.0-9.0-1.2","63eac01fdd7ce6b0923a36e2","64d3ef96556dbe1f0e02b5aa","64da63f7e55b62d438ba8b51","","","","","","","","","","","","","","","","","","","","","","","","293.0099995557222","274.9999057378197","1727","","","","","","","","","","","","","",""
"","","","","","html-keyboard-response","32","182811","0.0-9.0-1.2","63eac01fdd7ce6b0923a36e2","64d3ef96556dbe1f0e02b5aa","64da63f7e55b62d438ba8b51","","","","","","","","","","","","","","","","","","reconstruct","","","","","","293.0099995557222","274.9999057378197","1727","","","","","","","","","","","3","4","500","350"
"","","","","","html-keyboard-response","33","185814","0.0-9.0-0.3","63eac01fdd7ce6b0923a36e2","64d3ef96556dbe1f0e02b5aa","64da63f7e55b62d438ba8b51","","null","","","","","","","","","","","","","null","","","fallScene","","","","","","","","","","","","","false","144","604.4000000000001","667.6211431702998","201.78","9","4","","",""
"","","","","","html-keyboard-response","34","187533","0.0-9.0-1.3","63eac01fdd7ce6b0923a36e2","64d3ef96556dbe1f0e02b5aa","64da63f7e55b62d438ba8b51","","","","","","","","","","","","","","","","","","","","","","","","610.99","307","1720","","","","","","","","","","","","","",""
"","","","","","html-keyboard-response","34","187533","0.0-9.0-1.3","63eac01fdd7ce6b0923a36e2","64d3ef96556dbe1f0e02b5aa","64da63f7e55b62d438ba8b51","","","","","","","","","","","","","","","","","","reconstruct","","","","","","610.99","307","1720","","","","","","","","","","","4","3","500","250"
"","","","","","html-keyboard-response","35","190536","0.0-9.0-0.4","63eac01fdd7ce6b0923a36e2","64d3ef96556dbe1f0e02b5aa","64da63f7e55b62d438ba8b51","","null","","","","","","","","","","","","","null","","","fallScene","","","","","","","","","","","","","true","144","322.3","379.3711431702997","245.25","1","5","","",""
"","","","","","html-keyboard-response","36","192672","0.0-9.0-1.4","63eac01fdd7ce6b0923a36e2","64d3ef96556dbe1f0e02b5aa","64da63f7e55b62d438ba8b51","","","","","","","","","","","","","","","","","","","","","","","","603.9928940745318","298.00703603746723","2135","","","","","","","","","","","","","",""
"","","","","","html-keyboard-response","36","192672","0.0-9.0-1.4","63eac01fdd7ce6b0923a36e2","64d3ef96556dbe1f0e02b5aa","64da63f7e55b62d438ba8b51","","","","","","","","","","","","","","","","","","reconstruct","","","","","","603.9928940745318","298.00703603746723","2135","","","","","","","","","","","5","6","625","350"
"","","","","","html-keyboard-response","37","195675","0.0-9.0-0.5","63eac01fdd7ce6b0923a36e2","64d3ef96556dbe1f0e02b5aa","64da63f7e55b62d438ba8b51","","null","","","","","","","","","","","","","null","","","fallScene","","","","","","","","","","","","","true","144","604.4000000000001","575.4211431702997","266.76","12","6","","",""
"","","","","","html-keyboard-response","38","197301","0.0-9.0-1.5","63eac01fdd7ce6b0923a36e2","64d3ef96556dbe1f0e02b5aa","64da63f7e55b62d438ba8b51","","","","","","","","","","","","","","","","","","","","","","","","568.9931643656244","293.9927010889386","1627","","","","","","","","","","","","","",""
"","","","","","html-keyboard-response","38","197301","0.0-9.0-1.5","63eac01fdd7ce6b0923a36e2","64d3ef96556dbe1f0e02b5aa","64da63f7e55b62d438ba8b51","","","","","","","","","","","","","","","","","","reconstruct","","","","","","568.9931643656244","293.9927010889386","1627","","","","","","","","","","","6","3","500","250"
"","","","","","html-keyboard-response","39","200307","0.0-9.0-0.6","63eac01fdd7ce6b0923a36e2","64d3ef96556dbe1f0e02b5aa","64da63f7e55b62d438ba8b51","","null","","","","","","","","","","","","","null","","","fallScene","","","","","","","","","","","","","true","144","500","479.92114317029973","330.87","6","7","","",""
"","","","","","html-keyboard-response","40","202052","0.0-9.0-1.6","63eac01fdd7ce6b0923a36e2","64d3ef96556dbe1f0e02b5aa","64da63f7e55b62d438ba8b51","","","","","","","","","","","","","","","","","","","","","","","","488.00999999995156","326.0000009841865","1743","","","","","","","","","","","","","",""
"","","","","","html-keyboard-response","40","202052","0.0-9.0-1.6","63eac01fdd7ce6b0923a36e2","64d3ef96556dbe1f0e02b5aa","64da63f7e55b62d438ba8b51","","","","","","","","","","","","","","","","","","reconstruct","","","","","","488.00999999995156","326.0000009841865","1743","","","","","","","","","","","7","2","375","350"
"","","","","","html-keyboard-response","41","205057","0.0-9.0-0.7","63eac01fdd7ce6b0923a36e2","64d3ef96556dbe1f0e02b5aa","64da63f7e55b62d438ba8b51","","null","","","","","","","","","","","","","null","","","fallScene","","","","","","","","","","","","","false","144","322.3","356.42114317029973","357.87","4","8","","",""
"","","","","","html-keyboard-response","42","206791","0.0-9.0-1.7","63eac01fdd7ce6b0923a36e2","64d3ef96556dbe1f0e02b5aa","64da63f7e55b62d438ba8b51","","","","","","","","","","","","","","","","","","","","","","","","340.99000212516387","285.99979384772286","1733","","","","","","","","","","","","","",""
"","","","","","html-keyboard-response","42","206791","0.0-9.0-1.7","63eac01fdd7ce6b0923a36e2","64d3ef96556dbe1f0e02b5aa","64da63f7e55b62d438ba8b51","","","","","","","","","","","","","","","","","","reconstruct","","","","","","340.99000212516387","285.99979384772286","1733","","","","","","","","","","","8","2","375","350"
"","","","","","html-keyboard-response","43","209793","0.0-9.0-0.8","63eac01fdd7ce6b0923a36e2","64d3ef96556dbe1f0e02b5aa","64da63f7e55b62d438ba8b51","","null","","","","","","","","","","","","","null","","","fallScene","","","","","","","","","","","","","true","144","604.4000000000001","596.8711431702998","394.5","10","9","","",""
"","","","","","html-keyboard-response","44","211367","0.0-9.0-1.8","63eac01fdd7ce6b0923a36e2","64d3ef96556dbe1f0e02b5aa","64da63f7e55b62d438ba8b51","","","","","","","","","","","","","","","","","","","","","","","","372.0099997510375","268.99992943664586","1574","","","","","","","","","","","","","",""
"","","","","","html-keyboard-response","44","211367","0.0-9.0-1.8","63eac01fdd7ce6b0923a36e2","64d3ef96556dbe1f0e02b5aa","64da63f7e55b62d438ba8b51","","","","","","","","","","","","","","","","","","reconstruct","","","","","","372.0099997510375","268.99992943664586","1574","","","","","","","","","","","9","6","625","350"
"","","","","","html-keyboard-response","45","214370","0.0-9.0-0.9","63eac01fdd7ce6b0923a36e2","64d3ef96556dbe1f0e02b5aa","64da63f7e55b62d438ba8b51","","null","","","","","","","","","","","","","null","","","fallScene","","","","","","","","","","","","","false","144","322.3","296.07114317029976","371.46","3","10","","",""
"","","","","","html-keyboard-response","46","216072","0.0-9.0-1.9","63eac01fdd7ce6b0923a36e2","64d3ef96556dbe1f0e02b5aa","64da63f7e55b62d438ba8b51","","","","","","","","","","","","","","","","","","","","","","","","356.99286956516625","278.00701119812027","1702","","","","","","","","","","","","","",""
"","","","","","html-keyboard-response","46","216072","0.0-9.0-1.9","63eac01fdd7ce6b0923a36e2","64d3ef96556dbe1f0e02b5aa","64da63f7e55b62d438ba8b51","","","","","","","","","","","","","","","","","","reconstruct","","","","","","356.99286956516625","278.00701119812027","1702","","","","","","","","","","","10","2","375","350"
"","","","","","html-keyboard-response","47","219076","0.0-9.0-0.10","63eac01fdd7ce6b0923a36e2","64d3ef96556dbe1f0e02b5aa","64da63f7e55b62d438ba8b51","","null","","","","","","","","","","","","","null","","","fallScene","","","","","","","","","","","","","true","144","322.3","296.07114317029976","371.46","3","11","","",""
"","","","","","html-keyboard-response","48","221605","0.0-9.0-1.10","63eac01fdd7ce6b0923a36e2","64d3ef96556dbe1f0e02b5aa","64da63f7e55b62d438ba8b51","","","","","","","","","","","","","","","","","","","","","","","","695.9900419188938","268.0009146697124","2528","","","","","","","","","","","","","",""
"","","","","","html-keyboard-response","48","221605","0.0-9.0-1.10","63eac01fdd7ce6b0923a36e2","64d3ef96556dbe1f0e02b5aa","64da63f7e55b62d438ba8b51","","","","","","","","","","","","","","","","","","reconstruct","","","","","","695.9900419188938","268.0009146697124","2528","","","","","","","","","","","11","1","375","250"
"","","","","","html-keyboard-response","49","224609","0.0-9.0-0.11","63eac01fdd7ce6b0923a36e2","64d3ef96556dbe1f0e02b5aa","64da63f7e55b62d438ba8b51","","null","","","","","","","","","","","","","null","","","fallScene","","","","","","","","","","","","","true","144","604.4000000000001","596.8711431702998","394.5","10","12","","",""
"","","","","","html-keyboard-response","50","226403","0.0-9.0-1.11","63eac01fdd7ce6b0923a36e2","64d3ef96556dbe1f0e02b5aa","64da63f7e55b62d438ba8b51","","","","","","","","","","","","","","","","","","","","","","","","314.01","360","1794","","","","","","","","","","","","","",""
"","","","","","html-keyboard-response","50","226403","0.0-9.0-1.11","63eac01fdd7ce6b0923a36e2","64d3ef96556dbe1f0e02b5aa","64da63f7e55b62d438ba8b51","","","","","","","","","","","","","","","","","","reconstruct","","","","","","314.01","360","1794","","","","","","","","","","","12","3","500","250"
"","","","","","html-keyboard-response","51","229405","0.0-9.0-0.12","63eac01fdd7ce6b0923a36e2","64d3ef96556dbe1f0e02b5aa","64da63f7e55b62d438ba8b51","","null","","","","","","","","","","","","","null","","","fallScene","","","","","","","","","","","","","true","144","500","479.92114317029973","330.87","6","13","","",""
"","","","","","html-keyboard-response","52","231507","0.0-9.0-1.12","63eac01fdd7ce6b0923a36e2","64d3ef96556dbe1f0e02b5aa","64da63f7e55b62d438ba8b51","","","","","","","","","","","","","","","","","","","","","","","","432.99990001442336","378.99000049986824","2102","","","","","","","","","","","","","",""
"","","","","","html-keyboard-response","52","231507","0.0-9.0-1.12","63eac01fdd7ce6b0923a36e2","64d3ef96556dbe1f0e02b5aa","64da63f7e55b62d438ba8b51","","","","","","","","","","","","","","","","","","reconstruct","","","","","","432.99990001442336","378.99000049986824","2102","","","","","","","","","","","13","5","625","250"
"","","","","","html-keyboard-response","53","234513","0.0-9.0-0.13","63eac01fdd7ce6b0923a36e2","64d3ef96556dbe1f0e02b5aa","64da63f7e55b62d438ba8b51","","null","","","","","","","","","","","","","null","","","fallScene","","","","","","","","","","","","","true","144","604.4000000000001","650.0211431702996","404.58000000000004","11","14","","",""
"","","","","","html-keyboard-response","54","236983","0.0-9.0-1.13","63eac01fdd7ce6b0923a36e2","64d3ef96556dbe1f0e02b5aa","64da63f7e55b62d438ba8b51","","","","","","","","","","","","","","","","","","","","","","","","375.99","358.99999999991957","2469","","","","","","","","","","","","","",""
"","","","","","html-keyboard-response","54","236983","0.0-9.0-1.13","63eac01fdd7ce6b0923a36e2","64d3ef96556dbe1f0e02b5aa","64da63f7e55b62d438ba8b51","","","","","","","","","","","","","","","","","","reconstruct","","","","","","375.99","358.99999999991957","2469","","","","","","","","","","","14","1","375","250"
"","","","","","html-keyboard-response","55","239985","0.0-9.0-0.14","63eac01fdd7ce6b0923a36e2","64d3ef96556dbe1f0e02b5aa","64da63f7e55b62d438ba8b51","","null","","","","","","","","","","","","","null","","","fallScene","","","","","","","","","","","","","true","144","500","453.67114317029973","210.33","5","15","","",""
"","","","","","html-keyboard-response","56","242348","0.0-9.0-1.14","63eac01fdd7ce6b0923a36e2","64d3ef96556dbe1f0e02b5aa","64da63f7e55b62d438ba8b51","","","","","","","","","","","","","","","","","","","","","","","","440.0000000000007","368.99","2363","","","","","","","","","","","","","",""
"","","","","","html-keyboard-response","56","242348","0.0-9.0-1.14","63eac01fdd7ce6b0923a36e2","64d3ef96556dbe1f0e02b5aa","64da63f7e55b62d438ba8b51","","","","","","","","","","","","","","","","","","reconstruct","","","","","","440.0000000000007","368.99","2363","","","","","","","","","","","15","6","625","350"
"","","","","","html-keyboard-response","57","245353","0.0-9.0-0.15","63eac01fdd7ce6b0923a36e2","64d3ef96556dbe1f0e02b5aa","64da63f7e55b62d438ba8b51","","null","","","","","","","","","","","","","null","","","fallScene","","","","","","","","","","","","","false","144","604.4000000000001","667.6211431702998","201.78","9","16","","",""
"","","","","","html-keyboard-response","58","251118","0.0-9.0-1.15","63eac01fdd7ce6b0923a36e2","64d3ef96556dbe1f0e02b5aa","64da63f7e55b62d438ba8b51","","","","","","","","","","","","","","","","","","","","","","","","590.9932813690026","282.0074067535075","5764","","","","","","","","","","","","","",""
"","","","","","html-keyboard-response","58","251118","0.0-9.0-1.15","63eac01fdd7ce6b0923a36e2","64d3ef96556dbe1f0e02b5aa","64da63f7e55b62d438ba8b51","","","","","","","","","","","","","","","","","","reconstruct","","","","","","590.9932813690026","282.0074067535075","5764","","","","","","","","","","","16","4","500","350"
"","","","","","html-keyboard-response","59","254124","0.0-9.0-0.16","63eac01fdd7ce6b0923a36e2","64d3ef96556dbe1f0e02b5aa","64da63f7e55b62d438ba8b51","","null","","","","","","","","","","","","","null","","","fallScene","","","","","","","","","","","","","true","144","604.4000000000001","596.8711431702998","394.5","10","17","","",""
"","","","","","html-keyboard-response","60","256225","0.0-9.0-1.16","63eac01fdd7ce6b0923a36e2","64d3ef96556dbe1f0e02b5aa","64da63f7e55b62d438ba8b51","","","","","","","","","","","","","","","","","","","","","","","","382.0070953250724","295.99295327295","2100","","","","","","","","","","","","","",""
"","","","","","html-keyboard-response","60","256225","0.0-9.0-1.16","63eac01fdd7ce6b0923a36e2","64d3ef96556dbe1f0e02b5aa","64da63f7e55b62d438ba8b51","","","","","","","","","","","","","","","","","","reconstruct","","","","","","382.0070953250724","295.99295327295","2100","","","","","","","","","","","17","1","375","250"
"","","","","","html-keyboard-response","61","259227","0.0-9.0-0.17","63eac01fdd7ce6b0923a36e2","64d3ef96556dbe1f0e02b5aa","64da63f7e55b62d438ba8b51","","null","","","","","","","","","","","","","null","","","fallScene","","","","","","","","","","","","","true","144","604.4000000000001","650.0211431702996","404.58000000000004","11","18","","",""
"","","","","","html-keyboard-response","62","261169","0.0-9.0-1.17","63eac01fdd7ce6b0923a36e2","64d3ef96556dbe1f0e02b5aa","64da63f7e55b62d438ba8b51","","","","","","","","","","","","","","","","","","","","","","","","591.0000036989555","301.0099999993159","1943","","","","","","","","","","","","","",""
"","","","","","html-keyboard-response","62","261169","0.0-9.0-1.17","63eac01fdd7ce6b0923a36e2","64d3ef96556dbe1f0e02b5aa","64da63f7e55b62d438ba8b51","","","","","","","","","","","","","","","","","","reconstruct","","","","","","591.0000036989555","301.0099999993159","1943","","","","","","","","","","","18","5","625","250"
"","","","","","html-button-response","63","314709","0.0-10.0","63eac01fdd7ce6b0923a36e2","64d3ef96556dbe1f0e02b5aa","64da63f7e55b62d438ba8b51","","53541","","","","","","","","","","","","","0","","","","<p><span style = ""font-size:40px;"">BREAK</span></p><p>You are doing great! Click 'Next' when you are ready for the next set.</p>","","","","","","","","","","","","","","","","","","","","",""
"","","","","","html-keyboard-response","64","317710","0.0-11.0-0.0","63eac01fdd7ce6b0923a36e2","64d3ef96556dbe1f0e02b5aa","64da63f7e55b62d438ba8b51","","null","","","","","","","","","","","","","null","","","fallScene","","","","","","","","","","","","","true","144","500","479.92114317029973","330.87","6","19","","",""
"","","","","","html-keyboard-response","65","319233","0.0-11.0-1.0","63eac01fdd7ce6b0923a36e2","64d3ef96556dbe1f0e02b5aa","64da63f7e55b62d438ba8b51","","","","","","","","","","","","","","","","","","","","","","","","462.009590522587","276.00283229174124","1523","","","","","","","","","","","","","",""
"","","","","","html-keyboard-response","65","319233","0.0-11.0-1.0","63eac01fdd7ce6b0923a36e2","64d3ef96556dbe1f0e02b5aa","64da63f7e55b62d438ba8b51","","","","","","","","","","","","","","","","","","reconstruct","","","","","","462.009590522587","276.00283229174124","1523","","","","","","","","","","","19","4","500","350"
"","","","","","html-keyboard-response","66","322239","0.0-11.0-0.1","63eac01fdd7ce6b0923a36e2","64d3ef96556dbe1f0e02b5aa","64da63f7e55b62d438ba8b51","","null","","","","","","","","","","","","","null","","","fallScene","","","","","","","","","","","","","true","144","500","510.8711431702997","369.03","8","20","","",""
"","","","","","html-keyboard-response","67","323728","0.0-11.0-1.1","63eac01fdd7ce6b0923a36e2","64d3ef96556dbe1f0e02b5aa","64da63f7e55b62d438ba8b51","","","","","","","","","","","","","","","","","","","","","","","","559.0071371992101","284.00700431206013","1490","","","","","","","","","","","","","",""
"","","","","","html-keyboard-response","67","323728","0.0-11.0-1.1","63eac01fdd7ce6b0923a36e2","64d3ef96556dbe1f0e02b5aa","64da63f7e55b62d438ba8b51","","","","","","","","","","","","","","","","","","reconstruct","","","","","","559.0071371992101","284.00700431206013","1490","","","","","","","","","","","20","2","375","350"
"","","","","","html-keyboard-response","68","326732","0.0-11.0-0.2","63eac01fdd7ce6b0923a36e2","64d3ef96556dbe1f0e02b5aa","64da63f7e55b62d438ba8b51","","null","","","","","","","","","","","","","null","","","fallScene","","","","","","","","","","","","","false","144","500","453.67114317029973","210.33","5","21","","",""
"","","","","","html-keyboard-response","69","328849","0.0-11.0-1.2","63eac01fdd7ce6b0923a36e2","64d3ef96556dbe1f0e02b5aa","64da63f7e55b62d438ba8b51","","","","","","","","","","","","","","","","","","","","","","","","550.9900028371451","284.9997618092116","2116","","","","","","","","","","","","","",""
"","","","","","html-keyboard-response","69","328849","0.0-11.0-1.2","63eac01fdd7ce6b0923a36e2","64d3ef96556dbe1f0e02b5aa","64da63f7e55b62d438ba8b51","","","","","","","","","","","","","","","","","","reconstruct","","","","","","550.9900028371451","284.9997618092116","2116","","","","","","","","","","","21","2","375","350"
"","","","","","html-keyboard-response","70","331856","0.0-11.0-0.3","63eac01fdd7ce6b0923a36e2","64d3ef96556dbe1f0e02b5aa","64da63f7e55b62d438ba8b51","","null","","","","","","","","","","","","","null","","","fallScene","","","","","","","","","","","","","true","144","500","553.4711431702997","282.51","7","22","","",""
"","","","","","html-keyboard-response","71","333435","0.0-11.0-1.3","63eac01fdd7ce6b0923a36e2","64d3ef96556dbe1f0e02b5aa","64da63f7e55b62d438ba8b51","","","","","","","","","","","","","","","","","","","","","","","","551.9999999647071","294.00999999999993","1578","","","","","","","","","","","","","",""
"","","","","","html-keyboard-response","71","333435","0.0-11.0-1.3","63eac01fdd7ce6b0923a36e2","64d3ef96556dbe1f0e02b5aa","64da63f7e55b62d438ba8b51","","","","","","","","","","","","","","","","","","reconstruct","","","","","","551.9999999647071","294.00999999999993","1578","","","","","","","","","","","22","1","375","250"
"","","","","","html-keyboard-response","72","336439","0.0-11.0-0.4","63eac01fdd7ce6b0923a36e2","64d3ef96556dbe1f0e02b5aa","64da63f7e55b62d438ba8b51","","null","","","","","","","","","","","","","null","","","fallScene","","","","","","","","","","","","","true","144","500","553.4711431702997","282.51","7","23","","",""
"","","","","","html-keyboard-response","73","338229","0.0-11.0-1.4","63eac01fdd7ce6b0923a36e2","64d3ef96556dbe1f0e02b5aa","64da63f7e55b62d438ba8b51","","","","","","","","","","","","","","","","","","","","","","","","348.0093186039322","242.9963718295581","1793","","","","","","","","","","","","","",""
"","","","","","html-keyboard-response","73","338230","0.0-11.0-1.4","63eac01fdd7ce6b0923a36e2","64d3ef96556dbe1f0e02b5aa","64da63f7e55b62d438ba8b51","","","","","","","","","","","","","","","","","","reconstruct","","","","","","348.0093186039322","242.9963718295581","1793","","","","","","","","","","","23","2","375","350"
"","","","","","html-keyboard-response","74","341235","0.0-11.0-0.5","63eac01fdd7ce6b0923a36e2","64d3ef96556dbe1f0e02b5aa","64da63f7e55b62d438ba8b51","","null","","","","","","","","","","","","","null","","","fallScene","","","","","","","","","","","","","false","144","500","479.92114317029973","330.87","6","24","","",""
"","","","","","html-keyboard-response","75","343312","0.0-11.0-1.5","63eac01fdd7ce6b0923a36e2","64d3ef96556dbe1f0e02b5aa","64da63f7e55b62d438ba8b51","","","","","","","","","","","","","","","","","","","","","","","","488.0070584025494","333.9929162895704","2077","","","","","","","","","","","","","",""
"","","","","","html-keyboard-response","75","343312","0.0-11.0-1.5","63eac01fdd7ce6b0923a36e2","64d3ef96556dbe1f0e02b5aa","64da63f7e55b62d438ba8b51","","","","","","","","","","","","","","","","","","reconstruct","","","","","","488.0070584025494","333.9929162895704","2077","","","","","","","","","","","24","3","500","250"
"","","","","","html-keyboard-response","76","346318","0.0-11.0-0.6","63eac01fdd7ce6b0923a36e2","64d3ef96556dbe1f0e02b5aa","64da63f7e55b62d438ba8b51","","null","","","","","","","","","","","","","null","","","fallScene","","","","","","","","","","","","","false","144","322.3","379.3711431702997","245.25","1","25","","",""
"","","","","","html-keyboard-response","77","347898","0.0-11.0-1.6","63eac01fdd7ce6b0923a36e2","64d3ef96556dbe1f0e02b5aa","64da63f7e55b62d438ba8b51","","","","","","","","","","","","","","","","","","","","","","","","332.0099999999999","254.00000004649087","1579","","","","","","","","","","","","","",""
"","","","","","html-keyboard-response","77","347898","0.0-11.0-1.6","63eac01fdd7ce6b0923a36e2","64d3ef96556dbe1f0e02b5aa","64da63f7e55b62d438ba8b51","","","","","","","","","","","","","","","","","","reconstruct","","","","","","332.0099999999999","254.00000004649087","1579","","","","","","","","","","","25","1","375","250"
"","","","","","html-keyboard-response","78","350900","0.0-11.0-0.7","63eac01fdd7ce6b0923a36e2","64d3ef96556dbe1f0e02b5aa","64da63f7e55b62d438ba8b51","","null","","","","","","","","","","","","","null","","","fallScene","","","","","","","","","","","","","false","144","500","510.8711431702997","369.03","8","26","","",""
"","","","","","html-keyboard-response","79","353107","0.0-11.0-1.7","63eac01fdd7ce6b0923a36e2","64d3ef96556dbe1f0e02b5aa","64da63f7e55b62d438ba8b51","","","","","","","","","","","","","","","","","","","","","","","","520.0099999999125","339.9999986767234","2208","","","","","","","","","","","","","",""
"","","","","","html-keyboard-response","79","353107","0.0-11.0-1.7","63eac01fdd7ce6b0923a36e2","64d3ef96556dbe1f0e02b5aa","64da63f7e55b62d438ba8b51","","","","","","","","","","","","","","","","","","reconstruct","","","","","","520.0099999999125","339.9999986767234","2208","","","","","","","","","","","26","5","625","250"
"","","","","","html-keyboard-response","80","356109","0.0-11.0-0.8","63eac01fdd7ce6b0923a36e2","64d3ef96556dbe1f0e02b5aa","64da63f7e55b62d438ba8b51","","null","","","","","","","","","","","","","null","","","fallScene","","","","","","","","","","","","","true","144","604.4000000000001","650.0211431702996","404.58000000000004","11","27","","",""
"","","","","","html-keyboard-response","81","357633","0.0-11.0-1.8","63eac01fdd7ce6b0923a36e2","64d3ef96556dbe1f0e02b5aa","64da63f7e55b62d438ba8b51","","","","","","","","","","","","","","","","","","","","","","","","317.00710613508414","325.9929641742371","1523","","","","","","","","","","","","","",""
"","","","","","html-keyboard-response","81","357633","0.0-11.0-1.8","63eac01fdd7ce6b0923a36e2","64d3ef96556dbe1f0e02b5aa","64da63f7e55b62d438ba8b51","","","","","","","","","","","","","","","","","","reconstruct","","","","","","317.00710613508414","325.9929641742371","1523","","","","","","","","","","","27","3","500","250"
"","","","","","html-keyboard-response","82","360636","0.0-11.0-0.9","63eac01fdd7ce6b0923a36e2","64d3ef96556dbe1f0e02b5aa","64da63f7e55b62d438ba8b51","","null","","","","","","","","","","","","","null","","","fallScene","","","","","","","","","","","","","false","144","604.4000000000001","650.0211431702996","404.58000000000004","11","28","","",""
"","","","","","html-keyboard-response","83","362962","0.0-11.0-1.9","63eac01fdd7ce6b0923a36e2","64d3ef96556dbe1f0e02b5aa","64da63f7e55b62d438ba8b51","","","","","","","","","","","","","","","","","","","","","","","","731.992810197561","223.00695030509314","2325","","","","","","","","","","","","","",""
"","","","","","html-keyboard-response","83","362962","0.0-11.0-1.9","63eac01fdd7ce6b0923a36e2","64d3ef96556dbe1f0e02b5aa","64da63f7e55b62d438ba8b51","","","","","","","","","","","","","","","","","","reconstruct","","","","","","731.992810197561","223.00695030509314","2325","","","","","","","","","","","28","2","375","350"
"","","","","","html-keyboard-response","84","365964","0.0-11.0-0.10","63eac01fdd7ce6b0923a36e2","64d3ef96556dbe1f0e02b5aa","64da63f7e55b62d438ba8b51","","null","","","","","","","","","","","","","null","","","fallScene","","","","","","","","","","","","","false","144","604.4000000000001","667.6211431702998","201.78","9","29","","",""
"","","","","","html-keyboard-response","85","368254","0.0-11.0-1.10","63eac01fdd7ce6b0923a36e2","64d3ef96556dbe1f0e02b5aa","64da63f7e55b62d438ba8b51","","","","","","","","","","","","","","","","","","","","","","","","623.9999999988574","273.01","2290","","","","","","","","","","","","","",""
"","","","","","html-keyboard-response","85","368254","0.0-11.0-1.10","63eac01fdd7ce6b0923a36e2","64d3ef96556dbe1f0e02b5aa","64da63f7e55b62d438ba8b51","","","","","","","","","","","","","","","","","","reconstruct","","","","","","623.9999999988574","273.01","2290","","","","","","","","","","","29","6","625","350"
"","","","","","html-keyboard-response","86","371255","0.0-11.0-0.11","63eac01fdd7ce6b0923a36e2","64d3ef96556dbe1f0e02b5aa","64da63f7e55b62d438ba8b51","","null","","","","","","","","","","","","","null","","","fallScene","","","","","","","","","","","","","true","144","500","510.8711431702997","369.03","8","30","","",""
"","","","","","html-keyboard-response","87","374122","0.0-11.0-1.11","63eac01fdd7ce6b0923a36e2","64d3ef96556dbe1f0e02b5aa","64da63f7e55b62d438ba8b51","","","","","","","","","","","","","","","","","","","","","","","","464.99106254142384","327.99551426324894","2867","","","","","","","","","","","","","",""
"","","","","","html-keyboard-response","87","374122","0.0-11.0-1.11","63eac01fdd7ce6b0923a36e2","64d3ef96556dbe1f0e02b5aa","64da63f7e55b62d438ba8b51","","","","","","","","","","","","","","","","","","reconstruct","","","","","","464.99106254142384","327.99551426324894","2867","","","","","","","","","","","30","6","625","350"
"","","","","","html-keyboard-response","88","377124","0.0-11.0-0.12","63eac01fdd7ce6b0923a36e2","64d3ef96556dbe1f0e02b5aa","64da63f7e55b62d438ba8b51","","null","","","","","","","","","","","","","null","","","fallScene","","","","","","","","","","","","","true","144","500","553.4711431702997","282.51","7","31","","",""
"","","","","","html-keyboard-response","89","378614","0.0-11.0-1.12","63eac01fdd7ce6b0923a36e2","64d3ef96556dbe1f0e02b5aa","64da63f7e55b62d438ba8b51","","","","","","","","","","","","","","","","","","","","","","","","498.00958897070086","294.00283754134745","1490","","","","","","","","","","","","","",""
"","","","","","html-keyboard-response","89","378614","0.0-11.0-1.12","63eac01fdd7ce6b0923a36e2","64d3ef96556dbe1f0e02b5aa","64da63f7e55b62d438ba8b51","","","","","","","","","","","","","","","","","","reconstruct","","","","","","498.00958897070086","294.00283754134745","1490","","","","","","","","","","","31","4","500","350"
"","","","","","html-keyboard-response","90","381617","0.0-11.0-0.13","63eac01fdd7ce6b0923a36e2","64d3ef96556dbe1f0e02b5aa","64da63f7e55b62d438ba8b51","","null","","","","","","","","","","","","","null","","","fallScene","","","","","","","","","","","","","true","144","322.3","308.07114317029976","253.89","2","32","","",""
"","","","","","html-keyboard-response","91","384674","0.0-11.0-1.13","63eac01fdd7ce6b0923a36e2","64d3ef96556dbe1f0e02b5aa","64da63f7e55b62d438ba8b51","","","","","","","","","","","","","","","","","","","","","","","","678.9804345986478","280.0029160188644","3056","","","","","","","","","","","","","",""
"","","","","","html-keyboard-response","91","384674","0.0-11.0-1.13","63eac01fdd7ce6b0923a36e2","64d3ef96556dbe1f0e02b5aa","64da63f7e55b62d438ba8b51","","","","","","","","","","","","","","","","","","reconstruct","","","","","","678.9804345986478","280.0029160188644","3056","","","","","","","","","","","32","4","500","350"
"","","","","","html-keyboard-response","92","387677","0.0-11.0-0.14","63eac01fdd7ce6b0923a36e2","64d3ef96556dbe1f0e02b5aa","64da63f7e55b62d438ba8b51","","null","","","","","","","","","","","","","null","","","fallScene","","","","","","","","","","","","","true","144","500","510.8711431702997","369.03","8","33","","",""
"","","","","","html-keyboard-response","93","389389","0.0-11.0-1.14","63eac01fdd7ce6b0923a36e2","64d3ef96556dbe1f0e02b5aa","64da63f7e55b62d438ba8b51","","","","","","","","","","","","","","","","","","","","","","","","437.00000003893666","276.00999999999993","1712","","","","","","","","","","","","","",""
"","","","","","html-keyboard-response","93","389389","0.0-11.0-1.14","63eac01fdd7ce6b0923a36e2","64d3ef96556dbe1f0e02b5aa","64da63f7e55b62d438ba8b51","","","","","","","","","","","","","","","","","","reconstruct","","","","","","437.00000003893666","276.00999999999993","1712","","","","","","","","","","","33","4","500","350"
"","","","","","html-keyboard-response","94","392391","0.0-11.0-0.15","63eac01fdd7ce6b0923a36e2","64d3ef96556dbe1f0e02b5aa","64da63f7e55b62d438ba8b51","","null","","","","","","","","","","","","","null","","","fallScene","","","","","","","","","","","","","true","144","322.3","356.42114317029973","357.87","4","34","","",""
"","","","","","html-keyboard-response","95","394060","0.0-11.0-1.15","63eac01fdd7ce6b0923a36e2","64d3ef96556dbe1f0e02b5aa","64da63f7e55b62d438ba8b51","","","","","","","","","","","","","","","","","","","","","","","","630.0099996865895","289.0000791714075","1670","","","","","","","","","","","","","",""
"","","","","","html-keyboard-response","95","394060","0.0-11.0-1.15","63eac01fdd7ce6b0923a36e2","64d3ef96556dbe1f0e02b5aa","64da63f7e55b62d438ba8b51","","","","","","","","","","","","","","","","","","reconstruct","","","","","","630.0099996865895","289.0000791714075","1670","","","","","","","","","","","34","3","500","250"
"","","","","","html-keyboard-response","96","397062","0.0-11.0-0.16","63eac01fdd7ce6b0923a36e2","64d3ef96556dbe1f0e02b5aa","64da63f7e55b62d438ba8b51","","null","","","","","","","","","","","","","null","","","fallScene","","","","","","","","","","","","","true","144","322.3","296.07114317029976","371.46","3","35","","",""
"","","","","","html-keyboard-response","97","398737","0.0-11.0-1.16","63eac01fdd7ce6b0923a36e2","64d3ef96556dbe1f0e02b5aa","64da63f7e55b62d438ba8b51","","","","","","","","","","","","","","","","","","","","","","","","682.9929606766492","289.0071026703966","1676","","","","","","","","","","","","","",""
"","","","","","html-keyboard-response","97","398737","0.0-11.0-1.16","63eac01fdd7ce6b0923a36e2","64d3ef96556dbe1f0e02b5aa","64da63f7e55b62d438ba8b51","","","","","","","","","","","","","","","","","","reconstruct","","","","","","682.9929606766492","289.0071026703966","1676","","","","","","","","","","","35","3","500","250"
"","","","","","html-keyboard-response","98","401739","0.0-11.0-0.17","63eac01fdd7ce6b0923a36e2","64d3ef96556dbe1f0e02b5aa","64da63f7e55b62d438ba8b51","","null","","","","","","","","","","","","","null","","","fallScene","","","","","","","","","","","","","false","144","604.4000000000001","575.4211431702997","266.76","12","36","","",""
"","","","","","html-keyboard-response","99","403949","0.0-11.0-1.17","63eac01fdd7ce6b0923a36e2","64d3ef96556dbe1f0e02b5aa","64da63f7e55b62d438ba8b51","","","","","","","","","","","","","","","","","","","","","","","","590.9900116208692","296.99951804321944","2210","","","","","","","","","","","","","",""
"","","","","","html-keyboard-response","99","403949","0.0-11.0-1.17","63eac01fdd7ce6b0923a36e2","64d3ef96556dbe1f0e02b5aa","64da63f7e55b62d438ba8b51","","","","","","","","","","","","","","","","","","reconstruct","","","","","","590.9900116208692","296.99951804321944","2210","","","","","","","","","","","36","1","375","250"
"","","","","","html-button-response","100","436488","0.0-12.0","63eac01fdd7ce6b0923a36e2","64d3ef96556dbe1f0e02b5aa","64da63f7e55b62d438ba8b51","","32537","","","","","","","","","","","","","0","","","","<p><span style = ""font-size:40px;"">BREAK</span></p><p>You are halfway done! Click 'Next' when you are ready for the next set.</p>","","","","","","","","","","","","","","","","","","","","",""
"","","","","","html-keyboard-response","101","439489","0.0-13.0-0.0","63eac01fdd7ce6b0923a36e2","64d3ef96556dbe1f0e02b5aa","64da63f7e55b62d438ba8b51","","null","","","","","","","","","","","","","null","","","fallScene","","","","","","","","","","","","","true","144","500","453.67114317029973","210.33","5","37","","",""
"","","","","","html-keyboard-response","102","441056","0.0-13.0-1.0","63eac01fdd7ce6b0923a36e2","64d3ef96556dbe1f0e02b5aa","64da63f7e55b62d438ba8b51","","","","","","","","","","","","","","","","","","","","","","","","452.0029022546815","253.00956958294617","1567","","","","","","","","","","","","","",""
"","","","","","html-keyboard-response","102","441056","0.0-13.0-1.0","63eac01fdd7ce6b0923a36e2","64d3ef96556dbe1f0e02b5aa","64da63f7e55b62d438ba8b51","","","","","","","","","","","","","","","","","","reconstruct","","","","","","452.0029022546815","253.00956958294617","1567","","","","","","","","","","","37","4","500","350"
"","","","","","html-keyboard-response","103","444059","0.0-13.0-0.1","63eac01fdd7ce6b0923a36e2","64d3ef96556dbe1f0e02b5aa","64da63f7e55b62d438ba8b51","","null","","","","","","","","","","","","","null","","","fallScene","","","","","","","","","","","","","false","144","604.4000000000001","667.6211431702998","201.78","9","38","","",""
"","","","","","html-keyboard-response","104","449052","0.0-13.0-1.1","63eac01fdd7ce6b0923a36e2","64d3ef96556dbe1f0e02b5aa","64da63f7e55b62d438ba8b51","","","","","","","","","","","","","","","","","","","","","","","","467.9900034997594","340.99973545711237","4993","","","","","","","","","","","","","",""
"","","","","","html-keyboard-response","104","449052","0.0-13.0-1.1","63eac01fdd7ce6b0923a36e2","64d3ef96556dbe1f0e02b5aa","64da63f7e55b62d438ba8b51","","","","","","","","","","","","","","","","","","reconstruct","","","","","","467.9900034997594","340.99973545711237","4993","","","","","","","","","","","38","1","375","250"
"","","","","","html-keyboard-response","105","452056","0.0-13.0-0.2","63eac01fdd7ce6b0923a36e2","64d3ef96556dbe1f0e02b5aa","64da63f7e55b62d438ba8b51","","null","","","","","","","","","","","","","null","","","fallScene","","","","","","","","","","","","","true","144","322.3","379.3711431702997","245.25","1","39","","",""
"","","","","","html-keyboard-response","106","453844","0.0-13.0-1.2","63eac01fdd7ce6b0923a36e2","64d3ef96556dbe1f0e02b5aa","64da63f7e55b62d438ba8b51","","","","","","","","","","","","","","","","","","","","","","","","576.01","268","1788","","","","","","","","","","","","","",""
"","","","","","html-keyboard-response","106","453844","0.0-13.0-1.2","63eac01fdd7ce6b0923a36e2","64d3ef96556dbe1f0e02b5aa","64da63f7e55b62d438ba8b51","","","","","","","","","","","","","","","","","","reconstruct","","","","","","576.01","268","1788","","","","","","","","","","","39","5","625","250"
"","","","","","html-keyboard-response","107","456850","0.0-13.0-0.3","63eac01fdd7ce6b0923a36e2","64d3ef96556dbe1f0e02b5aa","64da63f7e55b62d438ba8b51","","null","","","","","","","","","","","","","null","","","fallScene","","","","","","","","","","","","","true","144","500","453.67114317029973","210.33","5","40","","",""
"","","","","","html-keyboard-response","108","458959","0.0-13.0-1.3","63eac01fdd7ce6b0923a36e2","64d3ef96556dbe1f0e02b5aa","64da63f7e55b62d438ba8b51","","","","","","","","","","","","","","","","","","","","","","","","486.99","292","2110","","","","","","","","","","","","","",""
"","","","","","html-keyboard-response","108","458959","0.0-13.0-1.3","63eac01fdd7ce6b0923a36e2","64d3ef96556dbe1f0e02b5aa","64da63f7e55b62d438ba8b51","","","","","","","","","","","","","","","","","","reconstruct","","","","","","486.99","292","2110","","","","","","","","","","","40","3","500","250"
"","","","","","html-keyboard-response","109","461960","0.0-13.0-0.4","63eac01fdd7ce6b0923a36e2","64d3ef96556dbe1f0e02b5aa","64da63f7e55b62d438ba8b51","","null","","","","","","","","","","","","","null","","","fallScene","","","","","","","","","","","","","true","144","500","510.8711431702997","369.03","8","41","","",""
"","","","","","html-keyboard-response","110","465039","0.0-13.0-1.4","63eac01fdd7ce6b0923a36e2","64d3ef96556dbe1f0e02b5aa","64da63f7e55b62d438ba8b51","","","","","","","","","","","","","","","","","","","","","","","","483.99","255.99999999446203","3079","","","","","","","","","","","","","",""
"","","","","","html-keyboard-response","110","465039","0.0-13.0-1.4","63eac01fdd7ce6b0923a36e2","64d3ef96556dbe1f0e02b5aa","64da63f7e55b62d438ba8b51","","","","","","","","","","","","","","","","","","reconstruct","","","","","","483.99","255.99999999446203","3079","","","","","","","","","","","41","1","375","250"
"","","","","","html-keyboard-response","111","468042","0.0-13.0-0.5","63eac01fdd7ce6b0923a36e2","64d3ef96556dbe1f0e02b5aa","64da63f7e55b62d438ba8b51","","null","","","","","","","","","","","","","null","","","fallScene","","","","","","","","","","","","","false","144","322.3","356.42114317029973","357.87","4","42","","",""
"","","","","","html-keyboard-response","112","470269","0.0-13.0-1.5","63eac01fdd7ce6b0923a36e2","64d3ef96556dbe1f0e02b5aa","64da63f7e55b62d438ba8b51","","","","","","","","","","","","","","","","","","","","","","","","304.99117599536754","253.00470499120576","2226","","","","","","","","","","","","","",""
"","","","","","html-keyboard-response","112","470269","0.0-13.0-1.5","63eac01fdd7ce6b0923a36e2","64d3ef96556dbe1f0e02b5aa","64da63f7e55b62d438ba8b51","","","","","","","","","","","","","","","","","","reconstruct","","","","","","304.99117599536754","253.00470499120576","2226","","","","","","","","","","","42","6","625","350"
"","","","","","html-keyboard-response","113","473271","0.0-13.0-0.6","63eac01fdd7ce6b0923a36e2","64d3ef96556dbe1f0e02b5aa","64da63f7e55b62d438ba8b51","","null","","","","","","","","","","","","","null","","","fallScene","","","","","","","","","","","","","true","144","604.4000000000001","575.4211431702997","266.76","12","43","","",""
"","","","","","html-keyboard-response","114","475842","0.0-13.0-1.6","63eac01fdd7ce6b0923a36e2","64d3ef96556dbe1f0e02b5aa","64da63f7e55b62d438ba8b51","","","","","","","","","","","","","","","","","","","","","","","","396.9997618949578","252.99000283510242","2570","","","","","","","","","","","","","",""
"","","","","","html-keyboard-response","114","475842","0.0-13.0-1.6","63eac01fdd7ce6b0923a36e2","64d3ef96556dbe1f0e02b5aa","64da63f7e55b62d438ba8b51","","","","","","","","","","","","","","","","","","reconstruct","","","","","","396.9997618949578","252.99000283510242","2570","","","","","","","","","","","43","2","375","350"
"","","","","","html-keyboard-response","115","478843","0.0-13.0-0.7","63eac01fdd7ce6b0923a36e2","64d3ef96556dbe1f0e02b5aa","64da63f7e55b62d438ba8b51","","null","","","","","","","","","","","","","null","","","fallScene","","","","","","","","","","","","","false","144","604.4000000000001","575.4211431702997","266.76","12","44","","",""
"","","","","","html-keyboard-response","116","481371","0.0-13.0-1.7","63eac01fdd7ce6b0923a36e2","64d3ef96556dbe1f0e02b5aa","64da63f7e55b62d438ba8b51","","","","","","","","","","","","","","","","","","","","","","","","341.00673186464707","298.0073947277417","2527","","","","","","","","","","","","","",""
"","","","","","html-keyboard-response","116","481371","0.0-13.0-1.7","63eac01fdd7ce6b0923a36e2","64d3ef96556dbe1f0e02b5aa","64da63f7e55b62d438ba8b51","","","","","","","","","","","","","","","","","","reconstruct","","","","","","341.00673186464707","298.0073947277417","2527","","","","","","","","","","","44","4","500","350"
"","","","","","html-keyboard-response","117","484376","0.0-13.0-0.8","63eac01fdd7ce6b0923a36e2","64d3ef96556dbe1f0e02b5aa","64da63f7e55b62d438ba8b51","","null","","","","","","","","","","","","","null","","","fallScene","","","","","","","","","","","","","false","144","322.3","308.07114317029976","253.89","2","45","","",""
"","","","","","html-keyboard-response","118","486427","0.0-13.0-1.8","63eac01fdd7ce6b0923a36e2","64d3ef96556dbe1f0e02b5aa","64da63f7e55b62d438ba8b51","","","","","","","","","","","","","","","","","","","","","","","","273.00000002763926","261.00999999999993","2051","","","","","","","","","","","","","",""
"","","","","","html-keyboard-response","118","486427","0.0-13.0-1.8","63eac01fdd7ce6b0923a36e2","64d3ef96556dbe1f0e02b5aa","64da63f7e55b62d438ba8b51","","","","","","","","","","","","","","","","","","reconstruct","","","","","","273.00000002763926","261.00999999999993","2051","","","","","","","","","","","45","2","375","350"
"","","","","","html-keyboard-response","119","489430","0.0-13.0-0.9","63eac01fdd7ce6b0923a36e2","64d3ef96556dbe1f0e02b5aa","64da63f7e55b62d438ba8b51","","null","","","","","","","","","","","","","null","","","fallScene","","","","","","","","","","","","","false","144","322.3","356.42114317029973","357.87","4","46","","",""
"","","","","","html-keyboard-response","120","490963","0.0-13.0-1.9","63eac01fdd7ce6b0923a36e2","64d3ef96556dbe1f0e02b5aa","64da63f7e55b62d438ba8b51","","","","","","","","","","","","","","","","","","","","","","","","343.9900000000002","327.00000006066404","1532","","","","","","","","","","","","","",""
"","","","","","html-keyboard-response","120","490963","0.0-13.0-1.9","63eac01fdd7ce6b0923a36e2","64d3ef96556dbe1f0e02b5aa","64da63f7e55b62d438ba8b51","","","","","","","","","","","","","","","","","","reconstruct","","","","","","343.9900000000002","327.00000006066404","1532","","","","","","","","","","","46","1","375","250"
"","","","","","html-keyboard-response","121","493965","0.0-13.0-0.10","63eac01fdd7ce6b0923a36e2","64d3ef96556dbe1f0e02b5aa","64da63f7e55b62d438ba8b51","","null","","","","","","","","","","","","","null","","","fallScene","","","","","","","","","","","","","false","144","322.3","379.3711431702997","245.25","1","47","","",""
"","","","","","html-keyboard-response","122","495968","0.0-13.0-1.10","63eac01fdd7ce6b0923a36e2","64d3ef96556dbe1f0e02b5aa","64da63f7e55b62d438ba8b51","","","","","","","","","","","","","","","","","","","","","","","","391.99289194551227","277.0070338866496","2003","","","","","","","","","","","","","",""
"","","","","","html-keyboard-response","122","495968","0.0-13.0-1.10","63eac01fdd7ce6b0923a36e2","64d3ef96556dbe1f0e02b5aa","64da63f7e55b62d438ba8b51","","","","","","","","","","","","","","","","","","reconstruct","","","","","","391.99289194551227","277.0070338866496","2003","","","","","","","","","","","47","4","500","350"
"","","","","","html-keyboard-response","123","498972","0.0-13.0-0.11","63eac01fdd7ce6b0923a36e2","64d3ef96556dbe1f0e02b5aa","64da63f7e55b62d438ba8b51","","null","","","","","","","","","","","","","null","","","fallScene","","","","","","","","","","","","","false","144","500","479.92114317029973","330.87","6","48","","",""
"","","","","","html-keyboard-response","124","501294","0.0-13.0-1.11","63eac01fdd7ce6b0923a36e2","64d3ef96556dbe1f0e02b5aa","64da63f7e55b62d438ba8b51","","","","","","","","","","","","","","","","","","","","","","","","410.9999999999503","298.99","2321","","","","","","","","","","","","","",""
"","","","","","html-keyboard-response","124","501294","0.0-13.0-1.11","63eac01fdd7ce6b0923a36e2","64d3ef96556dbe1f0e02b5aa","64da63f7e55b62d438ba8b51","","","","","","","","","","","","","","","","","","reconstruct","","","","","","410.9999999999503","298.99","2321","","","","","","","","","","","48","1","375","250"
"","","","","","html-keyboard-response","125","504298","0.0-13.0-0.12","63eac01fdd7ce6b0923a36e2","64d3ef96556dbe1f0e02b5aa","64da63f7e55b62d438ba8b51","","null","","","","","","","","","","","","","null","","","fallScene","","","","","","","","","","","","","true","144","500","553.4711431702997","282.51","7","49","","",""
"","","","","","html-keyboard-response","126","505846","0.0-13.0-1.12","63eac01fdd7ce6b0923a36e2","64d3ef96556dbe1f0e02b5aa","64da63f7e55b62d438ba8b51","","","","","","","","","","","","","","","","","","","","","","","","610.99","299.9999999999997","1546","","","","","","","","","","","","","",""
"","","","","","html-keyboard-response","126","505846","0.0-13.0-1.12","63eac01fdd7ce6b0923a36e2","64d3ef96556dbe1f0e02b5aa","64da63f7e55b62d438ba8b51","","","","","","","","","","","","","","","","","","reconstruct","","","","","","610.99","299.9999999999997","1546","","","","","","","","","","","49","6","625","350"
"","","","","","html-keyboard-response","127","508848","0.0-13.0-0.13","63eac01fdd7ce6b0923a36e2","64d3ef96556dbe1f0e02b5aa","64da63f7e55b62d438ba8b51","","null","","","","","","","","","","","","","null","","","fallScene","","","","","","","","","","","","","false","144","500","453.67114317029973","210.33","5","50","","",""
"","","","","","html-keyboard-response","128","511457","0.0-13.0-1.13","63eac01fdd7ce6b0923a36e2","64d3ef96556dbe1f0e02b5aa","64da63f7e55b62d438ba8b51","","","","","","","","","","","","","","","","","","","","","","","","500.99","266.0000000000331","2609","","","","","","","","","","","","","",""
"","","","","","html-keyboard-response","128","511457","0.0-13.0-1.13","63eac01fdd7ce6b0923a36e2","64d3ef96556dbe1f0e02b5aa","64da63f7e55b62d438ba8b51","","","","","","","","","","","","","","","","","","reconstruct","","","","","","500.99","266.0000000000331","2609","","","","","","","","","","","50","1","375","250"
"","","","","","html-keyboard-response","129","514459","0.0-13.0-0.14","63eac01fdd7ce6b0923a36e2","64d3ef96556dbe1f0e02b5aa","64da63f7e55b62d438ba8b51","","null","","","","","","","","","","","","","null","","","fallScene","","","","","","","","","","","","","true","144","322.3","356.42114317029973","357.87","4","51","","",""
"","","","","","html-keyboard-response","130","518200","0.0-13.0-1.14","63eac01fdd7ce6b0923a36e2","64d3ef96556dbe1f0e02b5aa","64da63f7e55b62d438ba8b51","","","","","","","","","","","","","","","","","","","","","","","","580.991029033716","255.99487529108436","3742","","","","","","","","","","","","","",""
"","","","","","html-keyboard-response","130","518200","0.0-13.0-1.14","63eac01fdd7ce6b0923a36e2","64d3ef96556dbe1f0e02b5aa","64da63f7e55b62d438ba8b51","","","","","","","","","","","","","","","","","","reconstruct","","","","","","580.991029033716","255.99487529108436","3742","","","","","","","","","","","51","5","625","250"
"","","","","","html-keyboard-response","131","521204","0.0-13.0-0.15","63eac01fdd7ce6b0923a36e2","64d3ef96556dbe1f0e02b5aa","64da63f7e55b62d438ba8b51","","null","","","","","","","","","","","","","null","","","fallScene","","","","","","","","","","","","","false","144","322.3","379.3711431702997","245.25","1","52","","",""
"","","","","","html-keyboard-response","132","522732","0.0-13.0-1.15","63eac01fdd7ce6b0923a36e2","64d3ef96556dbe1f0e02b5aa","64da63f7e55b62d438ba8b51","","","","","","","","","","","","","","","","","","","","","","","","474.0095909586456","314.99716918523075","1528","","","","","","","","","","","","","",""
"","","","","","html-keyboard-response","132","522732","0.0-13.0-1.15","63eac01fdd7ce6b0923a36e2","64d3ef96556dbe1f0e02b5aa","64da63f7e55b62d438ba8b51","","","","","","","","","","","","","","","","","","reconstruct","","","","","","474.0095909586456","314.99716918523075","1528","","","","","","","","","","","52","3","500","250"
"","","","","","html-keyboard-response","133","525735","0.0-13.0-0.16","63eac01fdd7ce6b0923a36e2","64d3ef96556dbe1f0e02b5aa","64da63f7e55b62d438ba8b51","","null","","","","","","","","","","","","","null","","","fallScene","","","","","","","","","","","","","false","144","500","553.4711431702997","282.51","7","53","","",""
"","","","","","html-keyboard-response","134","530871","0.0-13.0-1.16","63eac01fdd7ce6b0923a36e2","64d3ef96556dbe1f0e02b5aa","64da63f7e55b62d438ba8b51","","","","","","","","","","","","","","","","","","","","","","","","445.01","251","5136","","","","","","","","","","","","","",""
"","","","","","html-keyboard-response","134","530871","0.0-13.0-1.16","63eac01fdd7ce6b0923a36e2","64d3ef96556dbe1f0e02b5aa","64da63f7e55b62d438ba8b51","","","","","","","","","","","","","","","","","","reconstruct","","","","","","445.01","251","5136","","","","","","","","","","","53","3","500","250"
"","","","","","html-keyboard-response","135","533874","0.0-13.0-0.17","63eac01fdd7ce6b0923a36e2","64d3ef96556dbe1f0e02b5aa","64da63f7e55b62d438ba8b51","","null","","","","","","","","","","","","","null","","","fallScene","","","","","","","","","","","","","false","144","322.3","296.07114317029976","371.46","3","54","","",""
"","","","","","html-keyboard-response","136","535901","0.0-13.0-1.17","63eac01fdd7ce6b0923a36e2","64d3ef96556dbe1f0e02b5aa","64da63f7e55b62d438ba8b51","","","","","","","","","","","","","","","","","","","","","","","","283.01","282","2026","","","","","","","","","","","","","",""
"","","","","","html-keyboard-response","136","535901","0.0-13.0-1.17","63eac01fdd7ce6b0923a36e2","64d3ef96556dbe1f0e02b5aa","64da63f7e55b62d438ba8b51","","","","","","","","","","","","","","","","","","reconstruct","","","","","","283.01","282","2026","","","","","","","","","","","54","5","625","250"
"","","","","","html-button-response","137","542062","0.0-14.0","63eac01fdd7ce6b0923a36e2","64d3ef96556dbe1f0e02b5aa","64da63f7e55b62d438ba8b51","","6160","","","","","","","","","","","","","0","","","","<p><span style = ""font-size:40px;"">BREAK</span></p><p>You are almost done! Click 'Next' when you are ready for the next set.</p>","","","","","","","","","","","","","","","","","","","","",""
"","","","","","html-keyboard-response","138","545065","0.0-15.0-0.0","63eac01fdd7ce6b0923a36e2","64d3ef96556dbe1f0e02b5aa","64da63f7e55b62d438ba8b51","","null","","","","","","","","","","","","","null","","","fallScene","","","","","","","","","","","","","true","144","500","479.92114317029973","330.87","6","55","","",""
"","","","","","html-keyboard-response","139","546763","0.0-15.0-1.0","63eac01fdd7ce6b0923a36e2","64d3ef96556dbe1f0e02b5aa","64da63f7e55b62d438ba8b51","","","","","","","","","","","","","","","","","","","","","","","","513.9900547374997","314.9989551297683","1698","","","","","","","","","","","","","",""
"","","","","","html-keyboard-response","139","546763","0.0-15.0-1.0","63eac01fdd7ce6b0923a36e2","64d3ef96556dbe1f0e02b5aa","64da63f7e55b62d438ba8b51","","","","","","","","","","","","","","","","","","reconstruct","","","","","","513.9900547374997","314.9989551297683","1698","","","","","","","","","","","55","6","625","350"
"","","","","","html-keyboard-response","140","549769","0.0-15.0-0.1","63eac01fdd7ce6b0923a36e2","64d3ef96556dbe1f0e02b5aa","64da63f7e55b62d438ba8b51","","null","","","","","","","","","","","","","null","","","fallScene","","","","","","","","","","","","","true","144","500","453.67114317029973","210.33","5","56","","",""
"","","","","","html-keyboard-response","141","551469","0.0-15.0-1.1","63eac01fdd7ce6b0923a36e2","64d3ef96556dbe1f0e02b5aa","64da63f7e55b62d438ba8b51","","","","","","","","","","","","","","","","","","","","","","","","513.9999032068912","331.9900004684563","1700","","","","","","","","","","","","","",""
"","","","","","html-keyboard-response","141","551469","0.0-15.0-1.1","63eac01fdd7ce6b0923a36e2","64d3ef96556dbe1f0e02b5aa","64da63f7e55b62d438ba8b51","","","","","","","","","","","","","","","","","","reconstruct","","","","","","513.9999032068912","331.9900004684563","1700","","","","","","","","","","","56","5","625","250"
"","","","","","html-keyboard-response","142","554472","0.0-15.0-0.2","63eac01fdd7ce6b0923a36e2","64d3ef96556dbe1f0e02b5aa","64da63f7e55b62d438ba8b51","","null","","","","","","","","","","","","","null","","","fallScene","","","","","","","","","","","","","false","144","604.4000000000001","575.4211431702997","266.76","12","57","","",""
"","","","","","html-keyboard-response","143","556101","0.0-15.0-1.2","63eac01fdd7ce6b0923a36e2","64d3ef96556dbe1f0e02b5aa","64da63f7e55b62d438ba8b51","","","","","","","","","","","","","","","","","","","","","","","","597.0000883763915","327.990000390527","1629","","","","","","","","","","","","","",""
"","","","","","html-keyboard-response","143","556101","0.0-15.0-1.2","63eac01fdd7ce6b0923a36e2","64d3ef96556dbe1f0e02b5aa","64da63f7e55b62d438ba8b51","","","","","","","","","","","","","","","","","","reconstruct","","","","","","597.0000883763915","327.990000390527","1629","","","","","","","","","","","57","5","625","250"
"","","","","","html-keyboard-response","144","559103","0.0-15.0-0.3","63eac01fdd7ce6b0923a36e2","64d3ef96556dbe1f0e02b5aa","64da63f7e55b62d438ba8b51","","null","","","","","","","","","","","","","null","","","fallScene","","","","","","","","","","","","","false","144","322.3","308.07114317029976","253.89","2","58","","",""
"","","","","","html-keyboard-response","145","561019","0.0-15.0-1.3","63eac01fdd7ce6b0923a36e2","64d3ef96556dbe1f0e02b5aa","64da63f7e55b62d438ba8b51","","","","","","","","","","","","","","","","","","","","","","","","485.0070712467353","308.9929291111161","1916","","","","","","","","","","","","","",""
"","","","","","html-keyboard-response","145","561019","0.0-15.0-1.3","63eac01fdd7ce6b0923a36e2","64d3ef96556dbe1f0e02b5aa","64da63f7e55b62d438ba8b51","","","","","","","","","","","","","","","","","","reconstruct","","","","","","485.0070712467353","308.9929291111161","1916","","","","","","","","","","","58","3","500","250"
"","","","","","html-keyboard-response","146","564025","0.0-15.0-0.4","63eac01fdd7ce6b0923a36e2","64d3ef96556dbe1f0e02b5aa","64da63f7e55b62d438ba8b51","","null","","","","","","","","","","","","","null","","","fallScene","","","","","","","","","","","","","false","144","604.4000000000001","650.0211431702996","404.58000000000004","11","59","","",""
"","","","","","html-keyboard-response","147","565594","0.0-15.0-1.4","63eac01fdd7ce6b0923a36e2","64d3ef96556dbe1f0e02b5aa","64da63f7e55b62d438ba8b51","","","","","","","","","","","","","","","","","","","","","","","","637.0099998482946","271.9999449174749","1569","","","","","","","","","","","","","",""
"","","","","","html-keyboard-response","147","565594","0.0-15.0-1.4","63eac01fdd7ce6b0923a36e2","64d3ef96556dbe1f0e02b5aa","64da63f7e55b62d438ba8b51","","","","","","","","","","","","","","","","","","reconstruct","","","","","","637.0099998482946","271.9999449174749","1569","","","","","","","","","","","59","6","625","350"
"","","","","","html-keyboard-response","148","568596","0.0-15.0-0.5","63eac01fdd7ce6b0923a36e2","64d3ef96556dbe1f0e02b5aa","64da63f7e55b62d438ba8b51","","null","","","","","","","","","","","","","null","","","fallScene","","","","","","","","","","","","","false","144","322.3","356.42114317029973","357.87","4","60","","",""
"","","","","","html-keyboard-response","149","570147","0.0-15.0-1.5","63eac01fdd7ce6b0923a36e2","64d3ef96556dbe1f0e02b5aa","64da63f7e55b62d438ba8b51","","","","","","","","","","","","","","","","","","","","","","","","595.9928296799515","269.0069704024562","1551","","","","","","","","","","","","","",""
"","","","","","html-keyboard-response","149","570147","0.0-15.0-1.5","63eac01fdd7ce6b0923a36e2","64d3ef96556dbe1f0e02b5aa","64da63f7e55b62d438ba8b51","","","","","","","","","","","","","","","","","","reconstruct","","","","","","595.9928296799515","269.0069704024562","1551","","","","","","","","","","","60","4","500","350"
"","","","","","html-keyboard-response","150","573150","0.0-15.0-0.6","63eac01fdd7ce6b0923a36e2","64d3ef96556dbe1f0e02b5aa","64da63f7e55b62d438ba8b51","","null","","","","","","","","","","","","","null","","","fallScene","","","","","","","","","","","","","false","144","322.3","308.07114317029976","253.89","2","61","","",""
"","","","","","html-keyboard-response","151","575278","0.0-15.0-1.6","63eac01fdd7ce6b0923a36e2","64d3ef96556dbe1f0e02b5aa","64da63f7e55b62d438ba8b51","","","","","","","","","","","","","","","","","","","","","","","","285.9900004997401","236.00009997276072","2129","","","","","","","","","","","","","",""
"","","","","","html-keyboard-response","151","575278","0.0-15.0-1.6","63eac01fdd7ce6b0923a36e2","64d3ef96556dbe1f0e02b5aa","64da63f7e55b62d438ba8b51","","","","","","","","","","","","","","","","","","reconstruct","","","","","","285.9900004997401","236.00009997276072","2129","","","","","","","","","","","61","5","625","250"
"","","","","","html-keyboard-response","152","578280","0.0-15.0-0.7","63eac01fdd7ce6b0923a36e2","64d3ef96556dbe1f0e02b5aa","64da63f7e55b62d438ba8b51","","null","","","","","","","","","","","","","null","","","fallScene","","","","","","","","","","","","","false","144","604.4000000000001","650.0211431702996","404.58000000000004","11","62","","",""
"","","","","","html-keyboard-response","153","580584","0.0-15.0-1.7","63eac01fdd7ce6b0923a36e2","64d3ef96556dbe1f0e02b5aa","64da63f7e55b62d438ba8b51","","","","","","","","","","","","","","","","","","","","","","","","645.0000433963572","238.99000009416264","2305","","","","","","","","","","","","","",""
"","","","","","html-keyboard-response","153","580584","0.0-15.0-1.7","63eac01fdd7ce6b0923a36e2","64d3ef96556dbe1f0e02b5aa","64da63f7e55b62d438ba8b51","","","","","","","","","","","","","","","","","","reconstruct","","","","","","645.0000433963572","238.99000009416264","2305","","","","","","","","","","","62","4","500","350"
"","","","","","html-keyboard-response","154","583587","0.0-15.0-0.8","63eac01fdd7ce6b0923a36e2","64d3ef96556dbe1f0e02b5aa","64da63f7e55b62d438ba8b51","","null","","","","","","","","","","","","","null","","","fallScene","","","","","","","","","","","","","false","144","604.4000000000001","596.8711431702998","394.5","10","63","","",""
"","","","","","html-keyboard-response","155","585724","0.0-15.0-1.8","63eac01fdd7ce6b0923a36e2","64d3ef96556dbe1f0e02b5aa","64da63f7e55b62d438ba8b51","","","","","","","","","","","","","","","","","","","","","","","","515.01","243","2137","","","","","","","","","","","","","",""
"","","","","","html-keyboard-response","155","585724","0.0-15.0-1.8","63eac01fdd7ce6b0923a36e2","64d3ef96556dbe1f0e02b5aa","64da63f7e55b62d438ba8b51","","","","","","","","","","","","","","","","","","reconstruct","","","","","","515.01","243","2137","","","","","","","","","","","63","5","625","250"
"","","","","","html-keyboard-response","156","588726","0.0-15.0-0.9","63eac01fdd7ce6b0923a36e2","64d3ef96556dbe1f0e02b5aa","64da63f7e55b62d438ba8b51","","null","","","","","","","","","","","","","null","","","fallScene","","","","","","","","","","","","","true","144","322.3","308.07114317029976","253.89","2","64","","",""
"","","","","","html-keyboard-response","157","590084","0.0-15.0-1.9","63eac01fdd7ce6b0923a36e2","64d3ef96556dbe1f0e02b5aa","64da63f7e55b62d438ba8b51","","","","","","","","","","","","","","","","","","","","","","","","631.9911859957082","245.9952763014127","1359","","","","","","","","","","","","","",""
"","","","","","html-keyboard-response","157","590084","0.0-15.0-1.9","63eac01fdd7ce6b0923a36e2","64d3ef96556dbe1f0e02b5aa","64da63f7e55b62d438ba8b51","","","","","","","","","","","","","","","","","","reconstruct","","","","","","631.9911859957082","245.9952763014127","1359","","","","","","","","","","","64","1","375","250"
"","","","","","html-keyboard-response","158","593086","0.0-15.0-0.10","63eac01fdd7ce6b0923a36e2","64d3ef96556dbe1f0e02b5aa","64da63f7e55b62d438ba8b51","","null","","","","","","","","","","","","","null","","","fallScene","","","","","","","","","","","","","false","144","604.4000000000001","596.8711431702998","394.5","10","65","","",""
"","","","","","html-keyboard-response","159","594660","0.0-15.0-1.10","63eac01fdd7ce6b0923a36e2","64d3ef96556dbe1f0e02b5aa","64da63f7e55b62d438ba8b51","","","","","","","","","","","","","","","","","","","","","","","","580.9903098731993","226.00247010983296","1574","","","","","","","","","","","","","",""
"","","","","","html-keyboard-response","159","594660","0.0-15.0-1.10","63eac01fdd7ce6b0923a36e2","64d3ef96556dbe1f0e02b5aa","64da63f7e55b62d438ba8b51","","","","","","","","","","","","","","","","","","reconstruct","","","","","","580.9903098731993","226.00247010983296","1574","","","","","","","","","","","65","4","500","350"
"","","","","","html-keyboard-response","160","597663","0.0-15.0-0.11","63eac01fdd7ce6b0923a36e2","64d3ef96556dbe1f0e02b5aa","64da63f7e55b62d438ba8b51","","null","","","","","","","","","","","","","null","","","fallScene","","","","","","","","","","","","","false","144","500","553.4711431702997","282.51","7","66","","",""
"","","","","","html-keyboard-response","161","600513","0.0-15.0-1.11","63eac01fdd7ce6b0923a36e2","64d3ef96556dbe1f0e02b5aa","64da63f7e55b62d438ba8b51","","","","","","","","","","","","","","","","","","","","","","","","550.0070461616207","205.00709588658418","2849","","","","","","","","","","","","","",""
"","","","","","html-keyboard-response","161","600513","0.0-15.0-1.11","63eac01fdd7ce6b0923a36e2","64d3ef96556dbe1f0e02b5aa","64da63f7e55b62d438ba8b51","","","","","","","","","","","","","","","","","","reconstruct","","","","","","550.0070461616207","205.00709588658418","2849","","","","","","","","","","","66","5","625","250"
"","","","","","html-keyboard-response","162","603515","0.0-15.0-0.12","63eac01fdd7ce6b0923a36e2","64d3ef96556dbe1f0e02b5aa","64da63f7e55b62d438ba8b51","","null","","","","","","","","","","","","","null","","","fallScene","","","","","","","","","","","","","true","144","322.3","296.07114317029976","371.46","3","67","","",""
"","","","","","html-keyboard-response","163","605892","0.0-15.0-1.12","63eac01fdd7ce6b0923a36e2","64d3ef96556dbe1f0e02b5aa","64da63f7e55b62d438ba8b51","","","","","","","","","","","","","","","","","","","","","","","","631.9986934162393","251.99008572549923","2377","","","","","","","","","","","","","",""
"","","","","","html-keyboard-response","163","605892","0.0-15.0-1.12","63eac01fdd7ce6b0923a36e2","64d3ef96556dbe1f0e02b5aa","64da63f7e55b62d438ba8b51","","","","","","","","","","","","","","","","","","reconstruct","","","","","","631.9986934162393","251.99008572549923","2377","","","","","","","","","","","67","6","625","350"
"","","","","","html-keyboard-response","164","608894","0.0-15.0-0.13","63eac01fdd7ce6b0923a36e2","64d3ef96556dbe1f0e02b5aa","64da63f7e55b62d438ba8b51","","null","","","","","","","","","","","","","null","","","fallScene","","","","","","","","","","","","","false","144","604.4000000000001","667.6211431702998","201.78","9","68","","",""
"","","","","","html-keyboard-response","165","610585","0.0-15.0-1.13","63eac01fdd7ce6b0923a36e2","64d3ef96556dbe1f0e02b5aa","64da63f7e55b62d438ba8b51","","","","","","","","","","","","","","","","","","","","","","","","687.01","255","1690","","","","","","","","","","","","","",""
"","","","","","html-keyboard-response","165","610585","0.0-15.0-1.13","63eac01fdd7ce6b0923a36e2","64d3ef96556dbe1f0e02b5aa","64da63f7e55b62d438ba8b51","","","","","","","","","","","","","","","","","","reconstruct","","","","","","687.01","255","1690","","","","","","","","","","","68","2","375","350"
"","","","","","html-keyboard-response","166","613593","0.0-15.0-0.14","63eac01fdd7ce6b0923a36e2","64d3ef96556dbe1f0e02b5aa","64da63f7e55b62d438ba8b51","","null","","","","","","","","","","","","","null","","","fallScene","","","","","","","","","","","","","false","144","604.4000000000001","575.4211431702997","266.76","12","69","","",""
"","","","","","html-keyboard-response","167","615253","0.0-15.0-1.14","63eac01fdd7ce6b0923a36e2","64d3ef96556dbe1f0e02b5aa","64da63f7e55b62d438ba8b51","","","","","","","","","","","","","","","","","","","","","","","","545.0000000000057","260.01","1660","","","","","","","","","","","","","",""
"","","","","","html-keyboard-response","167","615253","0.0-15.0-1.14","63eac01fdd7ce6b0923a36e2","64d3ef96556dbe1f0e02b5aa","64da63f7e55b62d438ba8b51","","","","","","","","","","","","","","","","","","reconstruct","","","","","","545.0000000000057","260.01","1660","","","","","","","","","","","69","6","625","350"
"","","","","","html-keyboard-response","168","618255","0.0-15.0-0.15","63eac01fdd7ce6b0923a36e2","64d3ef96556dbe1f0e02b5aa","64da63f7e55b62d438ba8b51","","null","","","","","","","","","","","","","null","","","fallScene","","","","","","","","","","","","","false","144","604.4000000000001","596.8711431702998","394.5","10","70","","",""
"","","","","","html-keyboard-response","169","620409","0.0-15.0-1.15","63eac01fdd7ce6b0923a36e2","64d3ef96556dbe1f0e02b5aa","64da63f7e55b62d438ba8b51","","","","","","","","","","","","","","","","","","","","","","","","569.99","274","2153","","","","","","","","","","","","","",""
"","","","","","html-keyboard-response","169","620409","0.0-15.0-1.15","63eac01fdd7ce6b0923a36e2","64d3ef96556dbe1f0e02b5aa","64da63f7e55b62d438ba8b51","","","","","","","","","","","","","","","","","","reconstruct","","","","","","569.99","274","2153","","","","","","","","","","","70","2","375","350"
"","","","","","html-keyboard-response","170","623411","0.0-15.0-0.16","63eac01fdd7ce6b0923a36e2","64d3ef96556dbe1f0e02b5aa","64da63f7e55b62d438ba8b51","","null","","","","","","","","","","","","","null","","","fallScene","","","","","","","","","","","","","true","144","500","510.8711431702997","369.03","8","71","","",""
"","","","","","html-keyboard-response","171","624862","0.0-15.0-1.16","63eac01fdd7ce6b0923a36e2","64d3ef96556dbe1f0e02b5aa","64da63f7e55b62d438ba8b51","","","","","","","","","","","","","","","","","","","","","","","","456.0000731732067","291.9900002677195","1450","","","","","","","","","","","","","",""
"","","","","","html-keyboard-response","171","624862","0.0-15.0-1.16","63eac01fdd7ce6b0923a36e2","64d3ef96556dbe1f0e02b5aa","64da63f7e55b62d438ba8b51","","","","","","","","","","","","","","","","","","reconstruct","","","","","","456.0000731732067","291.9900002677195","1450","","","","","","","","","","","71","3","500","250"
"","","","","","html-keyboard-response","172","627864","0.0-15.0-0.17","63eac01fdd7ce6b0923a36e2","64d3ef96556dbe1f0e02b5aa","64da63f7e55b62d438ba8b51","","null","","","","","","","","","","","","","null","","","fallScene","","","","","","","","","","","","","false","144","322.3","308.07114317029976","253.89","2","72","","",""
"","","","","","html-keyboard-response","173","629781","0.0-15.0-1.17","63eac01fdd7ce6b0923a36e2","64d3ef96556dbe1f0e02b5aa","64da63f7e55b62d438ba8b51","","","","","","","","","","","","","","","","","","","","","","","","298.0099732183067","300.99926862006697","1917","","","","","","","","","","","","","",""
"","","","","","html-keyboard-response","173","629781","0.0-15.0-1.17","63eac01fdd7ce6b0923a36e2","64d3ef96556dbe1f0e02b5aa","64da63f7e55b62d438ba8b51","","","","","","","","","","","","","","","","","","reconstruct","","","","","","298.0099732183067","300.99926862006697","1917","","","","","","","","","","","72","6","625","350"
"","","","","","survey-text","174","654520","0.0-16.0","63eac01fdd7ce6b0923a36e2","64d3ef96556dbe1f0e02b5aa","64da63f7e55b62d438ba8b51","","24738","","","","","","","","","","","","","{""Summary"":""a ball drops and hits a triangle behind a grey screen. i had to choose where the triangle was behind the screen ""}","","","","","","","","","","","","","","","","","","","","","","","","",""
"","","","","","survey-text","175","658900","0.0-17.0","63eac01fdd7ce6b0923a36e2","64d3ef96556dbe1f0e02b5aa","64da63f7e55b62d438ba8b51","","4379","","","","","","","","","","","","","{""Comments"":""n/a""}","","","","","","","","","","","","","","","","","","","","","","","","",""
