"success","timeout","failed_images","failed_audio","failed_video","trial_type","trial_index","time_elapsed","internal_node_id","subject_id","study_id","session_id","view_history","rt","width","height","webaudio","browser","browser_version","mobile","os","fullscreen","vsync_rate","webcam","microphone","url","response","triangle_prac_final_x","triangle_prac_final_y","trial_name","stimulus","ball_X_prac_occ","ball_Y_prac_occ","obstacle_X_prac_occ","obstacle_Y_prac_occ","triangle_final_x","triangle_final_y","response_time","obstacle_X_prac_occ_init","obstacle_Y_prac_occ_init","question_order","flipped","runnerFPS","ball_X","obstacle_groundTruth_x","obstacle_groundTruth_y","stimulus_idx","currentTrial","obstacle_idx","obstacle_initial_x","obstacle_initial_y"
"true","false","[]","[]","[]","preload","0","96","0.0-0.0","63f78d9a7a3d118594efff74","64d3ef96556dbe1f0e02b5aa","64db812822e0dc8423354c67","","","","","","","","","","","","","","","","","","","","","","","","","","","","","","","","","","","","","","",""
"","","","","","instructions","1","122019","0.0-1.0","63f78d9a7a3d118594efff74","64d3ef96556dbe1f0e02b5aa","64db812822e0dc8423354c67","[{""page_index"":0,""viewing_time"":121921}]","121922","","","","","","","","","","","","","","","","","","","","","","","","","","","","","","","","","","","","",""
"","","","","","browser-check","2","122282","0.0-2.0","63f78d9a7a3d118594efff74","64d3ef96556dbe1f0e02b5aa","64db812822e0dc8423354c67","","","1885","939","true","chrome","114.0.0","false","Windows 10","true","233.19","true","true","","","","","","","","","","","","","","","","","","","","","","","","","",""
"","","","","","external-html","3","140739","0.0-3.0","63f78d9a7a3d118594efff74","64d3ef96556dbe1f0e02b5aa","64db812822e0dc8423354c67","","18133","","","","","","","","","","","","consent.html","","","","","","","","","","","","","","","","","","","","","","","","",""
"true","","","","","fullscreen","4","145736","0.0-4.0","63f78d9a7a3d118594efff74","64d3ef96556dbe1f0e02b5aa","64db812822e0dc8423354c67","","4480","","","","","","","","","","","","","","","","","","","","","","","","","","","","","","","","","","","","",""
"","","","","","survey-text","5","151950","0.0-5.0","63f78d9a7a3d118594efff74","64d3ef96556dbe1f0e02b5aa","64db812822e0dc8423354c67","","6211","","","","","","","","","","","","","{""prolificID"":""63f78d9a7a3d118594efff74""}","","","","","","","","","","","","","","","","","","","","","","","",""
"","","","","","browser-check","6","152199","0.0-6.0","63f78d9a7a3d118594efff74","64d3ef96556dbe1f0e02b5aa","64db812822e0dc8423354c67","","","1920","1080","true","chrome","114.0.0","false","Windows 10","true","242.52","true","true","","","","","","","","","","","","","","","","","","","","","","","","","",""
"","","","","","instructions","7","235935","0.0-7.0-0.0-0.0","63f78d9a7a3d118594efff74","64d3ef96556dbe1f0e02b5aa","64db812822e0dc8423354c67","[{""page_index"":0,""viewing_time"":58804},{""page_index"":1,""viewing_time"":10739},{""page_index"":2,""viewing_time"":5605},{""page_index"":3,""viewing_time"":8588}]","83737","","","","","","","","","","","","","","","","","","","","","","","","","","","","","","","","","","","","",""
"","","","","","html-keyboard-response","8","249481","0.0-7.0-0.0-1.0","63f78d9a7a3d118594efff74","64d3ef96556dbe1f0e02b5aa","64db812822e0dc8423354c67","","","","","","","","","","","","","","","","473.0183445634125","316.99531060846704","","","","","","","","","","","","","","","","","","","","","",""
"","","","","","html-keyboard-response","8","249481","0.0-7.0-0.0-1.0","63f78d9a7a3d118594efff74","64d3ef96556dbe1f0e02b5aa","64db812822e0dc8423354c67","","","","","","","","","","","","","","","","","","practiceTrial_move","","","","","","","","","","","","","","","","","","","","",""
"","","","","","html-button-response","9","306184","0.0-7.0-0.0-2.0","63f78d9a7a3d118594efff74","64d3ef96556dbe1f0e02b5aa","64db812822e0dc8423354c67","","56701","","","","","","","","","","","","","0","","","","<p>To help you get more comfortable with the task, let's begin with a practice trial first!</p><p>As described previously, you will first see a video of a ball falling, some of it behind a gray screen.</p><p>After the video, you will drag a triangle to the spot you think the ball hit the triangle behind the screen.</p><p>Click 'Next' to start your practice trial.</p>","","","","","","","","","","","","","","","","","","","",""
"","","","","","html-keyboard-response","10","309191","0.0-7.0-0.0-3.0","63f78d9a7a3d118594efff74","64d3ef96556dbe1f0e02b5aa","64db812822e0dc8423354c67","","null","","","","","","","","","","","","","null","","","fallScene_practiceTrial_withOccluder","","400","50","420","415","","","","","","","","","","","","","","","",""
"","","","","","html-keyboard-response","11","312276","0.0-7.0-0.0-4.0","63f78d9a7a3d118594efff74","64d3ef96556dbe1f0e02b5aa","64db812822e0dc8423354c67","","","","","","","","","","","","","","","","","","","","","","","","385.0070358048155","366.9928938441758","3084.300000011921","","","","","","","","","","","","",""
"","","","","","html-keyboard-response","11","312276","0.0-7.0-0.0-4.0","63f78d9a7a3d118594efff74","64d3ef96556dbe1f0e02b5aa","64db812822e0dc8423354c67","","","","","","","","","","","","","","","","","","reconstruct_practiceTrial_withOccluder","","","","","","385.0070358048155","366.9928938441758","3084.300000011921","500","300","","","","","","","","","","",""
"","","","","","html-button-response","12","318674","0.0-7.0-0.0-5.0","63f78d9a7a3d118594efff74","64d3ef96556dbe1f0e02b5aa","64db812822e0dc8423354c67","","6396","","","","","","","","","","","","","1","","","","<p>Ok! We're almost ready to get started.</p><p>We just have a <b>brief quiz</b>, to make sure you understood the task.</p><p>If you need to review the instructions, click 'Previous'.</p><p>It's important to understand the task to do the study, so you have to pass the quiz to move to the study.</p>","","","","","","","","","","","","","","","","","","","",""
"","","","","","survey-multi-choice","13","336829","0.0-7.0-1.0-0.0","63f78d9a7a3d118594efff74","64d3ef96556dbe1f0e02b5aa","64db812822e0dc8423354c67","","18154","","","","","","","","","","","","","{""generalProcedure"":""Watch a video of a ball falling, some of it behind a gray screen. After each video, drag a triangle to where I think the ball hit the triangle behind the screen.""}","","","","","","","","","","","","","","[0]","","","","","","","","","",""
"","","","","","survey-multi-choice","14","343615","0.0-7.0-1.0-1.0","63f78d9a7a3d118594efff74","64d3ef96556dbe1f0e02b5aa","64db812822e0dc8423354c67","","6784","","","","","","","","","","","","","{""checkBallHitObstacle"":""Yes.""}","","","","","","","","","","","","","","[0]","","","","","","","","","",""
"","","","","","survey-multi-choice","15","348732","0.0-7.0-1.0-2.0","63f78d9a7a3d118594efff74","64d3ef96556dbe1f0e02b5aa","64db812822e0dc8423354c67","","5115","","","","","","","","","","","","","{""checkTriangleVisibility"":""No, the triangle is hidden behind the gray screen.""}","","","","","","","","","","","","","","[0]","","","","","","","","","",""
"","","","","","instructions","16","359748","0.0-8.0","63f78d9a7a3d118594efff74","64d3ef96556dbe1f0e02b5aa","64db812822e0dc8423354c67","[{""page_index"":0,""viewing_time"":11013}]","11014","","","","","","","","","","","","","","","","","","","","","","","","","","","","","","","","","","","","",""
"","","","","","html-keyboard-response","17","362753","0.0-9.0-0.0","63f78d9a7a3d118594efff74","64d3ef96556dbe1f0e02b5aa","64db812822e0dc8423354c67","","null","","","","","","","","","","","","","null","","","fallScene","","","","","","","","","","","","false","238.24418799998915","500","479.92114317029973","330.87","6","1","","",""
"","","","","","html-keyboard-response","18","370509","0.0-9.0-1.0","63f78d9a7a3d118594efff74","64d3ef96556dbe1f0e02b5aa","64db812822e0dc8423354c67","","","","","","","","","","","","","","","","","","","","","","","","491.010000000014","331.99","7756.099999964237","","","","","","","","","","","","",""
"","","","","","html-keyboard-response","18","370509","0.0-9.0-1.0","63f78d9a7a3d118594efff74","64d3ef96556dbe1f0e02b5aa","64db812822e0dc8423354c67","","","","","","","","","","","","","","","","","","reconstruct","","","","","","491.010000000014","331.99","7756.099999964237","","","","","","","","","","1","1","375","250"
"","","","","","html-keyboard-response","19","373512","0.0-9.0-0.1","63f78d9a7a3d118594efff74","64d3ef96556dbe1f0e02b5aa","64db812822e0dc8423354c67","","null","","","","","","","","","","","","","null","","","fallScene","","","","","","","","","","","","true","239.22466000000057","604.4000000000001","575.4211431702997","266.76","12","2","","",""
"","","","","","html-keyboard-response","20","375605","0.0-9.0-1.1","63f78d9a7a3d118594efff74","64d3ef96556dbe1f0e02b5aa","64db812822e0dc8423354c67","","","","","","","","","","","","","","","","","","","","","","","","403.99","346","2092.899999976158","","","","","","","","","","","","",""
"","","","","","html-keyboard-response","20","375605","0.0-9.0-1.1","63f78d9a7a3d118594efff74","64d3ef96556dbe1f0e02b5aa","64db812822e0dc8423354c67","","","","","","","","","","","","","","","","","","reconstruct","","","","","","403.99","346","2092.899999976158","","","","","","","","","","2","6","625","350"
"","","","","","html-keyboard-response","21","378609","0.0-9.0-0.2","63f78d9a7a3d118594efff74","64d3ef96556dbe1f0e02b5aa","64db812822e0dc8423354c67","","null","","","","","","","","","","","","","null","","","fallScene","","","","","","","","","","","","true","237.23202299999812","500","453.67114317029973","210.33","5","3","","",""
"","","","","","html-keyboard-response","22","383272","0.0-9.0-1.2","63f78d9a7a3d118594efff74","64d3ef96556dbe1f0e02b5aa","64db812822e0dc8423354c67","","","","","","","","","","","","","","","","","","","","","","","","512.99","271.99999999990393","4662.300000011921","","","","","","","","","","","","",""
"","","","","","html-keyboard-response","22","383272","0.0-9.0-1.2","63f78d9a7a3d118594efff74","64d3ef96556dbe1f0e02b5aa","64db812822e0dc8423354c67","","","","","","","","","","","","","","","","","","reconstruct","","","","","","512.99","271.99999999990393","4662.300000011921","","","","","","","","","","3","1","375","250"
"","","","","","html-keyboard-response","23","386275","0.0-9.0-0.3","63f78d9a7a3d118594efff74","64d3ef96556dbe1f0e02b5aa","64db812822e0dc8423354c67","","null","","","","","","","","","","","","","null","","","fallScene","","","","","","","","","","","","false","236.23576400000252","322.3","308.07114317029976","253.89","2","4","","",""
"","","","","","html-keyboard-response","24","391141","0.0-9.0-1.3","63f78d9a7a3d118594efff74","64d3ef96556dbe1f0e02b5aa","64db812822e0dc8423354c67","","","","","","","","","","","","","","","","","","","","","","","","325.00999950018746","245.00009998000314","4865.099999964237","","","","","","","","","","","","",""
"","","","","","html-keyboard-response","24","391141","0.0-9.0-1.3","63f78d9a7a3d118594efff74","64d3ef96556dbe1f0e02b5aa","64db812822e0dc8423354c67","","","","","","","","","","","","","","","","","","reconstruct","","","","","","325.00999950018746","245.00009998000314","4865.099999964237","","","","","","","","","","4","1","375","250"
"","","","","","html-keyboard-response","25","394146","0.0-9.0-0.4","63f78d9a7a3d118594efff74","64d3ef96556dbe1f0e02b5aa","64db812822e0dc8423354c67","","null","","","","","","","","","","","","","null","","","fallScene","","","","","","","","","","","","false","240.23952000000514","500","553.4711431702997","282.51","7","5","","",""
"","","","","","html-keyboard-response","26","399210","0.0-9.0-1.4","63f78d9a7a3d118594efff74","64d3ef96556dbe1f0e02b5aa","64db812822e0dc8423354c67","","","","","","","","","","","","","","","","","","","","","","","","510.00185077933577","299.00017294796754","5064.400000035763","","","","","","","","","","","","",""
"","","","","","html-keyboard-response","26","399210","0.0-9.0-1.4","63f78d9a7a3d118594efff74","64d3ef96556dbe1f0e02b5aa","64db812822e0dc8423354c67","","","","","","","","","","","","","","","","","","reconstruct","","","","","","510.00185077933577","299.00017294796754","5064.400000035763","","","","","","","","","","5","2","375","350"
"","","","","","html-keyboard-response","27","402213","0.0-9.0-0.5","63f78d9a7a3d118594efff74","64d3ef96556dbe1f0e02b5aa","64db812822e0dc8423354c67","","null","","","","","","","","","","","","","null","","","fallScene","","","","","","","","","","","","false","240.24143999999853","322.3","296.07114317029976","371.46","3","6","","",""
"","","","","","html-keyboard-response","28","406554","0.0-9.0-1.5","63f78d9a7a3d118594efff74","64d3ef96556dbe1f0e02b5aa","64db812822e0dc8423354c67","","","","","","","","","","","","","","","","","","","","","","","","308.00010986395455","333.0099993964774","4340.699999988079","","","","","","","","","","","","",""
"","","","","","html-keyboard-response","28","406554","0.0-9.0-1.5","63f78d9a7a3d118594efff74","64d3ef96556dbe1f0e02b5aa","64db812822e0dc8423354c67","","","","","","","","","","","","","","","","","","reconstruct","","","","","","308.00010986395455","333.0099993964774","4340.699999988079","","","","","","","","","","6","1","375","250"
"","","","","","html-keyboard-response","29","409558","0.0-9.0-0.6","63f78d9a7a3d118594efff74","64d3ef96556dbe1f0e02b5aa","64db812822e0dc8423354c67","","null","","","","","","","","","","","","","null","","","fallScene","","","","","","","","","","","","true","239.229440000005","604.4000000000001","667.6211431702998","201.78","9","7","","",""
"","","","","","html-keyboard-response","30","415143","0.0-9.0-1.6","63f78d9a7a3d118594efff74","64d3ef96556dbe1f0e02b5aa","64db812822e0dc8423354c67","","","","","","","","","","","","","","","","","","","","","","","","361.00000048522116","375.9999014901229","5584.700000047684","","","","","","","","","","","","",""
"","","","","","html-keyboard-response","30","415143","0.0-9.0-1.6","63f78d9a7a3d118594efff74","64d3ef96556dbe1f0e02b5aa","64db812822e0dc8423354c67","","","","","","","","","","","","","","","","","","reconstruct","","","","","","361.00000048522116","375.9999014901229","5584.700000047684","","","","","","","","","","7","4","500","350"
"","","","","","html-keyboard-response","31","418145","0.0-9.0-0.7","63f78d9a7a3d118594efff74","64d3ef96556dbe1f0e02b5aa","64db812822e0dc8423354c67","","null","","","","","","","","","","","","","null","","","fallScene","","","","","","","","","","","","false","239.23828299999377","604.4000000000001","575.4211431702997","266.76","12","8","","",""
"","","","","","html-keyboard-response","32","426213","0.0-9.0-1.7","63f78d9a7a3d118594efff74","64d3ef96556dbe1f0e02b5aa","64db812822e0dc8423354c67","","","","","","","","","","","","","","","","","","","","","","","","559.0112805521849","267.9803300762389","8066.400000035763","","","","","","","","","","","","",""
"","","","","","html-keyboard-response","32","426213","0.0-9.0-1.7","63f78d9a7a3d118594efff74","64d3ef96556dbe1f0e02b5aa","64db812822e0dc8423354c67","","","","","","","","","","","","","","","","","","reconstruct","","","","","","559.0112805521849","267.9803300762389","8066.400000035763","","","","","","","","","","8","1","375","250"
"","","","","","html-keyboard-response","33","429215","0.0-9.0-0.8","63f78d9a7a3d118594efff74","64d3ef96556dbe1f0e02b5aa","64db812822e0dc8423354c67","","null","","","","","","","","","","","","","null","","","fallScene","","","","","","","","","","","","false","239.25286200000457","322.3","379.3711431702997","245.25","1","9","","",""
"","","","","","html-keyboard-response","34","434980","0.0-9.0-1.8","63f78d9a7a3d118594efff74","64d3ef96556dbe1f0e02b5aa","64db812822e0dc8423354c67","","","","","","","","","","","","","","","","","","","","","","","","357.99999999677","343.000000322513","5764.899999976158","","","","","","","","","","","","",""
"","","","","","html-keyboard-response","34","434980","0.0-9.0-1.8","63f78d9a7a3d118594efff74","64d3ef96556dbe1f0e02b5aa","64db812822e0dc8423354c67","","","","","","","","","","","","","","","","","","reconstruct","","","","","","357.99999999677","343.000000322513","5764.899999976158","","","","","","","","","","9","2","375","350"
"","","","","","html-keyboard-response","35","437983","0.0-9.0-0.9","63f78d9a7a3d118594efff74","64d3ef96556dbe1f0e02b5aa","64db812822e0dc8423354c67","","null","","","","","","","","","","","","","null","","","fallScene","","","","","","","","","","","","true","240.23760000001172","500","479.92114317029973","330.87","6","10","","",""
"","","","","","html-keyboard-response","36","442548","0.0-9.0-1.9","63f78d9a7a3d118594efff74","64d3ef96556dbe1f0e02b5aa","64db812822e0dc8423354c67","","","","","","","","","","","","","","","","","","","","","","","","537.9912405320656","332.00482407726986","4564","","","","","","","","","","","","",""
"","","","","","html-keyboard-response","36","442548","0.0-9.0-1.9","63f78d9a7a3d118594efff74","64d3ef96556dbe1f0e02b5aa","64db812822e0dc8423354c67","","","","","","","","","","","","","","","","","","reconstruct","","","","","","537.9912405320656","332.00482407726986","4564","","","","","","","","","","10","5","625","250"
"","","","","","html-keyboard-response","37","445550","0.0-9.0-0.10","63f78d9a7a3d118594efff74","64d3ef96556dbe1f0e02b5aa","64db812822e0dc8423354c67","","null","","","","","","","","","","","","","null","","","fallScene","","","","","","","","","","","","false","236.24756399999976","500","510.8711431702997","369.03","8","11","","",""
"","","","","","html-keyboard-response","38","451595","0.0-9.0-1.10","63f78d9a7a3d118594efff74","64d3ef96556dbe1f0e02b5aa","64db812822e0dc8423354c67","","","","","","","","","","","","","","","","","","","","","","","","569.9900004698499","233.0000969369774","6044.5","","","","","","","","","","","","",""
"","","","","","html-keyboard-response","38","451595","0.0-9.0-1.10","63f78d9a7a3d118594efff74","64d3ef96556dbe1f0e02b5aa","64db812822e0dc8423354c67","","","","","","","","","","","","","","","","","","reconstruct","","","","","","569.9900004698499","233.0000969369774","6044.5","","","","","","","","","","11","1","375","250"
"","","","","","html-keyboard-response","39","454598","0.0-9.0-0.11","63f78d9a7a3d118594efff74","64d3ef96556dbe1f0e02b5aa","64db812822e0dc8423354c67","","null","","","","","","","","","","","","","null","","","fallScene","","","","","","","","","","","","false","235.22959500000317","322.3","379.3711431702997","245.25","1","12","","",""
"","","","","","html-keyboard-response","40","458648","0.0-9.0-1.11","63f78d9a7a3d118594efff74","64d3ef96556dbe1f0e02b5aa","64db812822e0dc8423354c67","","","","","","","","","","","","","","","","","","","","","","","","354.9999792529721","275.009999978478","4050.300000011921","","","","","","","","","","","","",""
"","","","","","html-keyboard-response","40","458648","0.0-9.0-1.11","63f78d9a7a3d118594efff74","64d3ef96556dbe1f0e02b5aa","64db812822e0dc8423354c67","","","","","","","","","","","","","","","","","","reconstruct","","","","","","354.9999792529721","275.009999978478","4050.300000011921","","","","","","","","","","12","5","625","250"
"","","","","","html-keyboard-response","41","461651","0.0-9.0-0.12","63f78d9a7a3d118594efff74","64d3ef96556dbe1f0e02b5aa","64db812822e0dc8423354c67","","null","","","","","","","","","","","","","null","","","fallScene","","","","","","","","","","","","true","239.24545300000045","604.4000000000001","575.4211431702997","266.76","12","13","","",""
"","","","","","html-keyboard-response","42","468089","0.0-9.0-1.12","63f78d9a7a3d118594efff74","64d3ef96556dbe1f0e02b5aa","64db812822e0dc8423354c67","","","","","","","","","","","","","","","","","","","","","","","","400.00000035513307","340.00999999999425","6437.5","","","","","","","","","","","","",""
"","","","","","html-keyboard-response","42","468089","0.0-9.0-1.12","63f78d9a7a3d118594efff74","64d3ef96556dbe1f0e02b5aa","64db812822e0dc8423354c67","","","","","","","","","","","","","","","","","","reconstruct","","","","","","400.00000035513307","340.00999999999425","6437.5","","","","","","","","","","13","3","500","250"
"","","","","","html-keyboard-response","43","471090","0.0-9.0-0.13","63f78d9a7a3d118594efff74","64d3ef96556dbe1f0e02b5aa","64db812822e0dc8423354c67","","null","","","","","","","","","","","","","null","","","fallScene","","","","","","","","","","","","false","238.2468060000027","604.4000000000001","667.6211431702998","201.78","9","14","","",""
"","","","","","html-keyboard-response","44","475445","0.0-9.0-1.13","63f78d9a7a3d118594efff74","64d3ef96556dbe1f0e02b5aa","64db812822e0dc8423354c67","","","","","","","","","","","","","","","","","","","","","","","","602.9999000766402","380.0099995007536","4354.599999964237","","","","","","","","","","","","",""
"","","","","","html-keyboard-response","44","475445","0.0-9.0-1.13","63f78d9a7a3d118594efff74","64d3ef96556dbe1f0e02b5aa","64db812822e0dc8423354c67","","","","","","","","","","","","","","","","","","reconstruct","","","","","","602.9999000766402","380.0099995007536","4354.599999964237","","","","","","","","","","14","6","625","350"
"","","","","","html-keyboard-response","45","478449","0.0-9.0-0.14","63f78d9a7a3d118594efff74","64d3ef96556dbe1f0e02b5aa","64db812822e0dc8423354c67","","null","","","","","","","","","","","","","null","","","fallScene","","","","","","","","","","","","true","235.23547000000866","604.4000000000001","596.8711431702998","394.5","10","15","","",""
"","","","","","html-keyboard-response","46","482119","0.0-9.0-1.14","63f78d9a7a3d118594efff74","64d3ef96556dbe1f0e02b5aa","64db812822e0dc8423354c67","","","","","","","","","","","","","","","","","","","","","","","","376.998343187228","260.9901382064796","3669.7999999523163","","","","","","","","","","","","",""
"","","","","","html-keyboard-response","46","482119","0.0-9.0-1.14","63f78d9a7a3d118594efff74","64d3ef96556dbe1f0e02b5aa","64db812822e0dc8423354c67","","","","","","","","","","","","","","","","","","reconstruct","","","","","","376.998343187228","260.9901382064796","3669.7999999523163","","","","","","","","","","15","2","375","350"
"","","","","","html-keyboard-response","47","485122","0.0-9.0-0.15","63f78d9a7a3d118594efff74","64d3ef96556dbe1f0e02b5aa","64db812822e0dc8423354c67","","null","","","","","","","","","","","","","null","","","fallScene","","","","","","","","","","","","false","229.2285420000049","500","553.4711431702997","282.51","7","16","","",""
"","","","","","html-keyboard-response","48","488124","0.0-9.0-1.15","63f78d9a7a3d118594efff74","64d3ef96556dbe1f0e02b5aa","64db812822e0dc8423354c67","","","","","","","","","","","","","","","","","","","","","","","","538.9900000003181","266.99999747775","3002","","","","","","","","","","","","",""
"","","","","","html-keyboard-response","48","488124","0.0-9.0-1.15","63f78d9a7a3d118594efff74","64d3ef96556dbe1f0e02b5aa","64db812822e0dc8423354c67","","","","","","","","","","","","","","","","","","reconstruct","","","","","","538.9900000003181","266.99999747775","3002","","","","","","","","","","16","3","500","250"
"","","","","","html-keyboard-response","49","491126","0.0-9.0-0.16","63f78d9a7a3d118594efff74","64d3ef96556dbe1f0e02b5aa","64db812822e0dc8423354c67","","null","","","","","","","","","","","","","null","","","fallScene","","","","","","","","","","","","false","231.23215500000106","500","453.67114317029973","210.33","5","17","","",""
"","","","","","html-keyboard-response","50","496102","0.0-9.0-1.16","63f78d9a7a3d118594efff74","64d3ef96556dbe1f0e02b5aa","64db812822e0dc8423354c67","","","","","","","","","","","","","","","","","","","","","","","","451.9988080333776","259.0099287066414","4975.199999988079","","","","","","","","","","","","",""
"","","","","","html-keyboard-response","50","496102","0.0-9.0-1.16","63f78d9a7a3d118594efff74","64d3ef96556dbe1f0e02b5aa","64db812822e0dc8423354c67","","","","","","","","","","","","","","","","","","reconstruct","","","","","","451.9988080333776","259.0099287066414","4975.199999988079","","","","","","","","","","17","6","625","350"
"","","","","","html-keyboard-response","51","499104","0.0-9.0-0.17","63f78d9a7a3d118594efff74","64d3ef96556dbe1f0e02b5aa","64db812822e0dc8423354c67","","null","","","","","","","","","","","","","null","","","fallScene","","","","","","","","","","","","true","235.23781999999713","500","553.4711431702997","282.51","7","18","","",""
"","","","","","html-keyboard-response","52","503170","0.0-9.0-1.17","63f78d9a7a3d118594efff74","64d3ef96556dbe1f0e02b5aa","64db812822e0dc8423354c67","","","","","","","","","","","","","","","","","","","","","","","","480.0072255878248","345.9930869051369","4065.7999999523163","","","","","","","","","","","","",""
"","","","","","html-keyboard-response","52","503170","0.0-9.0-1.17","63f78d9a7a3d118594efff74","64d3ef96556dbe1f0e02b5aa","64db812822e0dc8423354c67","","","","","","","","","","","","","","","","","","reconstruct","","","","","","480.0072255878248","345.9930869051369","4065.7999999523163","","","","","","","","","","18","1","375","250"
"","","","","","html-button-response","53","623180","0.0-10.0","63f78d9a7a3d118594efff74","64d3ef96556dbe1f0e02b5aa","64db812822e0dc8423354c67","","120008","","","","","","","","","","","","","0","","","","<p><span style = ""font-size:40px;"">BREAK</span></p><p>You are doing great! Click 'Next' when you are ready for the next set.</p>","","","","","","","","","","","","","","","","","","","",""
"","","","","","html-keyboard-response","54","626183","0.0-11.0-0.0","63f78d9a7a3d118594efff74","64d3ef96556dbe1f0e02b5aa","64db812822e0dc8423354c67","","null","","","","","","","","","","","","","null","","","fallScene","","","","","","","","","","","","false","240.2392800000077","500","453.67114317029973","210.33","5","19","","",""
"","","","","","html-keyboard-response","55","629435","0.0-11.0-1.0","63f78d9a7a3d118594efff74","64d3ef96556dbe1f0e02b5aa","64db812822e0dc8423354c67","","","","","","","","","","","","","","","","","","","","","","","","494.00991349391586","325.00131249319253","3251.599999964237","","","","","","","","","","","","",""
"","","","","","html-keyboard-response","55","629435","0.0-11.0-1.0","63f78d9a7a3d118594efff74","64d3ef96556dbe1f0e02b5aa","64db812822e0dc8423354c67","","","","","","","","","","","","","","","","","","reconstruct","","","","","","494.00991349391586","325.00131249319253","3251.599999964237","","","","","","","","","","19","5","625","250"
"","","","","","html-keyboard-response","56","632438","0.0-11.0-0.1","63f78d9a7a3d118594efff74","64d3ef96556dbe1f0e02b5aa","64db812822e0dc8423354c67","","null","","","","","","","","","","","","","null","","","fallScene","","","","","","","","","","","","true","240.2330400000047","604.4000000000001","575.4211431702997","266.76","12","20","","",""
"","","","","","html-keyboard-response","57","638376","0.0-11.0-1.1","63f78d9a7a3d118594efff74","64d3ef96556dbe1f0e02b5aa","64db812822e0dc8423354c67","","","","","","","","","","","","","","","","","","","","","","","","404.99000050773805","317.9899000199955","5938.299999952316","","","","","","","","","","","","",""
"","","","","","html-keyboard-response","57","638377","0.0-11.0-1.1","63f78d9a7a3d118594efff74","64d3ef96556dbe1f0e02b5aa","64db812822e0dc8423354c67","","","","","","","","","","","","","","","","","","reconstruct","","","","","","404.99000050773805","317.9899000199955","5938.299999952316","","","","","","","","","","20","5","625","250"
"","","","","","html-keyboard-response","58","641379","0.0-11.0-0.2","63f78d9a7a3d118594efff74","64d3ef96556dbe1f0e02b5aa","64db812822e0dc8423354c67","","null","","","","","","","","","","","","","null","","","fallScene","","","","","","","","","","","","false","234.2534219999963","322.3","308.07114317029976","253.89","2","21","","",""
"","","","","","html-keyboard-response","59","648301","0.0-11.0-1.2","63f78d9a7a3d118594efff74","64d3ef96556dbe1f0e02b5aa","64db812822e0dc8423354c67","","","","","","","","","","","","","","","","","","","","","","","","321.0097400687597","268.0021671623751","6920.799999952316","","","","","","","","","","","","",""
"","","","","","html-keyboard-response","59","648301","0.0-11.0-1.2","63f78d9a7a3d118594efff74","64d3ef96556dbe1f0e02b5aa","64db812822e0dc8423354c67","","","","","","","","","","","","","","","","","","reconstruct","","","","","","321.0097400687597","268.0021671623751","6920.799999952316","","","","","","","","","","21","6","625","350"
"","","","","","html-keyboard-response","60","651304","0.0-11.0-0.3","63f78d9a7a3d118594efff74","64d3ef96556dbe1f0e02b5aa","64db812822e0dc8423354c67","","null","","","","","","","","","","","","","null","","","fallScene","","","","","","","","","","","","false","234.23048999999673","322.3","296.07114317029976","371.46","3","22","","",""
"","","","","","html-keyboard-response","61","654809","0.0-11.0-1.3","63f78d9a7a3d118594efff74","64d3ef96556dbe1f0e02b5aa","64db812822e0dc8423354c67","","","","","","","","","","","","","","","","","","","","","","","","315.99031213647197","389.99752102838613","3503.5","","","","","","","","","","","","",""
"","","","","","html-keyboard-response","61","654809","0.0-11.0-1.3","63f78d9a7a3d118594efff74","64d3ef96556dbe1f0e02b5aa","64db812822e0dc8423354c67","","","","","","","","","","","","","","","","","","reconstruct","","","","","","315.99031213647197","389.99752102838613","3503.5","","","","","","","","","","22","4","500","350"
"","","","","","html-keyboard-response","62","657812","0.0-11.0-0.4","63f78d9a7a3d118594efff74","64d3ef96556dbe1f0e02b5aa","64db812822e0dc8423354c67","","null","","","","","","","","","","","","","null","","","fallScene","","","","","","","","","","","","false","238.2370480000102","604.4000000000001","667.6211431702998","201.78","9","23","","",""
"","","","","","html-keyboard-response","63","663307","0.0-11.0-1.4","63f78d9a7a3d118594efff74","64d3ef96556dbe1f0e02b5aa","64db812822e0dc8423354c67","","","","","","","","","","","","","","","","","","","","","","","","643.0099307718897","339.01006870655624","5494.599999964237","","","","","","","","","","","","",""
"","","","","","html-keyboard-response","63","663307","0.0-11.0-1.4","63f78d9a7a3d118594efff74","64d3ef96556dbe1f0e02b5aa","64db812822e0dc8423354c67","","","","","","","","","","","","","","","","","","reconstruct","","","","","","643.0099307718897","339.01006870655624","5494.599999964237","","","","","","","","","","23","2","375","350"
"","","","","","html-keyboard-response","64","666309","0.0-11.0-0.5","63f78d9a7a3d118594efff74","64d3ef96556dbe1f0e02b5aa","64db812822e0dc8423354c67","","null","","","","","","","","","","","","","null","","","fallScene","","","","","","","","","","","","false","240.23567999999037","500","553.4711431702997","282.51","7","24","","",""
"","","","","","html-keyboard-response","65","669826","0.0-11.0-1.5","63f78d9a7a3d118594efff74","64d3ef96556dbe1f0e02b5aa","64db812822e0dc8423354c67","","","","","","","","","","","","","","","","","","","","","","","","481.00965527475984","352.002603011585","3516.899999976158","","","","","","","","","","","","",""
"","","","","","html-keyboard-response","65","669826","0.0-11.0-1.5","63f78d9a7a3d118594efff74","64d3ef96556dbe1f0e02b5aa","64db812822e0dc8423354c67","","","","","","","","","","","","","","","","","","reconstruct","","","","","","481.00965527475984","352.002603011585","3516.899999976158","","","","","","","","","","24","5","625","250"
"","","","","","html-keyboard-response","66","672829","0.0-11.0-0.6","63f78d9a7a3d118594efff74","64d3ef96556dbe1f0e02b5aa","64db812822e0dc8423354c67","","null","","","","","","","","","","","","","null","","","fallScene","","","","","","","","","","","","false","234.233532000005","322.3","356.42114317029973","357.87","4","25","","",""
"","","","","","html-keyboard-response","67","678410","0.0-11.0-1.6","63f78d9a7a3d118594efff74","64d3ef96556dbe1f0e02b5aa","64db812822e0dc8423354c67","","","","","","","","","","","","","","","","","","","","","","","","358.01006987903145","366.99000110236045","5581.400000035763","","","","","","","","","","","","",""
"","","","","","html-keyboard-response","67","678410","0.0-11.0-1.6","63f78d9a7a3d118594efff74","64d3ef96556dbe1f0e02b5aa","64db812822e0dc8423354c67","","","","","","","","","","","","","","","","","","reconstruct","","","","","","358.01006987903145","366.99000110236045","5581.400000035763","","","","","","","","","","25","6","625","350"
"","","","","","html-keyboard-response","68","681412","0.0-11.0-0.7","63f78d9a7a3d118594efff74","64d3ef96556dbe1f0e02b5aa","64db812822e0dc8423354c67","","null","","","","","","","","","","","","","null","","","fallScene","","","","","","","","","","","","true","234.2330639999828","500","479.92114317029973","330.87","6","26","","",""
"","","","","","html-keyboard-response","69","686905","0.0-11.0-1.7","63f78d9a7a3d118594efff74","64d3ef96556dbe1f0e02b5aa","64db812822e0dc8423354c67","","","","","","","","","","","","","","","","","","","","","","","","513.0000000149917","294","5493","","","","","","","","","","","","",""
"","","","","","html-keyboard-response","69","686905","0.0-11.0-1.7","63f78d9a7a3d118594efff74","64d3ef96556dbe1f0e02b5aa","64db812822e0dc8423354c67","","","","","","","","","","","","","","","","","","reconstruct","","","","","","513.0000000149917","294","5493","","","","","","","","","","26","2","375","350"
"","","","","","html-keyboard-response","70","689907","0.0-11.0-0.8","63f78d9a7a3d118594efff74","64d3ef96556dbe1f0e02b5aa","64db812822e0dc8423354c67","","null","","","","","","","","","","","","","null","","","fallScene","","","","","","","","","","","","false","240.2299199999962","604.4000000000001","667.6211431702998","201.78","9","27","","",""
"","","","","","html-keyboard-response","71","693449","0.0-11.0-1.8","63f78d9a7a3d118594efff74","64d3ef96556dbe1f0e02b5aa","64db812822e0dc8423354c67","","","","","","","","","","","","","","","","","","","","","","","","600.0033877350268","371.0094086795773","3541.099999964237","","","","","","","","","","","","",""
"","","","","","html-keyboard-response","71","693449","0.0-11.0-1.8","63f78d9a7a3d118594efff74","64d3ef96556dbe1f0e02b5aa","64db812822e0dc8423354c67","","","","","","","","","","","","","","","","","","reconstruct","","","","","","600.0033877350268","371.0094086795773","3541.099999964237","","","","","","","","","","27","3","500","250"
"","","","","","html-keyboard-response","72","696451","0.0-11.0-0.9","63f78d9a7a3d118594efff74","64d3ef96556dbe1f0e02b5aa","64db812822e0dc8423354c67","","null","","","","","","","","","","","","","null","","","fallScene","","","","","","","","","","","","true","239.23804399998244","322.3","296.07114317029976","371.46","3","28","","",""
"","","","","","html-keyboard-response","73","700511","0.0-11.0-1.9","63f78d9a7a3d118594efff74","64d3ef96556dbe1f0e02b5aa","64db812822e0dc8423354c67","","","","","","","","","","","","","","","","","","","","","","","","650.9900000105389","375.0000145181675","4060.300000011921","","","","","","","","","","","","",""
"","","","","","html-keyboard-response","73","700511","0.0-11.0-1.9","63f78d9a7a3d118594efff74","64d3ef96556dbe1f0e02b5aa","64db812822e0dc8423354c67","","","","","","","","","","","","","","","","","","reconstruct","","","","","","650.9900000105389","375.0000145181675","4060.300000011921","","","","","","","","","","28","3","500","250"
"","","","","","html-keyboard-response","74","703513","0.0-11.0-0.10","63f78d9a7a3d118594efff74","64d3ef96556dbe1f0e02b5aa","64db812822e0dc8423354c67","","null","","","","","","","","","","","","","null","","","fallScene","","","","","","","","","","","","true","236.2357639999888","322.3","308.07114317029976","253.89","2","29","","",""
"","","","","","html-keyboard-response","75","707154","0.0-11.0-1.10","63f78d9a7a3d118594efff74","64d3ef96556dbe1f0e02b5aa","64db812822e0dc8423354c67","","","","","","","","","","","","","","","","","","","","","","","","626.0000999949999","297.0099995000375","3639.600000023842","","","","","","","","","","","","",""
"","","","","","html-keyboard-response","75","707154","0.0-11.0-1.10","63f78d9a7a3d118594efff74","64d3ef96556dbe1f0e02b5aa","64db812822e0dc8423354c67","","","","","","","","","","","","","","","","","","reconstruct","","","","","","626.0000999949999","297.0099995000375","3639.600000023842","","","","","","","","","","29","3","500","250"
"","","","","","html-keyboard-response","76","710156","0.0-11.0-0.11","63f78d9a7a3d118594efff74","64d3ef96556dbe1f0e02b5aa","64db812822e0dc8423354c67","","null","","","","","","","","","","","","","null","","","fallScene","","","","","","","","","","","","false","238.2353820000142","604.4000000000001","650.0211431702996","404.58000000000004","11","30","","",""
"","","","","","html-keyboard-response","77","713765","0.0-11.0-1.11","63f78d9a7a3d118594efff74","64d3ef96556dbe1f0e02b5aa","64db812822e0dc8423354c67","","","","","","","","","","","","","","","","","","","","","","","","639.01","387.0000000043862","3607.699999988079","","","","","","","","","","","","",""
"","","","","","html-keyboard-response","77","713765","0.0-11.0-1.11","63f78d9a7a3d118594efff74","64d3ef96556dbe1f0e02b5aa","64db812822e0dc8423354c67","","","","","","","","","","","","","","","","","","reconstruct","","","","","","639.01","387.0000000043862","3607.699999988079","","","","","","","","","","30","6","625","350"
"","","","","","html-keyboard-response","78","716767","0.0-11.0-0.12","63f78d9a7a3d118594efff74","64d3ef96556dbe1f0e02b5aa","64db812822e0dc8423354c67","","null","","","","","","","","","","","","","null","","","fallScene","","","","","","","","","","","","false","238.21967400001617","604.4000000000001","596.8711431702998","394.5","10","31","","",""
"","","","","","html-keyboard-response","79","721568","0.0-11.0-1.12","63f78d9a7a3d118594efff74","64d3ef96556dbe1f0e02b5aa","64db812822e0dc8423354c67","","","","","","","","","","","","","","","","","","","","","","","","643.989900054245","290.98998989882875","4801.199999988079","","","","","","","","","","","","",""
"","","","","","html-keyboard-response","79","721568","0.0-11.0-1.12","63f78d9a7a3d118594efff74","64d3ef96556dbe1f0e02b5aa","64db812822e0dc8423354c67","","","","","","","","","","","","","","","","","","reconstruct","","","","","","643.989900054245","290.98998989882875","4801.199999988079","","","","","","","","","","31","1","375","250"
"","","","","","html-keyboard-response","80","724570","0.0-11.0-0.13","63f78d9a7a3d118594efff74","64d3ef96556dbe1f0e02b5aa","64db812822e0dc8423354c67","","null","","","","","","","","","","","","","null","","","fallScene","","","","","","","","","","","","false","240.23664000000804","322.3","356.42114317029973","357.87","4","32","","",""
"","","","","","html-keyboard-response","81","734319","0.0-11.0-1.13","63f78d9a7a3d118594efff74","64d3ef96556dbe1f0e02b5aa","64db812822e0dc8423354c67","","","","","","","","","","","","","","","","","","","","","","","","342.00882666769957","370.0098145562181","9748.699999988079","","","","","","","","","","","","",""
"","","","","","html-keyboard-response","81","734319","0.0-11.0-1.13","63f78d9a7a3d118594efff74","64d3ef96556dbe1f0e02b5aa","64db812822e0dc8423354c67","","","","","","","","","","","","","","","","","","reconstruct","","","","","","342.00882666769957","370.0098145562181","9748.699999988079","","","","","","","","","","32","2","375","350"
"","","","","","html-keyboard-response","82","737321","0.0-11.0-0.14","63f78d9a7a3d118594efff74","64d3ef96556dbe1f0e02b5aa","64db812822e0dc8423354c67","","null","","","","","","","","","","","","","null","","","fallScene","","","","","","","","","","","","false","240.238320000004","322.3","296.07114317029976","371.46","3","33","","",""
"","","","","","html-keyboard-response","83","741022","0.0-11.0-1.14","63f78d9a7a3d118594efff74","64d3ef96556dbe1f0e02b5aa","64db812822e0dc8423354c67","","","","","","","","","","","","","","","","","","","","","","","","283.01","376.99999999999744","3701","","","","","","","","","","","","",""
"","","","","","html-keyboard-response","83","741022","0.0-11.0-1.14","63f78d9a7a3d118594efff74","64d3ef96556dbe1f0e02b5aa","64db812822e0dc8423354c67","","","","","","","","","","","","","","","","","","reconstruct","","","","","","283.01","376.99999999999744","3701","","","","","","","","","","33","2","375","350"
"","","","","","html-keyboard-response","84","744027","0.0-11.0-0.15","63f78d9a7a3d118594efff74","64d3ef96556dbe1f0e02b5aa","64db812822e0dc8423354c67","","null","","","","","","","","","","","","","null","","","fallScene","","","","","","","","","","","","false","240.24144000001255","604.4000000000001","667.6211431702998","201.78","9","34","","",""
"","","","","","html-keyboard-response","85","754526","0.0-11.0-1.15","63f78d9a7a3d118594efff74","64d3ef96556dbe1f0e02b5aa","64db812822e0dc8423354c67","","","","","","","","","","","","","","","","","","","","","","","","628.9975431032244","409.99020640797056","10498.900000035763","","","","","","","","","","","","",""
"","","","","","html-keyboard-response","85","754526","0.0-11.0-1.15","63f78d9a7a3d118594efff74","64d3ef96556dbe1f0e02b5aa","64db812822e0dc8423354c67","","","","","","","","","","","","","","","","","","reconstruct","","","","","","628.9975431032244","409.99020640797056","10498.900000035763","","","","","","","","","","34","5","625","250"
"","","","","","html-keyboard-response","86","757528","0.0-11.0-0.16","63f78d9a7a3d118594efff74","64d3ef96556dbe1f0e02b5aa","64db812822e0dc8423354c67","","null","","","","","","","","","","","","","null","","","fallScene","","","","","","","","","","","","false","240.164160000002","322.3","379.3711431702997","245.25","1","35","","",""
"","","","","","html-keyboard-response","87","761591","0.0-11.0-1.16","63f78d9a7a3d118594efff74","64d3ef96556dbe1f0e02b5aa","64db812822e0dc8423354c67","","","","","","","","","","","","","","","","","","","","","","","","336.0044571267836","223.0089517607673","4063","","","","","","","","","","","","",""
"","","","","","html-keyboard-response","87","761591","0.0-11.0-1.16","63f78d9a7a3d118594efff74","64d3ef96556dbe1f0e02b5aa","64db812822e0dc8423354c67","","","","","","","","","","","","","","","","","","reconstruct","","","","","","336.0044571267836","223.0089517607673","4063","","","","","","","","","","35","4","500","350"
"","","","","","html-keyboard-response","88","764594","0.0-11.0-0.17","63f78d9a7a3d118594efff74","64d3ef96556dbe1f0e02b5aa","64db812822e0dc8423354c67","","null","","","","","","","","","","","","","null","","","fallScene","","","","","","","","","","","","true","240.23999999999998","604.4000000000001","650.0211431702996","404.58000000000004","11","36","","",""
"","","","","","html-keyboard-response","89","768256","0.0-11.0-1.17","63f78d9a7a3d118594efff74","64d3ef96556dbe1f0e02b5aa","64db812822e0dc8423354c67","","","","","","","","","","","","","","","","","","","","","","","","373","374.99","3661.599999964237","","","","","","","","","","","","",""
"","","","","","html-keyboard-response","89","768256","0.0-11.0-1.17","63f78d9a7a3d118594efff74","64d3ef96556dbe1f0e02b5aa","64db812822e0dc8423354c67","","","","","","","","","","","","","","","","","","reconstruct","","","","","","373","374.99","3661.599999964237","","","","","","","","","","36","5","625","250"
"","","","","","html-button-response","90","928144","0.0-12.0","63f78d9a7a3d118594efff74","64d3ef96556dbe1f0e02b5aa","64db812822e0dc8423354c67","","159886","","","","","","","","","","","","","0","","","","<p><span style = ""font-size:40px;"">BREAK</span></p><p>You are halfway done! Click 'Next' when you are ready for the next set.</p>","","","","","","","","","","","","","","","","","","","",""
"","","","","","html-keyboard-response","91","931147","0.0-13.0-0.0","63f78d9a7a3d118594efff74","64d3ef96556dbe1f0e02b5aa","64db812822e0dc8423354c67","","null","","","","","","","","","","","","","null","","","fallScene","","","","","","","","","","","","false","239.23876099998864","322.3","356.42114317029973","357.87","4","37","","",""
"","","","","","html-keyboard-response","92","936148","0.0-13.0-1.0","63f78d9a7a3d118594efff74","64d3ef96556dbe1f0e02b5aa","64db812822e0dc8423354c67","","","","","","","","","","","","","","","","","","","","","","","","352.98136103658777","314.99009206378605","4999.900000035763","","","","","","","","","","","","",""
"","","","","","html-keyboard-response","92","936148","0.0-13.0-1.0","63f78d9a7a3d118594efff74","64d3ef96556dbe1f0e02b5aa","64db812822e0dc8423354c67","","","","","","","","","","","","","","","","","","reconstruct","","","","","","352.98136103658777","314.99009206378605","4999.900000035763","","","","","","","","","","37","5","625","250"
"","","","","","html-keyboard-response","93","939150","0.0-13.0-0.1","63f78d9a7a3d118594efff74","64d3ef96556dbe1f0e02b5aa","64db812822e0dc8423354c67","","null","","","","","","","","","","","","","null","","","fallScene","","","","","","","","","","","","true","239.2385219999773","500","453.67114317029973","210.33","5","38","","",""
"","","","","","html-keyboard-response","94","942184","0.0-13.0-1.1","63f78d9a7a3d118594efff74","64d3ef96556dbe1f0e02b5aa","64db812822e0dc8423354c67","","","","","","","","","","","","","","","","","","","","","","","","491.99310387221135","299.0072417830348","3033.699999988079","","","","","","","","","","","","",""
"","","","","","html-keyboard-response","94","942185","0.0-13.0-1.1","63f78d9a7a3d118594efff74","64d3ef96556dbe1f0e02b5aa","64db812822e0dc8423354c67","","","","","","","","","","","","","","","","","","reconstruct","","","","","","491.99310387221135","299.0072417830348","3033.699999988079","","","","","","","","","","38","2","375","350"
"","","","","","html-keyboard-response","95","945186","0.0-13.0-0.2","63f78d9a7a3d118594efff74","64d3ef96556dbe1f0e02b5aa","64db812822e0dc8423354c67","","null","","","","","","","","","","","","","null","","","fallScene","","","","","","","","","","","","false","240.22343999999575","322.3","308.07114317029976","253.89","2","39","","",""
"","","","","","html-keyboard-response","96","948679","0.0-13.0-1.2","63f78d9a7a3d118594efff74","64d3ef96556dbe1f0e02b5aa","64db812822e0dc8423354c67","","","","","","","","","","","","","","","","","","","","","","","","305.000099985461","261.9900004998671","3491.899999976158","","","","","","","","","","","","",""
"","","","","","html-keyboard-response","96","948679","0.0-13.0-1.2","63f78d9a7a3d118594efff74","64d3ef96556dbe1f0e02b5aa","64db812822e0dc8423354c67","","","","","","","","","","","","","","","","","","reconstruct","","","","","","305.000099985461","261.9900004998671","3491.899999976158","","","","","","","","","","39","2","375","350"
"","","","","","html-keyboard-response","97","951684","0.0-13.0-0.3","63f78d9a7a3d118594efff74","64d3ef96556dbe1f0e02b5aa","64db812822e0dc8423354c67","","null","","","","","","","","","","","","","null","","","fallScene","","","","","","","","","","","","false","240.2402400000114","322.3","379.3711431702997","245.25","1","40","","",""
"","","","","","html-keyboard-response","98","956100","0.0-13.0-1.3","63f78d9a7a3d118594efff74","64d3ef96556dbe1f0e02b5aa","64db812822e0dc8423354c67","","","","","","","","","","","","","","","","","","","","","","","","324.00000099004586","253.990000000049","4416.5","","","","","","","","","","","","",""
"","","","","","html-keyboard-response","98","956100","0.0-13.0-1.3","63f78d9a7a3d118594efff74","64d3ef96556dbe1f0e02b5aa","64db812822e0dc8423354c67","","","","","","","","","","","","","","","","","","reconstruct","","","","","","324.00000099004586","253.990000000049","4416.5","","","","","","","","","","40","3","500","250"
"","","","","","html-keyboard-response","99","959104","0.0-13.0-0.4","63f78d9a7a3d118594efff74","64d3ef96556dbe1f0e02b5aa","64db812822e0dc8423354c67","","null","","","","","","","","","","","","","null","","","fallScene","","","","","","","","","","","","false","240.2387999999989","604.4000000000001","650.0211431702996","404.58000000000004","11","41","","",""
"","","","","","html-keyboard-response","100","962294","0.0-13.0-1.4","63f78d9a7a3d118594efff74","64d3ef96556dbe1f0e02b5aa","64db812822e0dc8423354c67","","","","","","","","","","","","","","","","","","","","","","","","650.99","379.00000000980185","3189.5","","","","","","","","","","","","",""
"","","","","","html-keyboard-response","100","962294","0.0-13.0-1.4","63f78d9a7a3d118594efff74","64d3ef96556dbe1f0e02b5aa","64db812822e0dc8423354c67","","","","","","","","","","","","","","","","","","reconstruct","","","","","","650.99","379.00000000980185","3189.5","","","","","","","","","","41","4","500","350"
"","","","","","html-keyboard-response","101","965297","0.0-13.0-0.5","63f78d9a7a3d118594efff74","64d3ef96556dbe1f0e02b5aa","64db812822e0dc8423354c67","","null","","","","","","","","","","","","","null","","","fallScene","","","","","","","","","","","","true","240.24287999999706","500","510.8711431702997","369.03","8","42","","",""
"","","","","","html-keyboard-response","102","968168","0.0-13.0-1.5","63f78d9a7a3d118594efff74","64d3ef96556dbe1f0e02b5aa","64db812822e0dc8423354c67","","","","","","","","","","","","","","","","","","","","","","","","557.9900004998418","328.0000999829319","2870.100000023842","","","","","","","","","","","","",""
"","","","","","html-keyboard-response","102","968168","0.0-13.0-1.5","63f78d9a7a3d118594efff74","64d3ef96556dbe1f0e02b5aa","64db812822e0dc8423354c67","","","","","","","","","","","","","","","","","","reconstruct","","","","","","557.9900004998418","328.0000999829319","2870.100000023842","","","","","","","","","","42","6","625","350"
"","","","","","html-keyboard-response","103","971170","0.0-13.0-0.6","63f78d9a7a3d118594efff74","64d3ef96556dbe1f0e02b5aa","64db812822e0dc8423354c67","","null","","","","","","","","","","","","","null","","","fallScene","","","","","","","","","","","","true","240.23615999998526","500","553.4711431702997","282.51","7","43","","",""
"","","","","","html-keyboard-response","104","973758","0.0-13.0-1.6","63f78d9a7a3d118594efff74","64d3ef96556dbe1f0e02b5aa","64db812822e0dc8423354c67","","","","","","","","","","","","","","","","","","","","","","","","512.9999751413816","314.0099999691024","2587.5","","","","","","","","","","","","",""
"","","","","","html-keyboard-response","104","973758","0.0-13.0-1.6","63f78d9a7a3d118594efff74","64d3ef96556dbe1f0e02b5aa","64db812822e0dc8423354c67","","","","","","","","","","","","","","","","","","reconstruct","","","","","","512.9999751413816","314.0099999691024","2587.5","","","","","","","","","","43","4","500","350"
"","","","","","html-keyboard-response","105","976760","0.0-13.0-0.7","63f78d9a7a3d118594efff74","64d3ef96556dbe1f0e02b5aa","64db812822e0dc8423354c67","","null","","","","","","","","","","","","","null","","","fallScene","","","","","","","","","","","","true","240.22824000000026","604.4000000000001","596.8711431702998","394.5","10","44","","",""
"","","","","","html-keyboard-response","106","979028","0.0-13.0-1.7","63f78d9a7a3d118594efff74","64d3ef96556dbe1f0e02b5aa","64db812822e0dc8423354c67","","","","","","","","","","","","","","","","","","","","","","","","398.0000000123801","273.01","2267.699999988079","","","","","","","","","","","","",""
"","","","","","html-keyboard-response","106","979028","0.0-13.0-1.7","63f78d9a7a3d118594efff74","64d3ef96556dbe1f0e02b5aa","64db812822e0dc8423354c67","","","","","","","","","","","","","","","","","","reconstruct","","","","","","398.0000000123801","273.01","2267.699999988079","","","","","","","","","","44","6","625","350"
"","","","","","html-keyboard-response","107","982031","0.0-13.0-0.8","63f78d9a7a3d118594efff74","64d3ef96556dbe1f0e02b5aa","64db812822e0dc8423354c67","","null","","","","","","","","","","","","","null","","","fallScene","","","","","","","","","","","","true","240.244560000021","500","510.8711431702997","369.03","8","45","","",""
"","","","","","html-keyboard-response","108","985595","0.0-13.0-1.8","63f78d9a7a3d118594efff74","64d3ef96556dbe1f0e02b5aa","64db812822e0dc8423354c67","","","","","","","","","","","","","","","","","","","","","","","","614.9900004998126","386.9999000199947","3562.699999988079","","","","","","","","","","","","",""
"","","","","","html-keyboard-response","108","985595","0.0-13.0-1.8","63f78d9a7a3d118594efff74","64d3ef96556dbe1f0e02b5aa","64db812822e0dc8423354c67","","","","","","","","","","","","","","","","","","reconstruct","","","","","","614.9900004998126","386.9999000199947","3562.699999988079","","","","","","","","","","45","3","500","250"
"","","","","","html-keyboard-response","109","988596","0.0-13.0-0.9","63f78d9a7a3d118594efff74","64d3ef96556dbe1f0e02b5aa","64db812822e0dc8423354c67","","null","","","","","","","","","","","","","null","","","fallScene","","","","","","","","","","","","true","239.23541500002446","322.3","296.07114317029976","371.46","3","46","","",""
"","","","","","html-keyboard-response","110","992239","0.0-13.0-1.9","63f78d9a7a3d118594efff74","64d3ef96556dbe1f0e02b5aa","64db812822e0dc8423354c67","","","","","","","","","","","","","","","","","","","","","","","","674.99","391","3642.800000011921","","","","","","","","","","","","",""
"","","","","","html-keyboard-response","110","992239","0.0-13.0-1.9","63f78d9a7a3d118594efff74","64d3ef96556dbe1f0e02b5aa","64db812822e0dc8423354c67","","","","","","","","","","","","","","","","","","reconstruct","","","","","","674.99","391","3642.800000011921","","","","","","","","","","46","6","625","350"
"","","","","","html-keyboard-response","111","995244","0.0-13.0-0.10","63f78d9a7a3d118594efff74","64d3ef96556dbe1f0e02b5aa","64db812822e0dc8423354c67","","null","","","","","","","","","","","","","null","","","fallScene","","","","","","","","","","","","false","240.24816000002434","604.4000000000001","650.0211431702996","404.58000000000004","11","47","","",""
"","","","","","html-keyboard-response","112","997665","0.0-13.0-1.10","63f78d9a7a3d118594efff74","64d3ef96556dbe1f0e02b5aa","64db812822e0dc8423354c67","","","","","","","","","","","","","","","","","","","","","","","","629.9999999991924","305.99","2421.5","","","","","","","","","","","","",""
"","","","","","html-keyboard-response","112","997665","0.0-13.0-1.10","63f78d9a7a3d118594efff74","64d3ef96556dbe1f0e02b5aa","64db812822e0dc8423354c67","","","","","","","","","","","","","","","","","","reconstruct","","","","","","629.9999999991924","305.99","2421.5","","","","","","","","","","47","3","500","250"
"","","","","","html-keyboard-response","113","1000667","0.0-13.0-0.11","63f78d9a7a3d118594efff74","64d3ef96556dbe1f0e02b5aa","64db812822e0dc8423354c67","","null","","","","","","","","","","","","","null","","","fallScene","","","","","","","","","","","","true","240.24743999999015","604.4000000000001","596.8711431702998","394.5","10","48","","",""
"","","","","","html-keyboard-response","114","1003657","0.0-13.0-1.11","63f78d9a7a3d118594efff74","64d3ef96556dbe1f0e02b5aa","64db812822e0dc8423354c67","","","","","","","","","","","","","","","","","","","","","","","","411.01917469146974","287.99602192112906","2989.599999964237","","","","","","","","","","","","",""
"","","","","","html-keyboard-response","114","1003657","0.0-13.0-1.11","63f78d9a7a3d118594efff74","64d3ef96556dbe1f0e02b5aa","64db812822e0dc8423354c67","","","","","","","","","","","","","","","","","","reconstruct","","","","","","411.01917469146974","287.99602192112906","2989.599999964237","","","","","","","","","","48","3","500","250"
"","","","","","html-keyboard-response","115","1006659","0.0-13.0-0.12","63f78d9a7a3d118594efff74","64d3ef96556dbe1f0e02b5aa","64db812822e0dc8423354c67","","null","","","","","","","","","","","","","null","","","fallScene","","","","","","","","","","","","true","240.27287999999712","322.3","356.42114317029973","357.87","4","49","","",""
"","","","","","html-keyboard-response","116","1009697","0.0-13.0-1.12","63f78d9a7a3d118594efff74","64d3ef96556dbe1f0e02b5aa","64db812822e0dc8423354c67","","","","","","","","","","","","","","","","","","","","","","","","668.0036529940072","359.99069109916354","3038","","","","","","","","","","","","",""
"","","","","","html-keyboard-response","116","1009697","0.0-13.0-1.12","63f78d9a7a3d118594efff74","64d3ef96556dbe1f0e02b5aa","64db812822e0dc8423354c67","","","","","","","","","","","","","","","","","","reconstruct","","","","","","668.0036529940072","359.99069109916354","3038","","","","","","","","","","49","1","375","250"
"","","","","","html-keyboard-response","117","1012699","0.0-13.0-0.13","63f78d9a7a3d118594efff74","64d3ef96556dbe1f0e02b5aa","64db812822e0dc8423354c67","","null","","","","","","","","","","","","","null","","","fallScene","","","","","","","","","","","","true","240.2409599999897","322.3","379.3711431702997","245.25","1","50","","",""
"","","","","","html-keyboard-response","118","1016653","0.0-13.0-1.13","63f78d9a7a3d118594efff74","64d3ef96556dbe1f0e02b5aa","64db812822e0dc8423354c67","","","","","","","","","","","","","","","","","","","","","","","","659.9900011914962","327.9900999800215","3952.7999999523163","","","","","","","","","","","","",""
"","","","","","html-keyboard-response","118","1016653","0.0-13.0-1.13","63f78d9a7a3d118594efff74","64d3ef96556dbe1f0e02b5aa","64db812822e0dc8423354c67","","","","","","","","","","","","","","","","","","reconstruct","","","","","","659.9900011914962","327.9900999800215","3952.7999999523163","","","","","","","","","","50","6","625","350"
"","","","","","html-keyboard-response","119","1019655","0.0-13.0-0.14","63f78d9a7a3d118594efff74","64d3ef96556dbe1f0e02b5aa","64db812822e0dc8423354c67","","null","","","","","","","","","","","","","null","","","fallScene","","","","","","","","","","","","true","240.23688000001948","604.4000000000001","596.8711431702998","394.5","10","51","","",""
"","","","","","html-keyboard-response","120","1023373","0.0-13.0-1.14","63f78d9a7a3d118594efff74","64d3ef96556dbe1f0e02b5aa","64db812822e0dc8423354c67","","","","","","","","","","","","","","","","","","","","","","","","367.9999894230976","292.0003705639407","3717","","","","","","","","","","","","",""
"","","","","","html-keyboard-response","120","1023373","0.0-13.0-1.14","63f78d9a7a3d118594efff74","64d3ef96556dbe1f0e02b5aa","64db812822e0dc8423354c67","","","","","","","","","","","","","","","","","","reconstruct","","","","","","367.9999894230976","292.0003705639407","3717","","","","","","","","","","51","4","500","350"
"","","","","","html-keyboard-response","121","1026375","0.0-13.0-0.15","63f78d9a7a3d118594efff74","64d3ef96556dbe1f0e02b5aa","64db812822e0dc8423354c67","","null","","","","","","","","","","","","","null","","","fallScene","","","","","","","","","","","","true","240.23688000001948","322.3","379.3711431702997","245.25","1","52","","",""
"","","","","","html-keyboard-response","122","1033104","0.0-13.0-1.15","63f78d9a7a3d118594efff74","64d3ef96556dbe1f0e02b5aa","64db812822e0dc8423354c67","","","","","","","","","","","","","","","","","","","","","","","","652.9999999967968","325.97","6728.600000023842","","","","","","","","","","","","",""
"","","","","","html-keyboard-response","122","1033104","0.0-13.0-1.15","63f78d9a7a3d118594efff74","64d3ef96556dbe1f0e02b5aa","64db812822e0dc8423354c67","","","","","","","","","","","","","","","","","","reconstruct","","","","","","652.9999999967968","325.97","6728.600000023842","","","","","","","","","","52","1","375","250"
"","","","","","html-keyboard-response","123","1036106","0.0-13.0-0.16","63f78d9a7a3d118594efff74","64d3ef96556dbe1f0e02b5aa","64db812822e0dc8423354c67","","null","","","","","","","","","","","","","null","","","fallScene","","","","","","","","","","","","true","239.23613200000293","500","479.92114317029973","330.87","6","53","","",""
"","","","","","html-keyboard-response","124","1037938","0.0-13.0-1.16","63f78d9a7a3d118594efff74","64d3ef96556dbe1f0e02b5aa","64db812822e0dc8423354c67","","","","","","","","","","","","","","","","","","","","","","","","503.9999000235777","264.0099995002233","1831.199999988079","","","","","","","","","","","","",""
"","","","","","html-keyboard-response","124","1037938","0.0-13.0-1.16","63f78d9a7a3d118594efff74","64d3ef96556dbe1f0e02b5aa","64db812822e0dc8423354c67","","","","","","","","","","","","","","","","","","reconstruct","","","","","","503.9999000235777","264.0099995002233","1831.199999988079","","","","","","","","","","53","4","500","350"
"","","","","","html-keyboard-response","125","1040940","0.0-13.0-0.17","63f78d9a7a3d118594efff74","64d3ef96556dbe1f0e02b5aa","64db812822e0dc8423354c67","","null","","","","","","","","","","","","","null","","","fallScene","","","","","","","","","","","","true","240.23736000001432","604.4000000000001","650.0211431702996","404.58000000000004","11","54","","",""
"","","","","","html-keyboard-response","126","1044811","0.0-13.0-1.17","63f78d9a7a3d118594efff74","64d3ef96556dbe1f0e02b5aa","64db812822e0dc8423354c67","","","","","","","","","","","","","","","","","","","","","","","","357.9900000000006","336.000000109658","3870.800000011921","","","","","","","","","","","","",""
"","","","","","html-keyboard-response","126","1044811","0.0-13.0-1.17","63f78d9a7a3d118594efff74","64d3ef96556dbe1f0e02b5aa","64db812822e0dc8423354c67","","","","","","","","","","","","","","","","","","reconstruct","","","","","","357.9900000000006","336.000000109658","3870.800000011921","","","","","","","","","","54","2","375","350"
"","","","","","html-button-response","127","1046899","0.0-14.0","63f78d9a7a3d118594efff74","64d3ef96556dbe1f0e02b5aa","64db812822e0dc8423354c67","","2086","","","","","","","","","","","","","0","","","","<p><span style = ""font-size:40px;"">BREAK</span></p><p>You are almost done! Click 'Next' when you are ready for the next set.</p>","","","","","","","","","","","","","","","","","","","",""
"","","","","","html-keyboard-response","128","1049902","0.0-15.0-0.0","63f78d9a7a3d118594efff74","64d3ef96556dbe1f0e02b5aa","64db812822e0dc8423354c67","","null","","","","","","","","","","","","","null","","","fallScene","","","","","","","","","","","","false","240.2387999999989","322.3","356.42114317029973","357.87","4","55","","",""
"","","","","","html-keyboard-response","129","1051837","0.0-15.0-1.0","63f78d9a7a3d118594efff74","64d3ef96556dbe1f0e02b5aa","64db812822e0dc8423354c67","","","","","","","","","","","","","","","","","","","","","","","","355.00999950323387","299.9999003251522","1934.800000011921","","","","","","","","","","","","",""
"","","","","","html-keyboard-response","129","1051837","0.0-15.0-1.0","63f78d9a7a3d118594efff74","64d3ef96556dbe1f0e02b5aa","64db812822e0dc8423354c67","","","","","","","","","","","","","","","","","","reconstruct","","","","","","355.00999950323387","299.9999003251522","1934.800000011921","","","","","","","","","","55","3","500","250"
"","","","","","html-keyboard-response","130","1054840","0.0-15.0-0.1","63f78d9a7a3d118594efff74","64d3ef96556dbe1f0e02b5aa","64db812822e0dc8423354c67","","null","","","","","","","","","","","","","null","","","fallScene","","","","","","","","","","","","true","240.23999999999998","604.4000000000001","650.0211431702996","404.58000000000004","11","56","","",""
"","","","","","html-keyboard-response","131","1059064","0.0-15.0-1.1","63f78d9a7a3d118594efff74","64d3ef96556dbe1f0e02b5aa","64db812822e0dc8423354c67","","","","","","","","","","","","","","","","","","","","","","","","360.009999999951","304.0000009898959","4223.600000023842","","","","","","","","","","","","",""
"","","","","","html-keyboard-response","131","1059064","0.0-15.0-1.1","63f78d9a7a3d118594efff74","64d3ef96556dbe1f0e02b5aa","64db812822e0dc8423354c67","","","","","","","","","","","","","","","","","","reconstruct","","","","","","360.009999999951","304.0000009898959","4223.600000023842","","","","","","","","","","56","1","375","250"
"","","","","","html-keyboard-response","132","1062068","0.0-15.0-0.2","63f78d9a7a3d118594efff74","64d3ef96556dbe1f0e02b5aa","64db812822e0dc8423354c67","","null","","","","","","","","","","","","","null","","","fallScene","","","","","","","","","","","","false","240.24144000001255","500","479.92114317029973","330.87","6","57","","",""
"","","","","","html-keyboard-response","133","1064877","0.0-15.0-1.2","63f78d9a7a3d118594efff74","64d3ef96556dbe1f0e02b5aa","64db812822e0dc8423354c67","","","","","","","","","","","","","","","","","","","","","","","","459.9972373120918","279.99038919589617","2808.600000023842","","","","","","","","","","","","",""
"","","","","","html-keyboard-response","133","1064877","0.0-15.0-1.2","63f78d9a7a3d118594efff74","64d3ef96556dbe1f0e02b5aa","64db812822e0dc8423354c67","","","","","","","","","","","","","","","","","","reconstruct","","","","","","459.9972373120918","279.99038919589617","2808.600000023842","","","","","","","","","","57","3","500","250"
"","","","","","html-keyboard-response","134","1067880","0.0-15.0-0.3","63f78d9a7a3d118594efff74","64d3ef96556dbe1f0e02b5aa","64db812822e0dc8423354c67","","null","","","","","","","","","","","","","null","","","fallScene","","","","","","","","","","","","false","240.23975999996065","604.4000000000001","575.4211431702997","266.76","12","58","","",""
"","","","","","html-keyboard-response","135","1071671","0.0-15.0-1.3","63f78d9a7a3d118594efff74","64d3ef96556dbe1f0e02b5aa","64db812822e0dc8423354c67","","","","","","","","","","","","","","","","","","","","","","","","602.9800525044275","392.0010233911854","3791.400000035763","","","","","","","","","","","","",""
"","","","","","html-keyboard-response","135","1071671","0.0-15.0-1.3","63f78d9a7a3d118594efff74","64d3ef96556dbe1f0e02b5aa","64db812822e0dc8423354c67","","","","","","","","","","","","","","","","","","reconstruct","","","","","","602.9800525044275","392.0010233911854","3791.400000035763","","","","","","","","","","58","2","375","350"
"","","","","","html-keyboard-response","136","1074674","0.0-15.0-0.4","63f78d9a7a3d118594efff74","64d3ef96556dbe1f0e02b5aa","64db812822e0dc8423354c67","","null","","","","","","","","","","","","","null","","","fallScene","","","","","","","","","","","","false","240.23736000001432","500","453.67114317029973","210.33","5","59","","",""
"","","","","","html-keyboard-response","137","1078257","0.0-15.0-1.4","63f78d9a7a3d118594efff74","64d3ef96556dbe1f0e02b5aa","64db812822e0dc8423354c67","","","","","","","","","","","","","","","","","","","","","","","","534.0086885055732","392.0049507444798","3583","","","","","","","","","","","","",""
"","","","","","html-keyboard-response","137","1078257","0.0-15.0-1.4","63f78d9a7a3d118594efff74","64d3ef96556dbe1f0e02b5aa","64db812822e0dc8423354c67","","","","","","","","","","","","","","","","","","reconstruct","","","","","","534.0086885055732","392.0049507444798","3583","","","","","","","","","","59","3","500","250"
"","","","","","html-keyboard-response","138","1081259","0.0-15.0-0.5","63f78d9a7a3d118594efff74","64d3ef96556dbe1f0e02b5aa","64db812822e0dc8423354c67","","null","","","","","","","","","","","","","null","","","fallScene","","","","","","","","","","","","true","240.2359200000018","500","553.4711431702997","282.51","7","60","","",""
"","","","","","html-keyboard-response","139","1083165","0.0-15.0-1.5","63f78d9a7a3d118594efff74","64d3ef96556dbe1f0e02b5aa","64db812822e0dc8423354c67","","","","","","","","","","","","","","","","","","","","","","","","497.99","377","1905.6000000238419","","","","","","","","","","","","",""
"","","","","","html-keyboard-response","139","1083165","0.0-15.0-1.5","63f78d9a7a3d118594efff74","64d3ef96556dbe1f0e02b5aa","64db812822e0dc8423354c67","","","","","","","","","","","","","","","","","","reconstruct","","","","","","497.99","377","1905.6000000238419","","","","","","","","","","60","6","625","350"
"","","","","","html-keyboard-response","140","1086167","0.0-15.0-0.6","63f78d9a7a3d118594efff74","64d3ef96556dbe1f0e02b5aa","64db812822e0dc8423354c67","","null","","","","","","","","","","","","","null","","","fallScene","","","","","","","","","","","","true","240.23999999999998","322.3","308.07114317029976","253.89","2","61","","",""
"","","","","","html-keyboard-response","141","1089498","0.0-15.0-1.6","63f78d9a7a3d118594efff74","64d3ef96556dbe1f0e02b5aa","64db812822e0dc8423354c67","","","","","","","","","","","","","","","","","","","","","","","","681.9900002253347","301.00006713153556","3330.7000000476837","","","","","","","","","","","","",""
"","","","","","html-keyboard-response","141","1089498","0.0-15.0-1.6","63f78d9a7a3d118594efff74","64d3ef96556dbe1f0e02b5aa","64db812822e0dc8423354c67","","","","","","","","","","","","","","","","","","reconstruct","","","","","","681.9900002253347","301.00006713153556","3330.7000000476837","","","","","","","","","","61","5","625","250"
"","","","","","html-keyboard-response","142","1092503","0.0-15.0-0.7","63f78d9a7a3d118594efff74","64d3ef96556dbe1f0e02b5aa","64db812822e0dc8423354c67","","null","","","","","","","","","","","","","null","","","fallScene","","","","","","","","","","","","true","240.241679999996","500","510.8711431702997","369.03","8","62","","",""
"","","","","","html-keyboard-response","143","1094237","0.0-15.0-1.7","63f78d9a7a3d118594efff74","64d3ef96556dbe1f0e02b5aa","64db812822e0dc8423354c67","","","","","","","","","","","","","","","","","","","","","","","","443.0000063158958","268.99000000199453","1734.1000000238419","","","","","","","","","","","","",""
"","","","","","html-keyboard-response","143","1094237","0.0-15.0-1.7","63f78d9a7a3d118594efff74","64d3ef96556dbe1f0e02b5aa","64db812822e0dc8423354c67","","","","","","","","","","","","","","","","","","reconstruct","","","","","","443.0000063158958","268.99000000199453","1734.1000000238419","","","","","","","","","","62","4","500","350"
"","","","","","html-keyboard-response","144","1097241","0.0-15.0-0.8","63f78d9a7a3d118594efff74","64d3ef96556dbe1f0e02b5aa","64db812822e0dc8423354c67","","null","","","","","","","","","","","","","null","","","fallScene","","","","","","","","","","","","true","240.23496000001205","500","453.67114317029973","210.33","5","63","","",""
"","","","","","html-keyboard-response","145","1098850","0.0-15.0-1.8","63f78d9a7a3d118594efff74","64d3ef96556dbe1f0e02b5aa","64db812822e0dc8423354c67","","","","","","","","","","","","","","","","","","","","","","","","503.99","349.00000000979287","1609.1000000238419","","","","","","","","","","","","",""
"","","","","","html-keyboard-response","145","1098850","0.0-15.0-1.8","63f78d9a7a3d118594efff74","64d3ef96556dbe1f0e02b5aa","64db812822e0dc8423354c67","","","","","","","","","","","","","","","","","","reconstruct","","","","","","503.99","349.00000000979287","1609.1000000238419","","","","","","","","","","63","4","500","350"
"","","","","","html-keyboard-response","146","1101854","0.0-15.0-0.9","63f78d9a7a3d118594efff74","64d3ef96556dbe1f0e02b5aa","64db812822e0dc8423354c67","","null","","","","","","","","","","","","","null","","","fallScene","","","","","","","","","","","","true","240.26256000000984","500","510.8711431702997","369.03","8","64","","",""
"","","","","","html-keyboard-response","147","1105081","0.0-15.0-1.9","63f78d9a7a3d118594efff74","64d3ef96556dbe1f0e02b5aa","64db812822e0dc8423354c67","","","","","","","","","","","","","","","","","","","","","","","","482.00002269897016","269.0099999742378","3227.300000011921","","","","","","","","","","","","",""
"","","","","","html-keyboard-response","147","1105081","0.0-15.0-1.9","63f78d9a7a3d118594efff74","64d3ef96556dbe1f0e02b5aa","64db812822e0dc8423354c67","","","","","","","","","","","","","","","","","","reconstruct","","","","","","482.00002269897016","269.0099999742378","3227.300000011921","","","","","","","","","","64","5","625","250"
"","","","","","html-keyboard-response","148","1108085","0.0-15.0-0.10","63f78d9a7a3d118594efff74","64d3ef96556dbe1f0e02b5aa","64db812822e0dc8423354c67","","null","","","","","","","","","","","","","null","","","fallScene","","","","","","","","","","","","false","240.23759999999777","500","510.8711431702997","369.03","8","65","","",""
"","","","","","html-keyboard-response","149","1112945","0.0-15.0-1.10","63f78d9a7a3d118594efff74","64d3ef96556dbe1f0e02b5aa","64db812822e0dc8423354c67","","","","","","","","","","","","","","","","","","","","","","","","496.99999930727415","327.990000000024","4859.899999976158","","","","","","","","","","","","",""
"","","","","","html-keyboard-response","149","1112945","0.0-15.0-1.10","63f78d9a7a3d118594efff74","64d3ef96556dbe1f0e02b5aa","64db812822e0dc8423354c67","","","","","","","","","","","","","","","","","","reconstruct","","","","","","496.99999930727415","327.990000000024","4859.899999976158","","","","","","","","","","65","2","375","350"
"","","","","","html-keyboard-response","150","1115948","0.0-15.0-0.11","63f78d9a7a3d118594efff74","64d3ef96556dbe1f0e02b5aa","64db812822e0dc8423354c67","","null","","","","","","","","","","","","","null","","","fallScene","","","","","","","","","","","","true","240.24383999995888","322.3","356.42114317029973","357.87","4","66","","",""
"","","","","","html-keyboard-response","151","1117975","0.0-15.0-1.11","63f78d9a7a3d118594efff74","64d3ef96556dbe1f0e02b5aa","64db812822e0dc8423354c67","","","","","","","","","","","","","","","","","","","","","","","","646.9900003690201","293.9999140915291","2026.5","","","","","","","","","","","","",""
"","","","","","html-keyboard-response","151","1117975","0.0-15.0-1.11","63f78d9a7a3d118594efff74","64d3ef96556dbe1f0e02b5aa","64db812822e0dc8423354c67","","","","","","","","","","","","","","","","","","reconstruct","","","","","","646.9900003690201","293.9999140915291","2026.5","","","","","","","","","","66","4","500","350"
"","","","","","html-keyboard-response","152","1120977","0.0-15.0-0.12","63f78d9a7a3d118594efff74","64d3ef96556dbe1f0e02b5aa","64db812822e0dc8423354c67","","null","","","","","","","","","","","","","null","","","fallScene","","","","","","","","","","","","false","240.2352000000514","604.4000000000001","575.4211431702997","266.76","12","67","","",""
"","","","","","html-keyboard-response","153","1124385","0.0-15.0-1.12","63f78d9a7a3d118594efff74","64d3ef96556dbe1f0e02b5aa","64db812822e0dc8423354c67","","","","","","","","","","","","","","","","","","","","","","","","596.9900005163345","389.9998983809957","3408.399999976158","","","","","","","","","","","","",""
"","","","","","html-keyboard-response","153","1124385","0.0-15.0-1.12","63f78d9a7a3d118594efff74","64d3ef96556dbe1f0e02b5aa","64db812822e0dc8423354c67","","","","","","","","","","","","","","","","","","reconstruct","","","","","","596.9900005163345","389.9998983809957","3408.399999976158","","","","","","","","","","67","4","500","350"
"","","","","","html-keyboard-response","154","1127387","0.0-15.0-0.13","63f78d9a7a3d118594efff74","64d3ef96556dbe1f0e02b5aa","64db812822e0dc8423354c67","","null","","","","","","","","","","","","","null","","","fallScene","","","","","","","","","","","","true","240.23904000001028","500","479.92114317029973","330.87","6","68","","",""
"","","","","","html-keyboard-response","155","1130975","0.0-15.0-1.13","63f78d9a7a3d118594efff74","64d3ef96556dbe1f0e02b5aa","64db812822e0dc8423354c67","","","","","","","","","","","","","","","","","","","","","","","","531.9900004998126","258.00009998000553","3587.399999976158","","","","","","","","","","","","",""
"","","","","","html-keyboard-response","155","1130975","0.0-15.0-1.13","63f78d9a7a3d118594efff74","64d3ef96556dbe1f0e02b5aa","64db812822e0dc8423354c67","","","","","","","","","","","","","","","","","","reconstruct","","","","","","531.9900004998126","258.00009998000553","3587.399999976158","","","","","","","","","","68","6","625","350"
"","","","","","html-keyboard-response","156","1133977","0.0-15.0-0.14","63f78d9a7a3d118594efff74","64d3ef96556dbe1f0e02b5aa","64db812822e0dc8423354c67","","null","","","","","","","","","","","","","null","","","fallScene","","","","","","","","","","","","true","240.24119999997316","322.3","296.07114317029976","371.46","3","69","","",""
"","","","","","html-keyboard-response","157","1137441","0.0-15.0-1.14","63f78d9a7a3d118594efff74","64d3ef96556dbe1f0e02b5aa","64db812822e0dc8423354c67","","","","","","","","","","","","","","","","","","","","","","","","663.9900003983337","383.99991074466874","3463.600000023842","","","","","","","","","","","","",""
"","","","","","html-keyboard-response","157","1137441","0.0-15.0-1.14","63f78d9a7a3d118594efff74","64d3ef96556dbe1f0e02b5aa","64db812822e0dc8423354c67","","","","","","","","","","","","","","","","","","reconstruct","","","","","","663.9900003983337","383.99991074466874","3463.600000023842","","","","","","","","","","69","5","625","250"
"","","","","","html-keyboard-response","158","1140443","0.0-15.0-0.15","63f78d9a7a3d118594efff74","64d3ef96556dbe1f0e02b5aa","64db812822e0dc8423354c67","","null","","","","","","","","","","","","","null","","","fallScene","","","","","","","","","","","","true","240.24743999999015","604.4000000000001","596.8711431702998","394.5","10","70","","",""
"","","","","","html-keyboard-response","159","1143510","0.0-15.0-1.15","63f78d9a7a3d118594efff74","64d3ef96556dbe1f0e02b5aa","64db812822e0dc8423354c67","","","","","","","","","","","","","","","","","","","","","","","","417.9986036121228","280.9900979749093","3066.7000000476837","","","","","","","","","","","","",""
"","","","","","html-keyboard-response","159","1143510","0.0-15.0-1.15","63f78d9a7a3d118594efff74","64d3ef96556dbe1f0e02b5aa","64db812822e0dc8423354c67","","","","","","","","","","","","","","","","","","reconstruct","","","","","","417.9986036121228","280.9900979749093","3066.7000000476837","","","","","","","","","","70","5","625","250"
"","","","","","html-keyboard-response","160","1146514","0.0-15.0-0.16","63f78d9a7a3d118594efff74","64d3ef96556dbe1f0e02b5aa","64db812822e0dc8423354c67","","null","","","","","","","","","","","","","null","","","fallScene","","","","","","","","","","","","false","240.23855999998747","322.3","308.07114317029976","253.89","2","71","","",""
"","","","","","html-keyboard-response","161","1149339","0.0-15.0-1.16","63f78d9a7a3d118594efff74","64d3ef96556dbe1f0e02b5aa","64db812822e0dc8423354c67","","","","","","","","","","","","","","","","","","","","","","","","366.01","253.00000000005048","2824.800000011921","","","","","","","","","","","","",""
"","","","","","html-keyboard-response","161","1149340","0.0-15.0-1.16","63f78d9a7a3d118594efff74","64d3ef96556dbe1f0e02b5aa","64db812822e0dc8423354c67","","","","","","","","","","","","","","","","","","reconstruct","","","","","","366.01","253.00000000005048","2824.800000011921","","","","","","","","","","71","4","500","350"
"","","","","","html-keyboard-response","162","1152341","0.0-15.0-0.17","63f78d9a7a3d118594efff74","64d3ef96556dbe1f0e02b5aa","64db812822e0dc8423354c67","","null","","","","","","","","","","","","","null","","","fallScene","","","","","","","","","","","","false","240.23711999997494","604.4000000000001","667.6211431702998","201.78","9","72","","",""
"","","","","","html-keyboard-response","163","1157147","0.0-15.0-1.17","63f78d9a7a3d118594efff74","64d3ef96556dbe1f0e02b5aa","64db812822e0dc8423354c67","","","","","","","","","","","","","","","","","","","","","","","","627.0000999800172","387.9900004998127","4805.799999952316","","","","","","","","","","","","",""
"","","","","","html-keyboard-response","163","1157147","0.0-15.0-1.17","63f78d9a7a3d118594efff74","64d3ef96556dbe1f0e02b5aa","64db812822e0dc8423354c67","","","","","","","","","","","","","","","","","","reconstruct","","","","","","627.0000999800172","387.9900004998127","4805.799999952316","","","","","","","","","","72","1","375","250"
"","","","","","survey-text","164","1282967","0.0-16.0","63f78d9a7a3d118594efff74","64d3ef96556dbe1f0e02b5aa","64db812822e0dc8423354c67","","125817","","","","","","","","","","","","","{""Summary"":""There was a grey screen with a hidden triangle behind the gray screen, I was to watch a circle drop which would hit this hidden triangle and go a certain direction. I then had to drag where I believe the triangle was positioned that caused the circle to go its direction.""}","","","","","","","","","","","","","","","","","","","","","","","",""
"","","","","","survey-text","165","1290717","0.0-17.0","63f78d9a7a3d118594efff74","64d3ef96556dbe1f0e02b5aa","64db812822e0dc8423354c67","","7748","","","","","","","","","","","","","{""Comments"":""Thank you for the study! :)""}","","","","","","","","","","","","","","","","","","","","","","","",""
