"success","timeout","failed_images","failed_audio","failed_video","trial_type","trial_index","time_elapsed","internal_node_id","subject_id","study_id","session_id","view_history","rt","width","height","webaudio","browser","browser_version","mobile","os","fullscreen","vsync_rate","webcam","microphone","url","response","triangle_prac_final_x","triangle_prac_final_y","trial_name","stimulus","ball_X_prac_occ","ball_Y_prac_occ","obstacle_X_prac_occ","obstacle_Y_prac_occ","triangle_final_x","triangle_final_y","response_time","obstacle_X_prac_occ_init","obstacle_Y_prac_occ_init","question_order","flipped","runnerFPS","ball_X","obstacle_groundTruth_x","obstacle_groundTruth_y","stimulus_idx","currentTrial","obstacle_idx","obstacle_initial_x","obstacle_initial_y"
"true","false","[]","[]","[]","preload","0","83","0.0-0.0","63ffb67634be3d959f3ff793","64d3ef96556dbe1f0e02b5aa","64da6455f32e927ccfba8b88","","","","","","","","","","","","","","","","","","","","","","","","","","","","","","","","","","","","","","",""
"","","","","","instructions","1","8840","0.0-1.0","63ffb67634be3d959f3ff793","64d3ef96556dbe1f0e02b5aa","64da6455f32e927ccfba8b88","[{""page_index"":0,""viewing_time"":8757}]","8757","","","","","","","","","","","","","","","","","","","","","","","","","","","","","","","","","","","","",""
"","","","","","browser-check","2","9828","0.0-2.0","63ffb67634be3d959f3ff793","64d3ef96556dbe1f0e02b5aa","64da6455f32e927ccfba8b88","","","1280","875","true","chrome","115.0.0","false","Windows 10","true","60.98","false","false","","","","","","","","","","","","","","","","","","","","","","","","","",""
"","","","","","external-html","3","20888","0.0-3.0","63ffb67634be3d959f3ff793","64d3ef96556dbe1f0e02b5aa","64da6455f32e927ccfba8b88","","10976","","","","","","","","","","","","consent.html","","","","","","","","","","","","","","","","","","","","","","","","",""
"true","","","","","fullscreen","4","26042","0.0-4.0","63ffb67634be3d959f3ff793","64d3ef96556dbe1f0e02b5aa","64da6455f32e927ccfba8b88","","4653","","","","","","","","","","","","","","","","","","","","","","","","","","","","","","","","","","","","",""
"","","","","","survey-text","5","29652","0.0-5.0","63ffb67634be3d959f3ff793","64d3ef96556dbe1f0e02b5aa","64da6455f32e927ccfba8b88","","3604","","","","","","","","","","","","","{""prolificID"":""63ffb67634be3d959f3ff793""}","","","","","","","","","","","","","","","","","","","","","","","",""
"","","","","","browser-check","6","30637","0.0-6.0","63ffb67634be3d959f3ff793","64d3ef96556dbe1f0e02b5aa","64da6455f32e927ccfba8b88","","","1280","1024","true","chrome","115.0.0","false","Windows 10","true","61.08","false","false","","","","","","","","","","","","","","","","","","","","","","","","","",""
"","","","","","instructions","7","68002","0.0-7.0-0.0-0.0","63ffb67634be3d959f3ff793","64d3ef96556dbe1f0e02b5aa","64da6455f32e927ccfba8b88","[{""page_index"":0,""viewing_time"":12604},{""page_index"":1,""viewing_time"":7266},{""page_index"":2,""viewing_time"":9720},{""page_index"":3,""viewing_time"":7775}]","37365","","","","","","","","","","","","","","","","","","","","","","","","","","","","","","","","","","","","",""
"","","","","","html-keyboard-response","8","77384","0.0-7.0-0.0-1.0","63ffb67634be3d959f3ff793","64d3ef96556dbe1f0e02b5aa","64da6455f32e927ccfba8b88","","","","","","","","","","","","","","","","218.9843997456488","188.00171524574392","","","","","","","","","","","","","","","","","","","","","",""
"","","","","","html-keyboard-response","8","77384","0.0-7.0-0.0-1.0","63ffb67634be3d959f3ff793","64d3ef96556dbe1f0e02b5aa","64da6455f32e927ccfba8b88","","","","","","","","","","","","","","","","","","practiceTrial_move","","","","","","","","","","","","","","","","","","","","",""
"","","","","","html-button-response","9","81298","0.0-7.0-0.0-2.0","63ffb67634be3d959f3ff793","64d3ef96556dbe1f0e02b5aa","64da6455f32e927ccfba8b88","","3911","","","","","","","","","","","","","0","","","","<p>To help you get more comfortable with the task, let's begin with a practice trial first!</p><p>As described previously, you will first see a video of a ball falling, some of it behind a gray screen.</p><p>After the video, you will drag a triangle to the spot you think the ball hit the triangle behind the screen.</p><p>Click 'Next' to start your practice trial.</p>","","","","","","","","","","","","","","","","","","","",""
"","","","","","html-keyboard-response","10","84302","0.0-7.0-0.0-3.0","63ffb67634be3d959f3ff793","64d3ef96556dbe1f0e02b5aa","64da6455f32e927ccfba8b88","","null","","","","","","","","","","","","","null","","","fallScene_practiceTrial_withOccluder","","400","50","420","415","","","","","","","","","","","","","","","",""
"","","","","","html-keyboard-response","11","89221","0.0-7.0-0.0-4.0","63ffb67634be3d959f3ff793","64d3ef96556dbe1f0e02b5aa","64da6455f32e927ccfba8b88","","","","","","","","","","","","","","","","","","","","","","","","390.0000999945235","306.9900004999577","4918.299999952316","","","","","","","","","","","","",""
"","","","","","html-keyboard-response","11","89221","0.0-7.0-0.0-4.0","63ffb67634be3d959f3ff793","64d3ef96556dbe1f0e02b5aa","64da6455f32e927ccfba8b88","","","","","","","","","","","","","","","","","","reconstruct_practiceTrial_withOccluder","","","","","","390.0000999945235","306.9900004999577","4918.299999952316","500","300","","","","","","","","","","",""
"","","","","","html-button-response","12","92744","0.0-7.0-0.0-5.0","63ffb67634be3d959f3ff793","64d3ef96556dbe1f0e02b5aa","64da6455f32e927ccfba8b88","","3521","","","","","","","","","","","","","1","","","","<p>Ok! We're almost ready to get started.</p><p>We just have a <b>brief quiz</b>, to make sure you understood the task.</p><p>If you need to review the instructions, click 'Previous'.</p><p>It's important to understand the task to do the study, so you have to pass the quiz to move to the study.</p>","","","","","","","","","","","","","","","","","","","",""
"","","","","","survey-multi-choice","13","100190","0.0-7.0-1.0-0.0","63ffb67634be3d959f3ff793","64d3ef96556dbe1f0e02b5aa","64da6455f32e927ccfba8b88","","7445","","","","","","","","","","","","","{""generalProcedure"":""Watch a video of a ball falling, some of it behind a gray screen. After each video, drag a triangle to where I think the ball hit the triangle behind the screen.""}","","","","","","","","","","","","","","[0]","","","","","","","","","",""
"","","","","","survey-multi-choice","14","103524","0.0-7.0-1.0-1.0","63ffb67634be3d959f3ff793","64d3ef96556dbe1f0e02b5aa","64da6455f32e927ccfba8b88","","3332","","","","","","","","","","","","","{""checkBallHitObstacle"":""Yes.""}","","","","","","","","","","","","","","[0]","","","","","","","","","",""
"","","","","","survey-multi-choice","15","106960","0.0-7.0-1.0-2.0","63ffb67634be3d959f3ff793","64d3ef96556dbe1f0e02b5aa","64da6455f32e927ccfba8b88","","3433","","","","","","","","","","","","","{""checkTriangleVisibility"":""No, the triangle is hidden behind the gray screen.""}","","","","","","","","","","","","","","[0]","","","","","","","","","",""
"","","","","","instructions","16","112725","0.0-8.0","63ffb67634be3d959f3ff793","64d3ef96556dbe1f0e02b5aa","64da6455f32e927ccfba8b88","[{""page_index"":0,""viewing_time"":5763}]","5763","","","","","","","","","","","","","","","","","","","","","","","","","","","","","","","","","","","","",""
"","","","","","html-keyboard-response","17","115734","0.0-9.0-0.0","63ffb67634be3d959f3ff793","64d3ef96556dbe1f0e02b5aa","64da6455f32e927ccfba8b88","","null","","","","","","","","","","","","","null","","","fallScene","","","","","","","","","","","","false","61.98624800000031","322.3","308.07114317029976","253.89","2","1","","",""
"","","","","","html-keyboard-response","18","119433","0.0-9.0-1.0","63ffb67634be3d959f3ff793","64d3ef96556dbe1f0e02b5aa","64da6455f32e927ccfba8b88","","","","","","","","","","","","","","","","","","","","","","","","374.99000249831596","296.9899974150847","3698.399999976158","","","","","","","","","","","","",""
"","","","","","html-keyboard-response","18","119433","0.0-9.0-1.0","63ffb67634be3d959f3ff793","64d3ef96556dbe1f0e02b5aa","64da6455f32e927ccfba8b88","","","","","","","","","","","","","","","","","","reconstruct","","","","","","374.99000249831596","296.9899974150847","3698.399999976158","","","","","","","","","","1","6","625","350"
"","","","","","html-keyboard-response","19","122437","0.0-9.0-0.1","63ffb67634be3d959f3ff793","64d3ef96556dbe1f0e02b5aa","64da6455f32e927ccfba8b88","","null","","","","","","","","","","","","","null","","","fallScene","","","","","","","","","","","","false","61.98057499999983","500","510.8711431702997","369.03","8","2","","",""
"","","","","","html-keyboard-response","20","125324","0.0-9.0-1.1","63ffb67634be3d959f3ff793","64d3ef96556dbe1f0e02b5aa","64da6455f32e927ccfba8b88","","","","","","","","","","","","","","","","","","","","","","","","451.0000023037409","259.99999997752957","2886.900000035763","","","","","","","","","","","","",""
"","","","","","html-keyboard-response","20","125324","0.0-9.0-1.1","63ffb67634be3d959f3ff793","64d3ef96556dbe1f0e02b5aa","64da6455f32e927ccfba8b88","","","","","","","","","","","","","","","","","","reconstruct","","","","","","451.0000023037409","259.99999997752957","2886.900000035763","","","","","","","","","","2","4","500","350"
"","","","","","html-keyboard-response","21","128333","0.0-9.0-0.2","63ffb67634be3d959f3ff793","64d3ef96556dbe1f0e02b5aa","64da6455f32e927ccfba8b88","","null","","","","","","","","","","","","","null","","","fallScene","","","","","","","","","","","","false","62.0133320000005","500","479.92114317029973","330.87","6","3","","",""
"","","","","","html-keyboard-response","22","131938","0.0-9.0-1.2","63ffb67634be3d959f3ff793","64d3ef96556dbe1f0e02b5aa","64da6455f32e927ccfba8b88","","","","","","","","","","","","","","","","","","","","","","","","526.9899317524214","258.00992991373187","3604.599999964237","","","","","","","","","","","","",""
"","","","","","html-keyboard-response","22","131938","0.0-9.0-1.2","63ffb67634be3d959f3ff793","64d3ef96556dbe1f0e02b5aa","64da6455f32e927ccfba8b88","","","","","","","","","","","","","","","","","","reconstruct","","","","","","526.9899317524214","258.00992991373187","3604.599999964237","","","","","","","","","","3","1","375","250"
"","","","","","html-keyboard-response","23","134949","0.0-9.0-0.3","63ffb67634be3d959f3ff793","64d3ef96556dbe1f0e02b5aa","64da6455f32e927ccfba8b88","","null","","","","","","","","","","","","","null","","","fallScene","","","","","","","","","","","","false","62.010099000000515","604.4000000000001","596.8711431702998","394.5","10","4","","",""
"","","","","","html-keyboard-response","24","138237","0.0-9.0-1.3","63ffb67634be3d959f3ff793","64d3ef96556dbe1f0e02b5aa","64da6455f32e927ccfba8b88","","","","","","","","","","","","","","","","","","","","","","","","597.0099999385599","249.0000350542397","3286.800000011921","","","","","","","","","","","","",""
"","","","","","html-keyboard-response","24","138237","0.0-9.0-1.3","63ffb67634be3d959f3ff793","64d3ef96556dbe1f0e02b5aa","64da6455f32e927ccfba8b88","","","","","","","","","","","","","","","","","","reconstruct","","","","","","597.0099999385599","249.0000350542397","3286.800000011921","","","","","","","","","","4","1","375","250"
"","","","","","html-keyboard-response","25","141247","0.0-9.0-0.4","63ffb67634be3d959f3ff793","64d3ef96556dbe1f0e02b5aa","64da6455f32e927ccfba8b88","","null","","","","","","","","","","","","","null","","","fallScene","","","","","","","","","","","","false","61.9985089999986","604.4000000000001","575.4211431702997","266.76","12","5","","",""
"","","","","","html-keyboard-response","26","143885","0.0-9.0-1.4","63ffb67634be3d959f3ff793","64d3ef96556dbe1f0e02b5aa","64da6455f32e927ccfba8b88","","","","","","","","","","","","","","","","","","","","","","","","591.0099956760073","303.98999528115115","2636.900000035763","","","","","","","","","","","","",""
"","","","","","html-keyboard-response","26","143885","0.0-9.0-1.4","63ffb67634be3d959f3ff793","64d3ef96556dbe1f0e02b5aa","64da6455f32e927ccfba8b88","","","","","","","","","","","","","","","","","","reconstruct","","","","","","591.0099956760073","303.98999528115115","2636.900000035763","","","","","","","","","","5","3","500","250"
"","","","","","html-keyboard-response","27","146887","0.0-9.0-0.5","63ffb67634be3d959f3ff793","64d3ef96556dbe1f0e02b5aa","64da6455f32e927ccfba8b88","","null","","","","","","","","","","","","","null","","","fallScene","","","","","","","","","","","","true","61.98551599999927","322.3","379.3711431702997","245.25","1","6","","",""
"","","","","","html-keyboard-response","28","149494","0.0-9.0-1.5","63ffb67634be3d959f3ff793","64d3ef96556dbe1f0e02b5aa","64da6455f32e927ccfba8b88","","","","","","","","","","","","","","","","","","","","","","","","670.9999034383933","241.99000046621805","2607","","","","","","","","","","","","",""
"","","","","","html-keyboard-response","28","149494","0.0-9.0-1.5","63ffb67634be3d959f3ff793","64d3ef96556dbe1f0e02b5aa","64da6455f32e927ccfba8b88","","","","","","","","","","","","","","","","","","reconstruct","","","","","","670.9999034383933","241.99000046621805","2607","","","","","","","","","","6","1","375","250"
"","","","","","html-keyboard-response","29","152509","0.0-9.0-0.6","63ffb67634be3d959f3ff793","64d3ef96556dbe1f0e02b5aa","64da6455f32e927ccfba8b88","","null","","","","","","","","","","","","","null","","","fallScene","","","","","","","","","","","","true","61.99509299999968","322.3","308.07114317029976","253.89","2","7","","",""
"","","","","","html-keyboard-response","30","159521","0.0-9.0-1.6","63ffb67634be3d959f3ff793","64d3ef96556dbe1f0e02b5aa","64da6455f32e927ccfba8b88","","","","","","","","","","","","","","","","","","","","","","","","633.0000010100499","258.990000000051","7011.199999988079","","","","","","","","","","","","",""
"","","","","","html-keyboard-response","30","159521","0.0-9.0-1.6","63ffb67634be3d959f3ff793","64d3ef96556dbe1f0e02b5aa","64da6455f32e927ccfba8b88","","","","","","","","","","","","","","","","","","reconstruct","","","","","","633.0000010100499","258.990000000051","7011.199999988079","","","","","","","","","","7","5","625","250"
"","","","","","html-keyboard-response","31","162524","0.0-9.0-0.7","63ffb67634be3d959f3ff793","64d3ef96556dbe1f0e02b5aa","64da6455f32e927ccfba8b88","","null","","","","","","","","","","","","","null","","","fallScene","","","","","","","","","","","","false","61.979538000001156","322.3","379.3711431702997","245.25","1","8","","",""
"","","","","","html-keyboard-response","32","164995","0.0-9.0-1.7","63ffb67634be3d959f3ff793","64d3ef96556dbe1f0e02b5aa","64da6455f32e927ccfba8b88","","","","","","","","","","","","","","","","","","","","","","","","312.0139816276579","320.0021870157258","2470.2000000476837","","","","","","","","","","","","",""
"","","","","","html-keyboard-response","32","164995","0.0-9.0-1.7","63ffb67634be3d959f3ff793","64d3ef96556dbe1f0e02b5aa","64da6455f32e927ccfba8b88","","","","","","","","","","","","","","","","","","reconstruct","","","","","","312.0139816276579","320.0021870157258","2470.2000000476837","","","","","","","","","","8","2","375","350"
"","","","","","html-keyboard-response","33","168001","0.0-9.0-0.8","63ffb67634be3d959f3ff793","64d3ef96556dbe1f0e02b5aa","64da6455f32e927ccfba8b88","","null","","","","","","","","","","","","","null","","","fallScene","","","","","","","","","","","","true","61.99253100000048","604.4000000000001","596.8711431702998","394.5","10","9","","",""
"","","","","","html-keyboard-response","34","171209","0.0-9.0-1.8","63ffb67634be3d959f3ff793","64d3ef96556dbe1f0e02b5aa","64da6455f32e927ccfba8b88","","","","","","","","","","","","","","","","","","","","","","","","315.00000000034544","344.0000000345998","3207.100000023842","","","","","","","","","","","","",""
"","","","","","html-keyboard-response","34","171209","0.0-9.0-1.8","63ffb67634be3d959f3ff793","64d3ef96556dbe1f0e02b5aa","64da6455f32e927ccfba8b88","","","","","","","","","","","","","","","","","","reconstruct","","","","","","315.00000000034544","344.0000000345998","3207.100000023842","","","","","","","","","","9","5","625","250"
"","","","","","html-keyboard-response","35","174214","0.0-9.0-0.9","63ffb67634be3d959f3ff793","64d3ef96556dbe1f0e02b5aa","64da6455f32e927ccfba8b88","","null","","","","","","","","","","","","","null","","","fallScene","","","","","","","","","","","","false","61.98996899999952","604.4000000000001","596.8711431702998","394.5","10","10","","",""
"","","","","","html-keyboard-response","36","177257","0.0-9.0-1.9","63ffb67634be3d959f3ff793","64d3ef96556dbe1f0e02b5aa","64da6455f32e927ccfba8b88","","","","","","","","","","","","","","","","","","","","","","","","642.0099999999999","351.0100000525446","3042","","","","","","","","","","","","",""
"","","","","","html-keyboard-response","36","177257","0.0-9.0-1.9","63ffb67634be3d959f3ff793","64d3ef96556dbe1f0e02b5aa","64da6455f32e927ccfba8b88","","","","","","","","","","","","","","","","","","reconstruct","","","","","","642.0099999999999","351.0100000525446","3042","","","","","","","","","","10","2","375","350"
"","","","","","html-keyboard-response","37","180268","0.0-9.0-0.10","63ffb67634be3d959f3ff793","64d3ef96556dbe1f0e02b5aa","64da6455f32e927ccfba8b88","","null","","","","","","","","","","","","","null","","","fallScene","","","","","","","","","","","","false","61.992774999999654","604.4000000000001","667.6211431702998","201.78","9","11","","",""
"","","","","","html-keyboard-response","38","183227","0.0-9.0-1.10","63ffb67634be3d959f3ff793","64d3ef96556dbe1f0e02b5aa","64da6455f32e927ccfba8b88","","","","","","","","","","","","","","","","","","","","","","","","587.0099602611788","398.000890616219","2957","","","","","","","","","","","","",""
"","","","","","html-keyboard-response","38","183227","0.0-9.0-1.10","63ffb67634be3d959f3ff793","64d3ef96556dbe1f0e02b5aa","64da6455f32e927ccfba8b88","","","","","","","","","","","","","","","","","","reconstruct","","","","","","587.0099602611788","398.000890616219","2957","","","","","","","","","","11","6","625","350"
"","","","","","html-keyboard-response","39","186232","0.0-9.0-0.11","63ffb67634be3d959f3ff793","64d3ef96556dbe1f0e02b5aa","64da6455f32e927ccfba8b88","","null","","","","","","","","","","","","","null","","","fallScene","","","","","","","","","","","","false","61.99606899999986","500","510.8711431702997","369.03","8","12","","",""
"","","","","","html-keyboard-response","40","189879","0.0-9.0-1.11","63ffb67634be3d959f3ff793","64d3ef96556dbe1f0e02b5aa","64da6455f32e927ccfba8b88","","","","","","","","","","","","","","","","","","","","","","","","474.99991557060383","255.99878678713594","3646.400000035763","","","","","","","","","","","","",""
"","","","","","html-keyboard-response","40","189879","0.0-9.0-1.11","63ffb67634be3d959f3ff793","64d3ef96556dbe1f0e02b5aa","64da6455f32e927ccfba8b88","","","","","","","","","","","","","","","","","","reconstruct","","","","","","474.99991557060383","255.99878678713594","3646.400000035763","","","","","","","","","","12","6","625","350"
"","","","","","html-keyboard-response","41","192881","0.0-9.0-0.12","63ffb67634be3d959f3ff793","64d3ef96556dbe1f0e02b5aa","64da6455f32e927ccfba8b88","","null","","","","","","","","","","","","","null","","","fallScene","","","","","","","","","","","","false","61.99759399999951","500","453.67114317029973","210.33","5","13","","",""
"","","","","","html-keyboard-response","42","196131","0.0-9.0-1.12","63ffb67634be3d959f3ff793","64d3ef96556dbe1f0e02b5aa","64da6455f32e927ccfba8b88","","","","","","","","","","","","","","","","","","","","","","","","576.0100003454771","388.99004156288896","3248.900000035763","","","","","","","","","","","","",""
"","","","","","html-keyboard-response","42","196131","0.0-9.0-1.12","63ffb67634be3d959f3ff793","64d3ef96556dbe1f0e02b5aa","64da6455f32e927ccfba8b88","","","","","","","","","","","","","","","","","","reconstruct","","","","","","576.0100003454771","388.99004156288896","3248.900000035763","","","","","","","","","","13","3","500","250"
"","","","","","html-keyboard-response","43","199140","0.0-9.0-0.13","63ffb67634be3d959f3ff793","64d3ef96556dbe1f0e02b5aa","64da6455f32e927ccfba8b88","","null","","","","","","","","","","","","","null","","","fallScene","","","","","","","","","","","","false","62.01412499999999","604.4000000000001","667.6211431702998","201.78","9","14","","",""
"","","","","","html-keyboard-response","44","202681","0.0-9.0-1.13","63ffb67634be3d959f3ff793","64d3ef96556dbe1f0e02b5aa","64da6455f32e927ccfba8b88","","","","","","","","","","","","","","","","","","","","","","","","584.00000101005","386.009999999949","3540.300000011921","","","","","","","","","","","","",""
"","","","","","html-keyboard-response","44","202681","0.0-9.0-1.13","63ffb67634be3d959f3ff793","64d3ef96556dbe1f0e02b5aa","64da6455f32e927ccfba8b88","","","","","","","","","","","","","","","","","","reconstruct","","","","","","584.00000101005","386.009999999949","3540.300000011921","","","","","","","","","","14","3","500","250"
"","","","","","html-keyboard-response","45","205686","0.0-9.0-0.14","63ffb67634be3d959f3ff793","64d3ef96556dbe1f0e02b5aa","64da6455f32e927ccfba8b88","","null","","","","","","","","","","","","","null","","","fallScene","","","","","","","","","","","","false","61.98679700000154","500","553.4711431702997","282.51","7","15","","",""
"","","","","","html-keyboard-response","46","208722","0.0-9.0-1.14","63ffb67634be3d959f3ff793","64d3ef96556dbe1f0e02b5aa","64da6455f32e927ccfba8b88","","","","","","","","","","","","","","","","","","","","","","","","431.99962880722387","362.00999310842144","3035.5","","","","","","","","","","","","",""
"","","","","","html-keyboard-response","46","208722","0.0-9.0-1.14","63ffb67634be3d959f3ff793","64d3ef96556dbe1f0e02b5aa","64da6455f32e927ccfba8b88","","","","","","","","","","","","","","","","","","reconstruct","","","","","","431.99962880722387","362.00999310842144","3035.5","","","","","","","","","","15","3","500","250"
"","","","","","html-keyboard-response","47","211724","0.0-9.0-0.15","63ffb67634be3d959f3ff793","64d3ef96556dbe1f0e02b5aa","64da6455f32e927ccfba8b88","","null","","","","","","","","","","","","","null","","","fallScene","","","","","","","","","","","","false","61.99844799999925","322.3","356.42114317029973","357.87","4","16","","",""
"","","","","","html-keyboard-response","48","215155","0.0-9.0-1.15","63ffb67634be3d959f3ff793","64d3ef96556dbe1f0e02b5aa","64da6455f32e927ccfba8b88","","","","","","","","","","","","","","","","","","","","","","","","312.9998999999994","370.0099994999875","3430.699999988079","","","","","","","","","","","","",""
"","","","","","html-keyboard-response","48","215155","0.0-9.0-1.15","63ffb67634be3d959f3ff793","64d3ef96556dbe1f0e02b5aa","64da6455f32e927ccfba8b88","","","","","","","","","","","","","","","","","","reconstruct","","","","","","312.9998999999994","370.0099994999875","3430.699999988079","","","","","","","","","","16","5","625","250"
"","","","","","html-keyboard-response","49","218166","0.0-9.0-0.16","63ffb67634be3d959f3ff793","64d3ef96556dbe1f0e02b5aa","64da6455f32e927ccfba8b88","","null","","","","","","","","","","","","","null","","","fallScene","","","","","","","","","","","","false","61.99856999999972","604.4000000000001","575.4211431702997","266.76","12","17","","",""
"","","","","","html-keyboard-response","50","221037","0.0-9.0-1.16","63ffb67634be3d959f3ff793","64d3ef96556dbe1f0e02b5aa","64da6455f32e927ccfba8b88","","","","","","","","","","","","","","","","","","","","","","","","638.99","391.9899999999337","2871","","","","","","","","","","","","",""
"","","","","","html-keyboard-response","50","221037","0.0-9.0-1.16","63ffb67634be3d959f3ff793","64d3ef96556dbe1f0e02b5aa","64da6455f32e927ccfba8b88","","","","","","","","","","","","","","","","","","reconstruct","","","","","","638.99","391.9899999999337","2871","","","","","","","","","","17","4","500","350"
"","","","","","html-keyboard-response","51","224050","0.0-9.0-0.17","63ffb67634be3d959f3ff793","64d3ef96556dbe1f0e02b5aa","64da6455f32e927ccfba8b88","","null","","","","","","","","","","","","","null","","","fallScene","","","","","","","","","","","","true","61.99472700000005","604.4000000000001","650.0211431702996","404.58000000000004","11","18","","",""
"","","","","","html-keyboard-response","52","227909","0.0-9.0-1.17","63ffb67634be3d959f3ff793","64d3ef96556dbe1f0e02b5aa","64da6455f32e927ccfba8b88","","","","","","","","","","","","","","","","","","","","","","","","366.0099997489046","381.9999291350191","3858.399999976158","","","","","","","","","","","","",""
"","","","","","html-keyboard-response","52","227909","0.0-9.0-1.17","63ffb67634be3d959f3ff793","64d3ef96556dbe1f0e02b5aa","64da6455f32e927ccfba8b88","","","","","","","","","","","","","","","","","","reconstruct","","","","","","366.0099997489046","381.9999291350191","3858.399999976158","","","","","","","","","","18","1","375","250"
"","","","","","html-button-response","53","239575","0.0-10.0","63ffb67634be3d959f3ff793","64d3ef96556dbe1f0e02b5aa","64da6455f32e927ccfba8b88","","11665","","","","","","","","","","","","","0","","","","<p><span style = ""font-size:40px;"">BREAK</span></p><p>You are doing great! Click 'Next' when you are ready for the next set.</p>","","","","","","","","","","","","","","","","","","","",""
"","","","","","html-keyboard-response","54","242580","0.0-11.0-0.0","63ffb67634be3d959f3ff793","64d3ef96556dbe1f0e02b5aa","64da6455f32e927ccfba8b88","","null","","","","","","","","","","","","","null","","","fallScene","","","","","","","","","","","","false","61.97764700000011","500","553.4711431702997","282.51","7","19","","",""
"","","","","","html-keyboard-response","55","245915","0.0-11.0-1.0","63ffb67634be3d959f3ff793","64d3ef96556dbe1f0e02b5aa","64da6455f32e927ccfba8b88","","","","","","","","","","","","","","","","","","","","","","","","436.00854888580807","382.00490744874065","3333.5","","","","","","","","","","","","",""
"","","","","","html-keyboard-response","55","245915","0.0-11.0-1.0","63ffb67634be3d959f3ff793","64d3ef96556dbe1f0e02b5aa","64da6455f32e927ccfba8b88","","","","","","","","","","","","","","","","","","reconstruct","","","","","","436.00854888580807","382.00490744874065","3333.5","","","","","","","","","","19","5","625","250"
"","","","","","html-keyboard-response","56","248917","0.0-11.0-0.1","63ffb67634be3d959f3ff793","64d3ef96556dbe1f0e02b5aa","64da6455f32e927ccfba8b88","","null","","","","","","","","","","","","","null","","","fallScene","","","","","","","","","","","","true","61.99704500000007","500","510.8711431702997","369.03","8","20","","",""
"","","","","","html-keyboard-response","57","253225","0.0-11.0-1.1","63ffb67634be3d959f3ff793","64d3ef96556dbe1f0e02b5aa","64da6455f32e927ccfba8b88","","","","","","","","","","","","","","","","","","","","","","","","494","306.99","4307.5","","","","","","","","","","","","",""
"","","","","","html-keyboard-response","57","253225","0.0-11.0-1.1","63ffb67634be3d959f3ff793","64d3ef96556dbe1f0e02b5aa","64da6455f32e927ccfba8b88","","","","","","","","","","","","","","","","","","reconstruct","","","","","","494","306.99","4307.5","","","","","","","","","","20","2","375","350"
"","","","","","html-keyboard-response","58","256243","0.0-11.0-0.2","63ffb67634be3d959f3ff793","64d3ef96556dbe1f0e02b5aa","64da6455f32e927ccfba8b88","","null","","","","","","","","","","","","","null","","","fallScene","","","","","","","","","","","","false","61.97984299999967","500","553.4711431702997","282.51","7","21","","",""
"","","","","","html-keyboard-response","59","259831","0.0-11.0-1.2","63ffb67634be3d959f3ff793","64d3ef96556dbe1f0e02b5aa","64da6455f32e927ccfba8b88","","","","","","","","","","","","","","","","","","","","","","","","511.0099999999998","301.99999993895415","3588.199999988079","","","","","","","","","","","","",""
"","","","","","html-keyboard-response","59","259831","0.0-11.0-1.2","63ffb67634be3d959f3ff793","64d3ef96556dbe1f0e02b5aa","64da6455f32e927ccfba8b88","","","","","","","","","","","","","","","","","","reconstruct","","","","","","511.0099999999998","301.99999993895415","3588.199999988079","","","","","","","","","","21","2","375","350"
"","","","","","html-keyboard-response","60","262838","0.0-11.0-0.3","63ffb67634be3d959f3ff793","64d3ef96556dbe1f0e02b5aa","64da6455f32e927ccfba8b88","","null","","","","","","","","","","","","","null","","","fallScene","","","","","","","","","","","","false","61.99930200000075","500","510.8711431702997","369.03","8","22","","",""
"","","","","","html-keyboard-response","61","269817","0.0-11.0-1.3","63ffb67634be3d959f3ff793","64d3ef96556dbe1f0e02b5aa","64da6455f32e927ccfba8b88","","","","","","","","","","","","","","","","","","","","","","","","528.0099998750023","239.99995000062353","6978.399999976158","","","","","","","","","","","","",""
"","","","","","html-keyboard-response","61","269817","0.0-11.0-1.3","63ffb67634be3d959f3ff793","64d3ef96556dbe1f0e02b5aa","64da6455f32e927ccfba8b88","","","","","","","","","","","","","","","","","","reconstruct","","","","","","528.0099998750023","239.99995000062353","6978.399999976158","","","","","","","","","","22","3","500","250"
"","","","","","html-keyboard-response","62","272819","0.0-11.0-0.4","63ffb67634be3d959f3ff793","64d3ef96556dbe1f0e02b5aa","64da6455f32e927ccfba8b88","","null","","","","","","","","","","","","","null","","","fallScene","","","","","","","","","","","","true","61.969838999998515","604.4000000000001","575.4211431702997","266.76","12","23","","",""
"","","","","","html-keyboard-response","63","276549","0.0-11.0-1.4","63ffb67634be3d959f3ff793","64d3ef96556dbe1f0e02b5aa","64da6455f32e927ccfba8b88","","","","","","","","","","","","","","","","","","","","","","","","398.01004797952226","279.96999891773686","3729.800000011921","","","","","","","","","","","","",""
"","","","","","html-keyboard-response","63","276549","0.0-11.0-1.4","63ffb67634be3d959f3ff793","64d3ef96556dbe1f0e02b5aa","64da6455f32e927ccfba8b88","","","","","","","","","","","","","","","","","","reconstruct","","","","","","398.01004797952226","279.96999891773686","3729.800000011921","","","","","","","","","","23","6","625","350"
"","","","","","html-keyboard-response","64","279552","0.0-11.0-0.5","63ffb67634be3d959f3ff793","64d3ef96556dbe1f0e02b5aa","64da6455f32e927ccfba8b88","","null","","","","","","","","","","","","","null","","","fallScene","","","","","","","","","","","","false","62.00015600000048","604.4000000000001","667.6211431702998","201.78","9","24","","",""
"","","","","","html-keyboard-response","65","283827","0.0-11.0-1.5","63ffb67634be3d959f3ff793","64d3ef96556dbe1f0e02b5aa","64da6455f32e927ccfba8b88","","","","","","","","","","","","","","","","","","","","","","","","621.0100004903229","289.9900982503413","4274.300000011921","","","","","","","","","","","","",""
"","","","","","html-keyboard-response","65","283827","0.0-11.0-1.5","63ffb67634be3d959f3ff793","64d3ef96556dbe1f0e02b5aa","64da6455f32e927ccfba8b88","","","","","","","","","","","","","","","","","","reconstruct","","","","","","621.0100004903229","289.9900982503413","4274.300000011921","","","","","","","","","","24","1","375","250"
"","","","","","html-keyboard-response","66","286831","0.0-11.0-0.6","63ffb67634be3d959f3ff793","64d3ef96556dbe1f0e02b5aa","64da6455f32e927ccfba8b88","","null","","","","","","","","","","","","","null","","","fallScene","","","","","","","","","","","","false","61.99393399999966","322.3","308.07114317029976","253.89","2","25","","",""
"","","","","","html-keyboard-response","67","291835","0.0-11.0-1.6","63ffb67634be3d959f3ff793","64d3ef96556dbe1f0e02b5aa","64da6455f32e927ccfba8b88","","","","","","","","","","","","","","","","","","","","","","","","299.00000011762074","257.0099999999993","5003.5","","","","","","","","","","","","",""
"","","","","","html-keyboard-response","67","291835","0.0-11.0-1.6","63ffb67634be3d959f3ff793","64d3ef96556dbe1f0e02b5aa","64da6455f32e927ccfba8b88","","","","","","","","","","","","","","","","","","reconstruct","","","","","","299.00000011762074","257.0099999999993","5003.5","","","","","","","","","","25","3","500","250"
"","","","","","html-keyboard-response","68","294840","0.0-11.0-0.7","63ffb67634be3d959f3ff793","64d3ef96556dbe1f0e02b5aa","64da6455f32e927ccfba8b88","","null","","","","","","","","","","","","","null","","","fallScene","","","","","","","","","","","","true","61.99759399999951","604.4000000000001","575.4211431702997","266.76","12","26","","",""
"","","","","","html-keyboard-response","69","302812","0.0-11.0-1.7","63ffb67634be3d959f3ff793","64d3ef96556dbe1f0e02b5aa","64da6455f32e927ccfba8b88","","","","","","","","","","","","","","","","","","","","","","","","374.99","271.00000000000387","7971.200000047684","","","","","","","","","","","","",""
"","","","","","html-keyboard-response","69","302812","0.0-11.0-1.7","63ffb67634be3d959f3ff793","64d3ef96556dbe1f0e02b5aa","64da6455f32e927ccfba8b88","","","","","","","","","","","","","","","","","","reconstruct","","","","","","374.99","271.00000000000387","7971.200000047684","","","","","","","","","","26","5","625","250"
"","","","","","html-keyboard-response","70","305824","0.0-11.0-0.8","63ffb67634be3d959f3ff793","64d3ef96556dbe1f0e02b5aa","64da6455f32e927ccfba8b88","","null","","","","","","","","","","","","","null","","","fallScene","","","","","","","","","","","","false","61.995641999999116","604.4000000000001","575.4211431702997","266.76","12","27","","",""
"","","","","","html-keyboard-response","71","310701","0.0-11.0-1.8","63ffb67634be3d959f3ff793","64d3ef96556dbe1f0e02b5aa","64da6455f32e927ccfba8b88","","","","","","","","","","","","","","","","","","","","","","","","579.0006460892365","272.9800208255847","4877.199999988079","","","","","","","","","","","","",""
"","","","","","html-keyboard-response","71","310701","0.0-11.0-1.8","63ffb67634be3d959f3ff793","64d3ef96556dbe1f0e02b5aa","64da6455f32e927ccfba8b88","","","","","","","","","","","","","","","","","","reconstruct","","","","","","579.0006460892365","272.9800208255847","4877.199999988079","","","","","","","","","","27","2","375","350"
"","","","","","html-keyboard-response","72","313706","0.0-11.0-0.9","63ffb67634be3d959f3ff793","64d3ef96556dbe1f0e02b5aa","64da6455f32e927ccfba8b88","","null","","","","","","","","","","","","","null","","","fallScene","","","","","","","","","","","","false","61.995702999998464","500","479.92114317029973","330.87","6","28","","",""
"","","","","","html-keyboard-response","73","317221","0.0-11.0-1.9","63ffb67634be3d959f3ff793","64d3ef96556dbe1f0e02b5aa","64da6455f32e927ccfba8b88","","","","","","","","","","","","","","","","","","","","","","","","463.9800004710721","256.01009711365646","3515.400000035763","","","","","","","","","","","","",""
"","","","","","html-keyboard-response","73","317221","0.0-11.0-1.9","63ffb67634be3d959f3ff793","64d3ef96556dbe1f0e02b5aa","64da6455f32e927ccfba8b88","","","","","","","","","","","","","","","","","","reconstruct","","","","","","463.9800004710721","256.01009711365646","3515.400000035763","","","","","","","","","","28","3","500","250"
"","","","","","html-keyboard-response","74","320233","0.0-11.0-0.10","63ffb67634be3d959f3ff793","64d3ef96556dbe1f0e02b5aa","64da6455f32e927ccfba8b88","","null","","","","","","","","","","","","","null","","","fallScene","","","","","","","","","","","","true","61.9961909999968","322.3","296.07114317029976","371.46","3","29","","",""
"","","","","","html-keyboard-response","75","323849","0.0-11.0-1.10","63ffb67634be3d959f3ff793","64d3ef96556dbe1f0e02b5aa","64da6455f32e927ccfba8b88","","","","","","","","","","","","","","","","","","","","","","","","669.0099999999992","242.0000001261891","3615.900000035763","","","","","","","","","","","","",""
"","","","","","html-keyboard-response","75","323849","0.0-11.0-1.10","63ffb67634be3d959f3ff793","64d3ef96556dbe1f0e02b5aa","64da6455f32e927ccfba8b88","","","","","","","","","","","","","","","","","","reconstruct","","","","","","669.0099999999992","242.0000001261891","3615.900000035763","","","","","","","","","","29","6","625","350"
"","","","","","html-keyboard-response","76","326851","0.0-11.0-0.11","63ffb67634be3d959f3ff793","64d3ef96556dbe1f0e02b5aa","64da6455f32e927ccfba8b88","","null","","","","","","","","","","","","","null","","","fallScene","","","","","","","","","","","","false","62.006987999998316","322.3","379.3711431702997","245.25","1","30","","",""
"","","","","","html-keyboard-response","77","331042","0.0-11.0-1.11","63ffb67634be3d959f3ff793","64d3ef96556dbe1f0e02b5aa","64da6455f32e927ccfba8b88","","","","","","","","","","","","","","","","","","","","","","","","342.0070354459916","240.9928934889222","4190.5","","","","","","","","","","","","",""
"","","","","","html-keyboard-response","77","331042","0.0-11.0-1.11","63ffb67634be3d959f3ff793","64d3ef96556dbe1f0e02b5aa","64da6455f32e927ccfba8b88","","","","","","","","","","","","","","","","","","reconstruct","","","","","","342.0070354459916","240.9928934889222","4190.5","","","","","","","","","","30","6","625","350"
"","","","","","html-keyboard-response","78","334048","0.0-11.0-0.12","63ffb67634be3d959f3ff793","64d3ef96556dbe1f0e02b5aa","64da6455f32e927ccfba8b88","","null","","","","","","","","","","","","","null","","","fallScene","","","","","","","","","","","","true","61.99362899999937","604.4000000000001","650.0211431702996","404.58000000000004","11","31","","",""
"","","","","","html-keyboard-response","79","338431","0.0-11.0-1.12","63ffb67634be3d959f3ff793","64d3ef96556dbe1f0e02b5aa","64da6455f32e927ccfba8b88","","","","","","","","","","","","","","","","","","","","","","","","338.99289384245003","279.9929641969275","4382.299999952316","","","","","","","","","","","","",""
"","","","","","html-keyboard-response","79","338431","0.0-11.0-1.12","63ffb67634be3d959f3ff793","64d3ef96556dbe1f0e02b5aa","64da6455f32e927ccfba8b88","","","","","","","","","","","","","","","","","","reconstruct","","","","","","338.99289384245003","279.9929641969275","4382.299999952316","","","","","","","","","","31","3","500","250"
"","","","","","html-keyboard-response","80","341445","0.0-11.0-0.13","63ffb67634be3d959f3ff793","64d3ef96556dbe1f0e02b5aa","64da6455f32e927ccfba8b88","","null","","","","","","","","","","","","","null","","","fallScene","","","","","","","","","","","","false","61.979538000001156","500","453.67114317029973","210.33","5","32","","",""
"","","","","","html-keyboard-response","81","345301","0.0-11.0-1.13","63ffb67634be3d959f3ff793","64d3ef96556dbe1f0e02b5aa","64da6455f32e927ccfba8b88","","","","","","","","","","","","","","","","","","","","","","","","448.9904196287543","255.00286644148642","3855.599999964237","","","","","","","","","","","","",""
"","","","","","html-keyboard-response","81","345301","0.0-11.0-1.13","63ffb67634be3d959f3ff793","64d3ef96556dbe1f0e02b5aa","64da6455f32e927ccfba8b88","","","","","","","","","","","","","","","","","","reconstruct","","","","","","448.9904196287543","255.00286644148642","3855.599999964237","","","","","","","","","","32","1","375","250"
"","","","","","html-keyboard-response","82","348308","0.0-11.0-0.14","63ffb67634be3d959f3ff793","64d3ef96556dbe1f0e02b5aa","64da6455f32e927ccfba8b88","","null","","","","","","","","","","","","","null","","","fallScene","","","","","","","","","","","","false","61.974779999998866","322.3","379.3711431702997","245.25","1","33","","",""
"","","","","","html-keyboard-response","83","352725","0.0-11.0-1.14","63ffb67634be3d959f3ff793","64d3ef96556dbe1f0e02b5aa","64da6455f32e927ccfba8b88","","","","","","","","","","","","","","","","","","","","","","","","346.9900017103222","241.99981505806616","4416.099999964237","","","","","","","","","","","","",""
"","","","","","html-keyboard-response","83","352725","0.0-11.0-1.14","63ffb67634be3d959f3ff793","64d3ef96556dbe1f0e02b5aa","64da6455f32e927ccfba8b88","","","","","","","","","","","","","","","","","","reconstruct","","","","","","346.9900017103222","241.99981505806616","4416.099999964237","","","","","","","","","","33","3","500","250"
"","","","","","html-keyboard-response","84","355740","0.0-11.0-0.15","63ffb67634be3d959f3ff793","64d3ef96556dbe1f0e02b5aa","64da6455f32e927ccfba8b88","","null","","","","","","","","","","","","","null","","","fallScene","","","","","","","","","","","","false","61.99393399999966","604.4000000000001","596.8711431702998","394.5","10","34","","",""
"","","","","","html-keyboard-response","85","360049","0.0-11.0-1.15","63ffb67634be3d959f3ff793","64d3ef96556dbe1f0e02b5aa","64da6455f32e927ccfba8b88","","","","","","","","","","","","","","","","","","","","","","","","580.9988481894045","243.00993344514015","4308.199999988079","","","","","","","","","","","","",""
"","","","","","html-keyboard-response","85","360049","0.0-11.0-1.15","63ffb67634be3d959f3ff793","64d3ef96556dbe1f0e02b5aa","64da6455f32e927ccfba8b88","","","","","","","","","","","","","","","","","","reconstruct","","","","","","580.9988481894045","243.00993344514015","4308.199999988079","","","","","","","","","","34","6","625","350"
"","","","","","html-keyboard-response","86","363055","0.0-11.0-0.16","63ffb67634be3d959f3ff793","64d3ef96556dbe1f0e02b5aa","64da6455f32e927ccfba8b88","","null","","","","","","","","","","","","","null","","","fallScene","","","","","","","","","","","","true","61.98411300000188","322.3","296.07114317029976","371.46","3","35","","",""
"","","","","","html-keyboard-response","87","366647","0.0-11.0-1.16","63ffb67634be3d959f3ff793","64d3ef96556dbe1f0e02b5aa","64da6455f32e927ccfba8b88","","","","","","","","","","","","","","","","","","","","","","","","663.01","241.99999999898458","3592","","","","","","","","","","","","",""
"","","","","","html-keyboard-response","87","366647","0.0-11.0-1.16","63ffb67634be3d959f3ff793","64d3ef96556dbe1f0e02b5aa","64da6455f32e927ccfba8b88","","","","","","","","","","","","","","","","","","reconstruct","","","","","","663.01","241.99999999898458","3592","","","","","","","","","","35","4","500","350"
"","","","","","html-keyboard-response","88","369652","0.0-11.0-0.17","63ffb67634be3d959f3ff793","64d3ef96556dbe1f0e02b5aa","64da6455f32e927ccfba8b88","","null","","","","","","","","","","","","","null","","","fallScene","","","","","","","","","","","","true","62.00369400000165","500","479.92114317029973","330.87","6","36","","",""
"","","","","","html-keyboard-response","89","373693","0.0-11.0-1.17","63ffb67634be3d959f3ff793","64d3ef96556dbe1f0e02b5aa","64da6455f32e927ccfba8b88","","","","","","","","","","","","","","","","","","","","","","","","492.00793149016823","239.99390972383944","4040.100000023842","","","","","","","","","","","","",""
"","","","","","html-keyboard-response","89","373693","0.0-11.0-1.17","63ffb67634be3d959f3ff793","64d3ef96556dbe1f0e02b5aa","64da6455f32e927ccfba8b88","","","","","","","","","","","","","","","","","","reconstruct","","","","","","492.00793149016823","239.99390972383944","4040.100000023842","","","","","","","","","","36","5","625","250"
"","","","","","html-button-response","90","438174","0.0-12.0","63ffb67634be3d959f3ff793","64d3ef96556dbe1f0e02b5aa","64da6455f32e927ccfba8b88","","64479","","","","","","","","","","","","","0","","","","<p><span style = ""font-size:40px;"">BREAK</span></p><p>You are halfway done! Click 'Next' when you are ready for the next set.</p>","","","","","","","","","","","","","","","","","","","",""
"","","","","","html-keyboard-response","91","441177","0.0-13.0-0.0","63ffb67634be3d959f3ff793","64d3ef96556dbe1f0e02b5aa","64da6455f32e927ccfba8b88","","null","","","","","","","","","","","","","null","","","fallScene","","","","","","","","","","","","false","61.98667499999929","322.3","296.07114317029976","371.46","3","37","","",""
"","","","","","html-keyboard-response","92","444227","0.0-13.0-1.0","63ffb67634be3d959f3ff793","64d3ef96556dbe1f0e02b5aa","64da6455f32e927ccfba8b88","","","","","","","","","","","","","","","","","","","","","","","","288.01062238647154","246.99062640659557","3049.199999988079","","","","","","","","","","","","",""
"","","","","","html-keyboard-response","92","444227","0.0-13.0-1.0","63ffb67634be3d959f3ff793","64d3ef96556dbe1f0e02b5aa","64da6455f32e927ccfba8b88","","","","","","","","","","","","","","","","","","reconstruct","","","","","","288.01062238647154","246.99062640659557","3049.199999988079","","","","","","","","","","37","1","375","250"
"","","","","","html-keyboard-response","93","447233","0.0-13.0-0.1","63ffb67634be3d959f3ff793","64d3ef96556dbe1f0e02b5aa","64da6455f32e927ccfba8b88","","null","","","","","","","","","","","","","null","","","fallScene","","","","","","","","","","","","true","61.98612599999807","604.4000000000001","667.6211431702998","201.78","9","38","","",""
"","","","","","html-keyboard-response","94","450862","0.0-13.0-1.1","63ffb67634be3d959f3ff793","64d3ef96556dbe1f0e02b5aa","64da6455f32e927ccfba8b88","","","","","","","","","","","","","","","","","","","","","","","","334.0097814424432","284.99792072519136","3628.699999988079","","","","","","","","","","","","",""
"","","","","","html-keyboard-response","94","450862","0.0-13.0-1.1","63ffb67634be3d959f3ff793","64d3ef96556dbe1f0e02b5aa","64da6455f32e927ccfba8b88","","","","","","","","","","","","","","","","","","reconstruct","","","","","","334.0097814424432","284.99792072519136","3628.699999988079","","","","","","","","","","38","4","500","350"
"","","","","","html-keyboard-response","95","453873","0.0-13.0-0.2","63ffb67634be3d959f3ff793","64d3ef96556dbe1f0e02b5aa","64da6455f32e927ccfba8b88","","null","","","","","","","","","","","","","null","","","fallScene","","","","","","","","","","","","false","61.99320199999685","500","553.4711431702997","282.51","7","39","","",""
"","","","","","html-keyboard-response","96","458769","0.0-13.0-1.2","63ffb67634be3d959f3ff793","64d3ef96556dbe1f0e02b5aa","64da6455f32e927ccfba8b88","","","","","","","","","","","","","","","","","","","","","","","","455.9888662526416","282.99124249908346","4895.300000011921","","","","","","","","","","","","",""
"","","","","","html-keyboard-response","96","458769","0.0-13.0-1.2","63ffb67634be3d959f3ff793","64d3ef96556dbe1f0e02b5aa","64da6455f32e927ccfba8b88","","","","","","","","","","","","","","","","","","reconstruct","","","","","","455.9888662526416","282.99124249908346","4895.300000011921","","","","","","","","","","39","1","375","250"
"","","","","","html-keyboard-response","97","461773","0.0-13.0-0.3","63ffb67634be3d959f3ff793","64d3ef96556dbe1f0e02b5aa","64da6455f32e927ccfba8b88","","null","","","","","","","","","","","","","null","","","fallScene","","","","","","","","","","","","false","62.006439000000654","500","510.8711431702997","369.03","8","40","","",""
"","","","","","html-keyboard-response","98","465797","0.0-13.0-1.3","63ffb67634be3d959f3ff793","64d3ef96556dbe1f0e02b5aa","64da6455f32e927ccfba8b88","","","","","","","","","","","","","","","","","","","","","","","","477.0099918479021","241.01000895197524","4023.099999964237","","","","","","","","","","","","",""
"","","","","","html-keyboard-response","98","465797","0.0-13.0-1.3","63ffb67634be3d959f3ff793","64d3ef96556dbe1f0e02b5aa","64da6455f32e927ccfba8b88","","","","","","","","","","","","","","","","","","reconstruct","","","","","","477.0099918479021","241.01000895197524","4023.099999964237","","","","","","","","","","40","1","375","250"
"","","","","","html-keyboard-response","99","468801","0.0-13.0-0.4","63ffb67634be3d959f3ff793","64d3ef96556dbe1f0e02b5aa","64da6455f32e927ccfba8b88","","null","","","","","","","","","","","","","null","","","fallScene","","","","","","","","","","","","true","62.006805000000284","604.4000000000001","650.0211431702996","404.58000000000004","11","41","","",""
"","","","","","html-keyboard-response","100","473391","0.0-13.0-1.4","63ffb67634be3d959f3ff793","64d3ef96556dbe1f0e02b5aa","64da6455f32e927ccfba8b88","","","","","","","","","","","","","","","","","","","","","","","","344.9999500008041","263.00999987500325","4589","","","","","","","","","","","","",""
"","","","","","html-keyboard-response","100","473391","0.0-13.0-1.4","63ffb67634be3d959f3ff793","64d3ef96556dbe1f0e02b5aa","64da6455f32e927ccfba8b88","","","","","","","","","","","","","","","","","","reconstruct","","","","","","344.9999500008041","263.00999987500325","4589","","","","","","","","","","41","4","500","350"
"","","","","","html-keyboard-response","101","476393","0.0-13.0-0.5","63ffb67634be3d959f3ff793","64d3ef96556dbe1f0e02b5aa","64da6455f32e927ccfba8b88","","null","","","","","","","","","","","","","null","","","fallScene","","","","","","","","","","","","true","61.99649600000063","322.3","379.3711431702997","245.25","1","42","","",""
"","","","","","html-keyboard-response","102","480419","0.0-13.0-1.5","63ffb67634be3d959f3ff793","64d3ef96556dbe1f0e02b5aa","64da6455f32e927ccfba8b88","","","","","","","","","","","","","","","","","","","","","","","","638.01","299","4024.600000023842","","","","","","","","","","","","",""
"","","","","","html-keyboard-response","102","480419","0.0-13.0-1.5","63ffb67634be3d959f3ff793","64d3ef96556dbe1f0e02b5aa","64da6455f32e927ccfba8b88","","","","","","","","","","","","","","","","","","reconstruct","","","","","","638.01","299","4024.600000023842","","","","","","","","","","42","5","625","250"
"","","","","","html-keyboard-response","103","483427","0.0-13.0-0.6","63ffb67634be3d959f3ff793","64d3ef96556dbe1f0e02b5aa","64da6455f32e927ccfba8b88","","null","","","","","","","","","","","","","null","","","fallScene","","","","","","","","","","","","false","61.97795200000039","500","479.92114317029973","330.87","6","43","","",""
"","","","","","html-keyboard-response","104","487323","0.0-13.0-1.6","63ffb67634be3d959f3ff793","64d3ef96556dbe1f0e02b5aa","64da6455f32e927ccfba8b88","","","","","","","","","","","","","","","","","","","","","","","","464.99935059686345","264.0099788914999","3895.400000035763","","","","","","","","","","","","",""
"","","","","","html-keyboard-response","104","487323","0.0-13.0-1.6","63ffb67634be3d959f3ff793","64d3ef96556dbe1f0e02b5aa","64da6455f32e927ccfba8b88","","","","","","","","","","","","","","","","","","reconstruct","","","","","","464.99935059686345","264.0099788914999","3895.400000035763","","","","","","","","","","43","6","625","350"
"","","","","","html-keyboard-response","105","490327","0.0-13.0-0.7","63ffb67634be3d959f3ff793","64d3ef96556dbe1f0e02b5aa","64da6455f32e927ccfba8b88","","null","","","","","","","","","","","","","null","","","fallScene","","","","","","","","","","","","false","61.979477000001815","604.4000000000001","667.6211431702998","201.78","9","44","","",""
"","","","","","html-keyboard-response","106","496532","0.0-13.0-1.7","63ffb67634be3d959f3ff793","64d3ef96556dbe1f0e02b5aa","64da6455f32e927ccfba8b88","","","","","","","","","","","","","","","","","","","","","","","","621.9900004153926","293.0000911464739","6204.800000011921","","","","","","","","","","","","",""
"","","","","","html-keyboard-response","106","496532","0.0-13.0-1.7","63ffb67634be3d959f3ff793","64d3ef96556dbe1f0e02b5aa","64da6455f32e927ccfba8b88","","","","","","","","","","","","","","","","","","reconstruct","","","","","","621.9900004153926","293.0000911464739","6204.800000011921","","","","","","","","","","44","5","625","250"
"","","","","","html-keyboard-response","107","499535","0.0-13.0-0.8","63ffb67634be3d959f3ff793","64d3ef96556dbe1f0e02b5aa","64da6455f32e927ccfba8b88","","null","","","","","","","","","","","","","null","","","fallScene","","","","","","","","","","","","false","61.99820400000009","500","453.67114317029973","210.33","5","45","","",""
"","","","","","html-keyboard-response","108","504686","0.0-13.0-1.8","63ffb67634be3d959f3ff793","64d3ef96556dbe1f0e02b5aa","64da6455f32e927ccfba8b88","","","","","","","","","","","","","","","","","","","","","","","","515.0000832658721","257.98585770348325","5149.799999952316","","","","","","","","","","","","",""
"","","","","","html-keyboard-response","108","504686","0.0-13.0-1.8","63ffb67634be3d959f3ff793","64d3ef96556dbe1f0e02b5aa","64da6455f32e927ccfba8b88","","","","","","","","","","","","","","","","","","reconstruct","","","","","","515.0000832658721","257.98585770348325","5149.799999952316","","","","","","","","","","45","4","500","350"
"","","","","","html-keyboard-response","109","507688","0.0-13.0-0.9","63ffb67634be3d959f3ff793","64d3ef96556dbe1f0e02b5aa","64da6455f32e927ccfba8b88","","null","","","","","","","","","","","","","null","","","fallScene","","","","","","","","","","","","false","61.99405599999835","500","453.67114317029973","210.33","5","46","","",""
"","","","","","html-keyboard-response","110","510583","0.0-13.0-1.9","63ffb67634be3d959f3ff793","64d3ef96556dbe1f0e02b5aa","64da6455f32e927ccfba8b88","","","","","","","","","","","","","","","","","","","","","","","","452.9800000017879","258.9999915460303","2894.399999976158","","","","","","","","","","","","",""
"","","","","","html-keyboard-response","110","510583","0.0-13.0-1.9","63ffb67634be3d959f3ff793","64d3ef96556dbe1f0e02b5aa","64da6455f32e927ccfba8b88","","","","","","","","","","","","","","","","","","reconstruct","","","","","","452.9800000017879","258.9999915460303","2894.399999976158","","","","","","","","","","46","5","625","250"
"","","","","","html-keyboard-response","111","513585","0.0-13.0-0.10","63ffb67634be3d959f3ff793","64d3ef96556dbe1f0e02b5aa","64da6455f32e927ccfba8b88","","null","","","","","","","","","","","","","null","","","fallScene","","","","","","","","","","","","true","61.99326299999974","500","479.92114317029973","330.87","6","47","","",""
"","","","","","html-keyboard-response","112","516553","0.0-13.0-1.10","63ffb67634be3d959f3ff793","64d3ef96556dbe1f0e02b5aa","64da6455f32e927ccfba8b88","","","","","","","","","","","","","","","","","","","","","","","","500","233.99","2967.600000023842","","","","","","","","","","","","",""
"","","","","","html-keyboard-response","112","516553","0.0-13.0-1.10","63ffb67634be3d959f3ff793","64d3ef96556dbe1f0e02b5aa","64da6455f32e927ccfba8b88","","","","","","","","","","","","","","","","","","reconstruct","","","","","","500","233.99","2967.600000023842","","","","","","","","","","47","4","500","350"
"","","","","","html-keyboard-response","113","519567","0.0-13.0-0.11","63ffb67634be3d959f3ff793","64d3ef96556dbe1f0e02b5aa","64da6455f32e927ccfba8b88","","null","","","","","","","","","","","","","null","","","fallScene","","","","","","","","","","","","false","61.97837899999937","500","453.67114317029973","210.33","5","48","","",""
"","","","","","html-keyboard-response","114","523902","0.0-13.0-1.11","63ffb67634be3d959f3ff793","64d3ef96556dbe1f0e02b5aa","64da6455f32e927ccfba8b88","","","","","","","","","","","","","","","","","","","","","","","","492.99158675797077","258.0113849788617","4335.300000011921","","","","","","","","","","","","",""
"","","","","","html-keyboard-response","114","523902","0.0-13.0-1.11","63ffb67634be3d959f3ff793","64d3ef96556dbe1f0e02b5aa","64da6455f32e927ccfba8b88","","","","","","","","","","","","","","","","","","reconstruct","","","","","","492.99158675797077","258.0113849788617","4335.300000011921","","","","","","","","","","48","2","375","350"
"","","","","","html-keyboard-response","115","526915","0.0-13.0-0.12","63ffb67634be3d959f3ff793","64d3ef96556dbe1f0e02b5aa","64da6455f32e927ccfba8b88","","null","","","","","","","","","","","","","null","","","fallScene","","","","","","","","","","","","true","61.9949709999992","604.4000000000001","596.8711431702998","394.5","10","49","","",""
"","","","","","html-keyboard-response","116","530486","0.0-13.0-1.12","63ffb67634be3d959f3ff793","64d3ef96556dbe1f0e02b5aa","64da6455f32e927ccfba8b88","","","","","","","","","","","","","","","","","","","","","","","","438.98587538214866","248.00100123389657","3570.400000035763","","","","","","","","","","","","",""
"","","","","","html-keyboard-response","116","530486","0.0-13.0-1.12","63ffb67634be3d959f3ff793","64d3ef96556dbe1f0e02b5aa","64da6455f32e927ccfba8b88","","","","","","","","","","","","","","","","","","reconstruct","","","","","","438.98587538214866","248.00100123389657","3570.400000035763","","","","","","","","","","49","4","500","350"
"","","","","","html-keyboard-response","117","533493","0.0-13.0-0.13","63ffb67634be3d959f3ff793","64d3ef96556dbe1f0e02b5aa","64da6455f32e927ccfba8b88","","null","","","","","","","","","","","","","null","","","fallScene","","","","","","","","","","","","true","61.9913719999987","500","510.8711431702997","369.03","8","50","","",""
"","","","","","html-keyboard-response","118","537835","0.0-13.0-1.13","63ffb67634be3d959f3ff793","64d3ef96556dbe1f0e02b5aa","64da6455f32e927ccfba8b88","","","","","","","","","","","","","","","","","","","","","","","","547.0000010100522","240.009999999949","4341.299999952316","","","","","","","","","","","","",""
"","","","","","html-keyboard-response","118","537835","0.0-13.0-1.13","63ffb67634be3d959f3ff793","64d3ef96556dbe1f0e02b5aa","64da6455f32e927ccfba8b88","","","","","","","","","","","","","","","","","","reconstruct","","","","","","547.0000010100522","240.009999999949","4341.299999952316","","","","","","","","","","50","5","625","250"
"","","","","","html-keyboard-response","119","540840","0.0-13.0-0.14","63ffb67634be3d959f3ff793","64d3ef96556dbe1f0e02b5aa","64da6455f32e927ccfba8b88","","null","","","","","","","","","","","","","null","","","fallScene","","","","","","","","","","","","true","62.007658999998235","604.4000000000001","650.0211431702996","404.58000000000004","11","51","","",""
"","","","","","html-keyboard-response","120","544722","0.0-13.0-1.14","63ffb67634be3d959f3ff793","64d3ef96556dbe1f0e02b5aa","64da6455f32e927ccfba8b88","","","","","","","","","","","","","","","","","","","","","","","","369.9999998090523","334.0099999999982","3881.399999976158","","","","","","","","","","","","",""
"","","","","","html-keyboard-response","120","544722","0.0-13.0-1.14","63ffb67634be3d959f3ff793","64d3ef96556dbe1f0e02b5aa","64da6455f32e927ccfba8b88","","","","","","","","","","","","","","","","","","reconstruct","","","","","","369.9999998090523","334.0099999999982","3881.399999976158","","","","","","","","","","51","2","375","350"
"","","","","","html-keyboard-response","121","547725","0.0-13.0-0.15","63ffb67634be3d959f3ff793","64d3ef96556dbe1f0e02b5aa","64da6455f32e927ccfba8b88","","null","","","","","","","","","","","","","null","","","fallScene","","","","","","","","","","","","true","61.97953799999761","500","553.4711431702997","282.51","7","52","","",""
"","","","","","html-keyboard-response","122","550542","0.0-13.0-1.15","63ffb67634be3d959f3ff793","64d3ef96556dbe1f0e02b5aa","64da6455f32e927ccfba8b88","","","","","","","","","","","","","","","","","","","","","","","","477.9899027473438","279.9901004770304","2817.099999964237","","","","","","","","","","","","",""
"","","","","","html-keyboard-response","122","550542","0.0-13.0-1.15","63ffb67634be3d959f3ff793","64d3ef96556dbe1f0e02b5aa","64da6455f32e927ccfba8b88","","","","","","","","","","","","","","","","","","reconstruct","","","","","","477.9899027473438","279.9901004770304","2817.099999964237","","","","","","","","","","52","6","625","350"
"","","","","","html-keyboard-response","123","553554","0.0-13.0-0.16","63ffb67634be3d959f3ff793","64d3ef96556dbe1f0e02b5aa","64da6455f32e927ccfba8b88","","null","","","","","","","","","","","","","null","","","fallScene","","","","","","","","","","","","false","61.99356800000358","500","453.67114317029973","210.33","5","53","","",""
"","","","","","html-keyboard-response","124","556708","0.0-13.0-1.16","63ffb67634be3d959f3ff793","64d3ef96556dbe1f0e02b5aa","64da6455f32e927ccfba8b88","","","","","","","","","","","","","","","","","","","","","","","","503.99","284.009999999996","3153.199999988079","","","","","","","","","","","","",""
"","","","","","html-keyboard-response","124","556708","0.0-13.0-1.16","63ffb67634be3d959f3ff793","64d3ef96556dbe1f0e02b5aa","64da6455f32e927ccfba8b88","","","","","","","","","","","","","","","","","","reconstruct","","","","","","503.99","284.009999999996","3153.199999988079","","","","","","","","","","53","6","625","350"
"","","","","","html-keyboard-response","125","559717","0.0-13.0-0.17","63ffb67634be3d959f3ff793","64d3ef96556dbe1f0e02b5aa","64da6455f32e927ccfba8b88","","null","","","","","","","","","","","","","null","","","fallScene","","","","","","","","","","","","true","61.98344199999841","604.4000000000001","596.8711431702998","394.5","10","54","","",""
"","","","","","html-keyboard-response","126","563268","0.0-13.0-1.17","63ffb67634be3d959f3ff793","64d3ef96556dbe1f0e02b5aa","64da6455f32e927ccfba8b88","","","","","","","","","","","","","","","","","","","","","","","","403.99989917967144","264.019999501622","3550.5","","","","","","","","","","","","",""
"","","","","","html-keyboard-response","126","563268","0.0-13.0-1.17","63ffb67634be3d959f3ff793","64d3ef96556dbe1f0e02b5aa","64da6455f32e927ccfba8b88","","","","","","","","","","","","","","","","","","reconstruct","","","","","","403.99989917967144","264.019999501622","3550.5","","","","","","","","","","54","3","500","250"
"","","","","","html-button-response","127","598808","0.0-14.0","63ffb67634be3d959f3ff793","64d3ef96556dbe1f0e02b5aa","64da6455f32e927ccfba8b88","","35539","","","","","","","","","","","","","0","","","","<p><span style = ""font-size:40px;"">BREAK</span></p><p>You are almost done! Click 'Next' when you are ready for the next set.</p>","","","","","","","","","","","","","","","","","","","",""
"","","","","","html-keyboard-response","128","601817","0.0-15.0-0.0","63ffb67634be3d959f3ff793","64d3ef96556dbe1f0e02b5aa","64da6455f32e927ccfba8b88","","null","","","","","","","","","","","","","null","","","fallScene","","","","","","","","","","","","true","61.98228300000017","322.3","356.42114317029973","357.87","4","55","","",""
"","","","","","html-keyboard-response","129","604512","0.0-15.0-1.0","63ffb67634be3d959f3ff793","64d3ef96556dbe1f0e02b5aa","64da6455f32e927ccfba8b88","","","","","","","","","","","","","","","","","","","","","","","","629.9999086541679","274.0141422683915","2694.800000011921","","","","","","","","","","","","",""
"","","","","","html-keyboard-response","129","604512","0.0-15.0-1.0","63ffb67634be3d959f3ff793","64d3ef96556dbe1f0e02b5aa","64da6455f32e927ccfba8b88","","","","","","","","","","","","","","","","","","reconstruct","","","","","","629.9999086541679","274.0141422683915","2694.800000011921","","","","","","","","","","55","1","375","250"
"","","","","","html-keyboard-response","130","607515","0.0-15.0-0.1","63ffb67634be3d959f3ff793","64d3ef96556dbe1f0e02b5aa","64da6455f32e927ccfba8b88","","null","","","","","","","","","","","","","null","","","fallScene","","","","","","","","","","","","false","61.98472300000244","322.3","379.3711431702997","245.25","1","56","","",""
"","","","","","html-keyboard-response","131","610592","0.0-15.0-1.1","63ffb67634be3d959f3ff793","64d3ef96556dbe1f0e02b5aa","64da6455f32e927ccfba8b88","","","","","","","","","","","","","","","","","","","","","","","","332.9800000997151","252.99995555237598","3076.699999988079","","","","","","","","","","","","",""
"","","","","","html-keyboard-response","131","610592","0.0-15.0-1.1","63ffb67634be3d959f3ff793","64d3ef96556dbe1f0e02b5aa","64da6455f32e927ccfba8b88","","","","","","","","","","","","","","","","","","reconstruct","","","","","","332.9800000997151","252.99995555237598","3076.699999988079","","","","","","","","","","56","4","500","350"
"","","","","","html-keyboard-response","132","613598","0.0-15.0-0.2","63ffb67634be3d959f3ff793","64d3ef96556dbe1f0e02b5aa","64da6455f32e927ccfba8b88","","null","","","","","","","","","","","","","null","","","fallScene","","","","","","","","","","","","true","61.9892979999996","500","479.92114317029973","330.87","6","57","","",""
"","","","","","html-keyboard-response","133","616294","0.0-15.0-1.2","63ffb67634be3d959f3ff793","64d3ef96556dbe1f0e02b5aa","64da6455f32e927ccfba8b88","","","","","","","","","","","","","","","","","","","","","","","","494.00709358319386","251.017106537725","2695.5","","","","","","","","","","","","",""
"","","","","","html-keyboard-response","133","616294","0.0-15.0-1.2","63ffb67634be3d959f3ff793","64d3ef96556dbe1f0e02b5aa","64da6455f32e927ccfba8b88","","","","","","","","","","","","","","","","","","reconstruct","","","","","","494.00709358319386","251.017106537725","2695.5","","","","","","","","","","57","2","375","350"
"","","","","","html-keyboard-response","134","619298","0.0-15.0-0.3","63ffb67634be3d959f3ff793","64d3ef96556dbe1f0e02b5aa","64da6455f32e927ccfba8b88","","null","","","","","","","","","","","","","null","","","fallScene","","","","","","","","","","","","false","62.01162399999483","322.3","296.07114317029976","371.46","3","58","","",""
"","","","","","html-keyboard-response","135","622578","0.0-15.0-1.3","63ffb67634be3d959f3ff793","64d3ef96556dbe1f0e02b5aa","64da6455f32e927ccfba8b88","","","","","","","","","","","","","","","","","","","","","","","","309.9999989898999","285.009999999949","3279.699999988079","","","","","","","","","","","","",""
"","","","","","html-keyboard-response","135","622578","0.0-15.0-1.3","63ffb67634be3d959f3ff793","64d3ef96556dbe1f0e02b5aa","64da6455f32e927ccfba8b88","","","","","","","","","","","","","","","","","","reconstruct","","","","","","309.9999989898999","285.009999999949","3279.699999988079","","","","","","","","","","58","3","500","250"
"","","","","","html-keyboard-response","136","625580","0.0-15.0-0.4","63ffb67634be3d959f3ff793","64d3ef96556dbe1f0e02b5aa","64da6455f32e927ccfba8b88","","null","","","","","","","","","","","","","null","","","fallScene","","","","","","","","","","","","true","61.984966999999834","322.3","308.07114317029976","253.89","2","59","","",""
"","","","","","html-keyboard-response","137","628108","0.0-15.0-1.4","63ffb67634be3d959f3ff793","64d3ef96556dbe1f0e02b5aa","64da6455f32e927ccfba8b88","","","","","","","","","","","","","","","","","","","","","","","","632","232.01","2527.600000023842","","","","","","","","","","","","",""
"","","","","","html-keyboard-response","137","628108","0.0-15.0-1.4","63ffb67634be3d959f3ff793","64d3ef96556dbe1f0e02b5aa","64da6455f32e927ccfba8b88","","","","","","","","","","","","","","","","","","reconstruct","","","","","","632","232.01","2527.600000023842","","","","","","","","","","59","2","375","350"
"","","","","","html-keyboard-response","138","631111","0.0-15.0-0.5","63ffb67634be3d959f3ff793","64d3ef96556dbe1f0e02b5aa","64da6455f32e927ccfba8b88","","null","","","","","","","","","","","","","null","","","fallScene","","","","","","","","","","","","true","61.99436099999864","322.3","356.42114317029973","357.87","4","60","","",""
"","","","","","html-keyboard-response","139","635568","0.0-15.0-1.5","63ffb67634be3d959f3ff793","64d3ef96556dbe1f0e02b5aa","64da6455f32e927ccfba8b88","","","","","","","","","","","","","","","","","","","","","","","","632.9999998973485","284.0099999999995","4457.100000023842","","","","","","","","","","","","",""
"","","","","","html-keyboard-response","139","635568","0.0-15.0-1.5","63ffb67634be3d959f3ff793","64d3ef96556dbe1f0e02b5aa","64da6455f32e927ccfba8b88","","","","","","","","","","","","","","","","","","reconstruct","","","","","","632.9999998973485","284.0099999999995","4457.100000023842","","","","","","","","","","60","3","500","250"
"","","","","","html-keyboard-response","140","638575","0.0-15.0-0.6","63ffb67634be3d959f3ff793","64d3ef96556dbe1f0e02b5aa","64da6455f32e927ccfba8b88","","null","","","","","","","","","","","","","null","","","fallScene","","","","","","","","","","","","true","61.99850899999682","604.4000000000001","575.4211431702997","266.76","12","61","","",""
"","","","","","html-keyboard-response","141","642246","0.0-15.0-1.6","63ffb67634be3d959f3ff793","64d3ef96556dbe1f0e02b5aa","64da6455f32e927ccfba8b88","","","","","","","","","","","","","","","","","","","","","","","","411.99999999664533","270.01","3670.099999964237","","","","","","","","","","","","",""
"","","","","","html-keyboard-response","141","642246","0.0-15.0-1.6","63ffb67634be3d959f3ff793","64d3ef96556dbe1f0e02b5aa","64da6455f32e927ccfba8b88","","","","","","","","","","","","","","","","","","reconstruct","","","","","","411.99999999664533","270.01","3670.099999964237","","","","","","","","","","61","1","375","250"
"","","","","","html-keyboard-response","142","645255","0.0-15.0-0.7","63ffb67634be3d959f3ff793","64d3ef96556dbe1f0e02b5aa","64da6455f32e927ccfba8b88","","null","","","","","","","","","","","","","null","","","fallScene","","","","","","","","","","","","false","62.00021699999982","500","553.4711431702997","282.51","7","62","","",""
"","","","","","html-keyboard-response","143","647532","0.0-15.0-1.7","63ffb67634be3d959f3ff793","64d3ef96556dbe1f0e02b5aa","64da6455f32e927ccfba8b88","","","","","","","","","","","","","","","","","","","","","","","","518.0099443292705","294.98994415873915","2276.300000011921","","","","","","","","","","","","",""
"","","","","","html-keyboard-response","143","647532","0.0-15.0-1.7","63ffb67634be3d959f3ff793","64d3ef96556dbe1f0e02b5aa","64da6455f32e927ccfba8b88","","","","","","","","","","","","","","","","","","reconstruct","","","","","","518.0099443292705","294.98994415873915","2276.300000011921","","","","","","","","","","62","4","500","350"
"","","","","","html-keyboard-response","144","650535","0.0-15.0-0.8","63ffb67634be3d959f3ff793","64d3ef96556dbe1f0e02b5aa","64da6455f32e927ccfba8b88","","null","","","","","","","","","","","","","null","","","fallScene","","","","","","","","","","","","true","62.00601199999813","322.3","296.07114317029976","371.46","3","63","","",""
"","","","","","html-keyboard-response","145","654570","0.0-15.0-1.8","63ffb67634be3d959f3ff793","64d3ef96556dbe1f0e02b5aa","64da6455f32e927ccfba8b88","","","","","","","","","","","","","","","","","","","","","","","","723.01","277","4034.7999999523163","","","","","","","","","","","","",""
"","","","","","html-keyboard-response","145","654570","0.0-15.0-1.8","63ffb67634be3d959f3ff793","64d3ef96556dbe1f0e02b5aa","64da6455f32e927ccfba8b88","","","","","","","","","","","","","","","","","","reconstruct","","","","","","723.01","277","4034.7999999523163","","","","","","","","","","63","5","625","250"
"","","","","","html-keyboard-response","146","657574","0.0-15.0-0.9","63ffb67634be3d959f3ff793","64d3ef96556dbe1f0e02b5aa","64da6455f32e927ccfba8b88","","null","","","","","","","","","","","","","null","","","fallScene","","","","","","","","","","","","false","62.012539000002775","322.3","308.07114317029976","253.89","2","64","","",""
"","","","","","html-keyboard-response","147","660084","0.0-15.0-1.9","63ffb67634be3d959f3ff793","64d3ef96556dbe1f0e02b5aa","64da6455f32e927ccfba8b88","","","","","","","","","","","","","","","","","","","","","","","","348.9858574115836","268.00002373926833","2510.100000023842","","","","","","","","","","","","",""
"","","","","","html-keyboard-response","147","660084","0.0-15.0-1.9","63ffb67634be3d959f3ff793","64d3ef96556dbe1f0e02b5aa","64da6455f32e927ccfba8b88","","","","","","","","","","","","","","","","","","reconstruct","","","","","","348.9858574115836","268.00002373926833","2510.100000023842","","","","","","","","","","64","1","375","250"
"","","","","","html-keyboard-response","148","663099","0.0-15.0-0.10","63ffb67634be3d959f3ff793","64d3ef96556dbe1f0e02b5aa","64da6455f32e927ccfba8b88","","null","","","","","","","","","","","","","null","","","fallScene","","","","","","","","","","","","false","61.99924100000318","322.3","356.42114317029973","357.87","4","65","","",""
"","","","","","html-keyboard-response","149","667012","0.0-15.0-1.10","63ffb67634be3d959f3ff793","64d3ef96556dbe1f0e02b5aa","64da6455f32e927ccfba8b88","","","","","","","","","","","","","","","","","","","","","","","","356.01","288.9999999955576","3912.600000023842","","","","","","","","","","","","",""
"","","","","","html-keyboard-response","149","667012","0.0-15.0-1.10","63ffb67634be3d959f3ff793","64d3ef96556dbe1f0e02b5aa","64da6455f32e927ccfba8b88","","","","","","","","","","","","","","","","","","reconstruct","","","","","","356.01","288.9999999955576","3912.600000023842","","","","","","","","","","65","4","500","350"
"","","","","","html-keyboard-response","150","670014","0.0-15.0-0.11","63ffb67634be3d959f3ff793","64d3ef96556dbe1f0e02b5aa","64da6455f32e927ccfba8b88","","null","","","","","","","","","","","","","null","","","fallScene","","","","","","","","","","","","false","62.00686599999608","604.4000000000001","667.6211431702998","201.78","9","66","","",""
"","","","","","html-keyboard-response","151","673089","0.0-15.0-1.11","63ffb67634be3d959f3ff793","64d3ef96556dbe1f0e02b5aa","64da6455f32e927ccfba8b88","","","","","","","","","","","","","","","","","","","","","","","","615.9999000049994","324.9900004999625","3075.300000011921","","","","","","","","","","","","",""
"","","","","","html-keyboard-response","151","673090","0.0-15.0-1.11","63ffb67634be3d959f3ff793","64d3ef96556dbe1f0e02b5aa","64da6455f32e927ccfba8b88","","","","","","","","","","","","","","","","","","reconstruct","","","","","","615.9999000049994","324.9900004999625","3075.300000011921","","","","","","","","","","66","2","375","350"
"","","","","","html-keyboard-response","152","676095","0.0-15.0-0.12","63ffb67634be3d959f3ff793","64d3ef96556dbe1f0e02b5aa","64da6455f32e927ccfba8b88","","null","","","","","","","","","","","","","null","","","fallScene","","","","","","","","","","","","true","61.97898899999994","322.3","356.42114317029973","357.87","4","67","","",""
"","","","","","html-keyboard-response","153","679311","0.0-15.0-1.12","63ffb67634be3d959f3ff793","64d3ef96556dbe1f0e02b5aa","64da6455f32e927ccfba8b88","","","","","","","","","","","","","","","","","","","","","","","","639.009999999789","318.9999979456259","3216.699999988079","","","","","","","","","","","","",""
"","","","","","html-keyboard-response","153","679311","0.0-15.0-1.12","63ffb67634be3d959f3ff793","64d3ef96556dbe1f0e02b5aa","64da6455f32e927ccfba8b88","","","","","","","","","","","","","","","","","","reconstruct","","","","","","639.009999999789","318.9999979456259","3216.699999988079","","","","","","","","","","67","6","625","350"
"","","","","","html-keyboard-response","154","682326","0.0-15.0-0.13","63ffb67634be3d959f3ff793","64d3ef96556dbe1f0e02b5aa","64da6455f32e927ccfba8b88","","null","","","","","","","","","","","","","null","","","fallScene","","","","","","","","","","","","false","61.9872850000034","604.4000000000001","650.0211431702996","404.58000000000004","11","68","","",""
"","","","","","html-keyboard-response","155","687000","0.0-15.0-1.13","63ffb67634be3d959f3ff793","64d3ef96556dbe1f0e02b5aa","64da6455f32e927ccfba8b88","","","","","","","","","","","","","","","","","","","","","","","","655.0041347324172","350.00910516270244","4672.900000035763","","","","","","","","","","","","",""
"","","","","","html-keyboard-response","155","687000","0.0-15.0-1.13","63ffb67634be3d959f3ff793","64d3ef96556dbe1f0e02b5aa","64da6455f32e927ccfba8b88","","","","","","","","","","","","","","","","","","reconstruct","","","","","","655.0041347324172","350.00910516270244","4672.900000035763","","","","","","","","","","68","5","625","250"
"","","","","","html-keyboard-response","156","690006","0.0-15.0-0.14","63ffb67634be3d959f3ff793","64d3ef96556dbe1f0e02b5aa","64da6455f32e927ccfba8b88","","null","","","","","","","","","","","","","null","","","fallScene","","","","","","","","","","","","true","61.98478400000535","322.3","356.42114317029973","357.87","4","69","","",""
"","","","","","html-keyboard-response","157","692939","0.0-15.0-1.14","63ffb67634be3d959f3ff793","64d3ef96556dbe1f0e02b5aa","64da6455f32e927ccfba8b88","","","","","","","","","","","","","","","","","","","","","","","","674.9929645540207","333.00710651108994","2932.600000023842","","","","","","","","","","","","",""
"","","","","","html-keyboard-response","157","692939","0.0-15.0-1.14","63ffb67634be3d959f3ff793","64d3ef96556dbe1f0e02b5aa","64da6455f32e927ccfba8b88","","","","","","","","","","","","","","","","","","reconstruct","","","","","","674.9929645540207","333.00710651108994","2932.600000023842","","","","","","","","","","69","2","375","350"
"","","","","","html-keyboard-response","158","695951","0.0-15.0-0.15","63ffb67634be3d959f3ff793","64d3ef96556dbe1f0e02b5aa","64da6455f32e927ccfba8b88","","null","","","","","","","","","","","","","null","","","fallScene","","","","","","","","","","","","false","62.001009999994885","322.3","308.07114317029976","253.89","2","70","","",""
"","","","","","html-keyboard-response","159","699456","0.0-15.0-1.15","63ffb67634be3d959f3ff793","64d3ef96556dbe1f0e02b5aa","64da6455f32e927ccfba8b88","","","","","","","","","","","","","","","","","","","","","","","","344.00000000007196","266.99","3505.100000023842","","","","","","","","","","","","",""
"","","","","","html-keyboard-response","159","699456","0.0-15.0-1.15","63ffb67634be3d959f3ff793","64d3ef96556dbe1f0e02b5aa","64da6455f32e927ccfba8b88","","","","","","","","","","","","","","","","","","reconstruct","","","","","","344.00000000007196","266.99","3505.100000023842","","","","","","","","","","70","4","500","350"
"","","","","","html-keyboard-response","160","702469","0.0-15.0-0.16","63ffb67634be3d959f3ff793","64d3ef96556dbe1f0e02b5aa","64da6455f32e927ccfba8b88","","null","","","","","","","","","","","","","null","","","fallScene","","","","","","","","","","","","false","61.9932020000004","604.4000000000001","650.0211431702996","404.58000000000004","11","71","","",""
"","","","","","html-keyboard-response","161","704680","0.0-15.0-1.16","63ffb67634be3d959f3ff793","64d3ef96556dbe1f0e02b5aa","64da6455f32e927ccfba8b88","","","","","","","","","","","","","","","","","","","","","","","","626.0100000537522","311.0099999999999","2210.2000000476837","","","","","","","","","","","","",""
"","","","","","html-keyboard-response","161","704680","0.0-15.0-1.16","63ffb67634be3d959f3ff793","64d3ef96556dbe1f0e02b5aa","64da6455f32e927ccfba8b88","","","","","","","","","","","","","","","","","","reconstruct","","","","","","626.0100000537522","311.0099999999999","2210.2000000476837","","","","","","","","","","71","6","625","350"
"","","","","","html-keyboard-response","162","707681","0.0-15.0-0.17","63ffb67634be3d959f3ff793","64d3ef96556dbe1f0e02b5aa","64da6455f32e927ccfba8b88","","null","","","","","","","","","","","","","null","","","fallScene","","","","","","","","","","","","false","61.98515000000142","322.3","296.07114317029976","371.46","3","72","","",""
"","","","","","html-keyboard-response","163","710933","0.0-15.0-1.17","63ffb67634be3d959f3ff793","64d3ef96556dbe1f0e02b5aa","64da6455f32e927ccfba8b88","","","","","","","","","","","","","","","","","","","","","","","","300.9899014295602","315.9901004890263","3251.100000023842","","","","","","","","","","","","",""
"","","","","","html-keyboard-response","163","710933","0.0-15.0-1.17","63ffb67634be3d959f3ff793","64d3ef96556dbe1f0e02b5aa","64da6455f32e927ccfba8b88","","","","","","","","","","","","","","","","","","reconstruct","","","","","","300.9899014295602","315.9901004890263","3251.100000023842","","","","","","","","","","72","2","375","350"
"","","","","","survey-text","164","738579","0.0-16.0","63ffb67634be3d959f3ff793","64d3ef96556dbe1f0e02b5aa","64da6455f32e927ccfba8b88","","27642","","","","","","","","","","","","","{""Summary"":""Watch how a ball deflects behind a screen, then place the triangle where I believe it is located. ""}","","","","","","","","","","","","","","","","","","","","","","","",""
"","","","","","survey-text","165","755026","0.0-17.0","63ffb67634be3d959f3ff793","64d3ef96556dbe1f0e02b5aa","64da6455f32e927ccfba8b88","","16446","","","","","","","","","","","","","{""Comments"":""No additional suggestions or comments, except I found this rather fun to do! ""}","","","","","","","","","","","","","","","","","","","","","","","",""
