"success","timeout","failed_images","failed_audio","failed_video","trial_type","trial_index","time_elapsed","internal_node_id","subject_id","study_id","session_id","view_history","rt","width","height","webaudio","browser","browser_version","mobile","os","fullscreen","vsync_rate","webcam","microphone","url","response","triangle_prac_final_x","triangle_prac_final_y","trial_name","stimulus","ball_X_prac_occ","ball_Y_prac_occ","obstacle_X_prac_occ","obstacle_Y_prac_occ","triangle_final_x","triangle_final_y","response_time","obstacle_X_prac_occ_init","obstacle_Y_prac_occ_init","question_order","flipped","runnerFPS","ball_X","obstacle_groundTruth_x","obstacle_groundTruth_y","stimulus_idx","currentTrial","obstacle_idx","obstacle_initial_x","obstacle_initial_y"
"true","false","[]","[]","[]","preload","0","51","0.0-0.0","64875be76d98311f043edb55","64d3ef96556dbe1f0e02b5aa","64db8142c61ffebf02ca0e86","","","","","","","","","","","","","","","","","","","","","","","","","","","","","","","","","","","","","","",""
"","","","","","instructions","1","1008","0.0-1.0","64875be76d98311f043edb55","64d3ef96556dbe1f0e02b5aa","64db8142c61ffebf02ca0e86","[{""page_index"":0,""viewing_time"":957}]","958","","","","","","","","","","","","","","","","","","","","","","","","","","","","","","","","","","","","",""
"","","","","","browser-check","2","2007","0.0-2.0","64875be76d98311f043edb55","64d3ef96556dbe1f0e02b5aa","64db8142c61ffebf02ca0e86","","","1329","639","true","edge-chromium","115.0.1901","false","Windows 10","true","60.52","true","true","","","","","","","","","","","","","","","","","","","","","","","","","",""
"","","","","","external-html","3","7380","0.0-3.0","64875be76d98311f043edb55","64d3ef96556dbe1f0e02b5aa","64db8142c61ffebf02ca0e86","","5336","","","","","","","","","","","","consent.html","","","","","","","","","","","","","","","","","","","","","","","","",""
"true","","","","","fullscreen","4","9865","0.0-4.0","64875be76d98311f043edb55","64d3ef96556dbe1f0e02b5aa","64db8142c61ffebf02ca0e86","","1979","","","","","","","","","","","","","","","","","","","","","","","","","","","","","","","","","","","","",""
"","","","","","survey-text","5","15250","0.0-5.0","64875be76d98311f043edb55","64d3ef96556dbe1f0e02b5aa","64db8142c61ffebf02ca0e86","","5379","","","","","","","","","","","","","{""prolificID"":""64875be76d98311f043edb55""}","","","","","","","","","","","","","","","","","","","","","","","",""
"","","","","","browser-check","6","16242","0.0-6.0","64875be76d98311f043edb55","64d3ef96556dbe1f0e02b5aa","64db8142c61ffebf02ca0e86","","","1366","768","true","edge-chromium","115.0.1901","false","Windows 10","true","61.13","true","true","","","","","","","","","","","","","","","","","","","","","","","","","",""
"","","","","","instructions","7","86883","0.0-7.0-0.0-0.0","64875be76d98311f043edb55","64d3ef96556dbe1f0e02b5aa","64db8142c61ffebf02ca0e86","[{""page_index"":0,""viewing_time"":21579},{""page_index"":1,""viewing_time"":14453},{""page_index"":2,""viewing_time"":20313},{""page_index"":3,""viewing_time"":14293}]","70639","","","","","","","","","","","","","","","","","","","","","","","","","","","","","","","","","","","","",""
"","","","","","html-keyboard-response","8","103483","0.0-7.0-0.0-1.0","64875be76d98311f043edb55","64d3ef96556dbe1f0e02b5aa","64db8142c61ffebf02ca0e86","","","","","","","","","","","","","","","","529.9928239047944","441.00696445673395","","","","","","","","","","","","","","","","","","","","","",""
"","","","","","html-keyboard-response","8","103484","0.0-7.0-0.0-1.0","64875be76d98311f043edb55","64d3ef96556dbe1f0e02b5aa","64db8142c61ffebf02ca0e86","","","","","","","","","","","","","","","","","","practiceTrial_move","","","","","","","","","","","","","","","","","","","","",""
"","","","","","html-button-response","9","106159","0.0-7.0-0.0-2.0","64875be76d98311f043edb55","64d3ef96556dbe1f0e02b5aa","64db8142c61ffebf02ca0e86","","2670","","","","","","","","","","","","","0","","","","<p>To help you get more comfortable with the task, let's begin with a practice trial first!</p><p>As described previously, you will first see a video of a ball falling, some of it behind a gray screen.</p><p>After the video, you will drag a triangle to the spot you think the ball hit the triangle behind the screen.</p><p>Click 'Next' to start your practice trial.</p>","","","","","","","","","","","","","","","","","","","",""
"","","","","","html-keyboard-response","10","109182","0.0-7.0-0.0-3.0","64875be76d98311f043edb55","64d3ef96556dbe1f0e02b5aa","64db8142c61ffebf02ca0e86","","null","","","","","","","","","","","","","null","","","fallScene_practiceTrial_withOccluder","","400","50","420","415","","","","","","","","","","","","","","","",""
"","","","","","html-keyboard-response","11","113832","0.0-7.0-0.0-4.0","64875be76d98311f043edb55","64d3ef96556dbe1f0e02b5aa","64db8142c61ffebf02ca0e86","","","","","","","","","","","","","","","","","","","","","","","","372.9945190115934","316.0083641357047","4648.5","","","","","","","","","","","","",""
"","","","","","html-keyboard-response","11","113832","0.0-7.0-0.0-4.0","64875be76d98311f043edb55","64d3ef96556dbe1f0e02b5aa","64db8142c61ffebf02ca0e86","","","","","","","","","","","","","","","","","","reconstruct_practiceTrial_withOccluder","","","","","","372.9945190115934","316.0083641357047","4648.5","500","300","","","","","","","","","","",""
"","","","","","html-button-response","12","120547","0.0-7.0-0.0-5.0","64875be76d98311f043edb55","64d3ef96556dbe1f0e02b5aa","64db8142c61ffebf02ca0e86","","6710","","","","","","","","","","","","","1","","","","<p>Ok! We're almost ready to get started.</p><p>We just have a <b>brief quiz</b>, to make sure you understood the task.</p><p>If you need to review the instructions, click 'Previous'.</p><p>It's important to understand the task to do the study, so you have to pass the quiz to move to the study.</p>","","","","","","","","","","","","","","","","","","","",""
"","","","","","survey-multi-choice","13","132615","0.0-7.0-1.0-0.0","64875be76d98311f043edb55","64d3ef96556dbe1f0e02b5aa","64db8142c61ffebf02ca0e86","","12064","","","","","","","","","","","","","{""generalProcedure"":""Watch a video of a ball falling, some of it behind a gray screen. After each video, drag a triangle to where I think the ball hit the triangle behind the screen.""}","","","","","","","","","","","","","","[0]","","","","","","","","","",""
"","","","","","survey-multi-choice","14","138080","0.0-7.0-1.0-1.0","64875be76d98311f043edb55","64d3ef96556dbe1f0e02b5aa","64db8142c61ffebf02ca0e86","","5458","","","","","","","","","","","","","{""checkBallHitObstacle"":""Yes.""}","","","","","","","","","","","","","","[0]","","","","","","","","","",""
"","","","","","survey-multi-choice","15","142810","0.0-7.0-1.0-2.0","64875be76d98311f043edb55","64d3ef96556dbe1f0e02b5aa","64db8142c61ffebf02ca0e86","","4722","","","","","","","","","","","","","{""checkTriangleVisibility"":""No, the triangle is hidden behind the gray screen.""}","","","","","","","","","","","","","","[0]","","","","","","","","","",""
"","","","","","instructions","16","148258","0.0-8.0","64875be76d98311f043edb55","64d3ef96556dbe1f0e02b5aa","64db8142c61ffebf02ca0e86","[{""page_index"":0,""viewing_time"":5440}]","5440","","","","","","","","","","","","","","","","","","","","","","","","","","","","","","","","","","","","",""
"","","","","","html-keyboard-response","17","151270","0.0-9.0-0.0","64875be76d98311f043edb55","64d3ef96556dbe1f0e02b5aa","64db8142c61ffebf02ca0e86","","null","","","","","","","","","","","","","null","","","fallScene","","","","","","","","","","","","false","60.02034000000043","500","453.67114317029973","210.33","5","1","","",""
"","","","","","html-keyboard-response","18","154596","0.0-9.0-1.0","64875be76d98311f043edb55","64d3ef96556dbe1f0e02b5aa","64db8142c61ffebf02ca0e86","","","","","","","","","","","","","","","","","","","","","","","","577.9900003008619","323.999922429734","3325.100000023842","","","","","","","","","","","","",""
"","","","","","html-keyboard-response","18","154597","0.0-9.0-1.0","64875be76d98311f043edb55","64d3ef96556dbe1f0e02b5aa","64db8142c61ffebf02ca0e86","","","","","","","","","","","","","","","","","","reconstruct","","","","","","577.9900003008619","323.999922429734","3325.100000023842","","","","","","","","","","1","1","375","250"
"","","","","","html-keyboard-response","19","157604","0.0-9.0-0.1","64875be76d98311f043edb55","64d3ef96556dbe1f0e02b5aa","64db8142c61ffebf02ca0e86","","null","","","","","","","","","","","","","null","","","fallScene","","","","","","","","","","","","false","60.003239999998485","500","453.67114317029973","210.33","5","2","","",""
"","","","","","html-keyboard-response","20","160644","0.0-9.0-1.1","64875be76d98311f043edb55","64d3ef96556dbe1f0e02b5aa","64db8142c61ffebf02ca0e86","","","","","","","","","","","","","","","","","","","","","","","","496.9955456900205","322.9910468372847","3039.100000023842","","","","","","","","","","","","",""
"","","","","","html-keyboard-response","20","160644","0.0-9.0-1.1","64875be76d98311f043edb55","64d3ef96556dbe1f0e02b5aa","64db8142c61ffebf02ca0e86","","","","","","","","","","","","","","","","","","reconstruct","","","","","","496.9955456900205","322.9910468372847","3039.100000023842","","","","","","","","","","2","3","500","250"
"","","","","","html-keyboard-response","21","163649","0.0-9.0-0.2","64875be76d98311f043edb55","64d3ef96556dbe1f0e02b5aa","64db8142c61ffebf02ca0e86","","null","","","","","","","","","","","","","null","","","fallScene","","","","","","","","","","","","true","60.00228000000003","500","479.92114317029973","330.87","6","3","","",""
"","","","","","html-keyboard-response","22","167130","0.0-9.0-1.2","64875be76d98311f043edb55","64d3ef96556dbe1f0e02b5aa","64db8142c61ffebf02ca0e86","","","","","","","","","","","","","","","","","","","","","","","","442.009999999951","283.00000098996975","3479.7000000476837","","","","","","","","","","","","",""
"","","","","","html-keyboard-response","22","167130","0.0-9.0-1.2","64875be76d98311f043edb55","64d3ef96556dbe1f0e02b5aa","64db8142c61ffebf02ca0e86","","","","","","","","","","","","","","","","","","reconstruct","","","","","","442.009999999951","283.00000098996975","3479.7000000476837","","","","","","","","","","3","4","500","350"
"","","","","","html-keyboard-response","23","170137","0.0-9.0-0.3","64875be76d98311f043edb55","64d3ef96556dbe1f0e02b5aa","64db8142c61ffebf02ca0e86","","null","","","","","","","","","","","","","null","","","fallScene","","","","","","","","","","","","true","61.99417800000059","604.4000000000001","650.0211431702996","404.58000000000004","11","4","","",""
"","","","","","html-keyboard-response","24","177745","0.0-9.0-1.3","64875be76d98311f043edb55","64d3ef96556dbe1f0e02b5aa","64db8142c61ffebf02ca0e86","","","","","","","","","","","","","","","","","","","","","","","","405.00999949146916","319.00010084819627","7607.100000023842","","","","","","","","","","","","",""
"","","","","","html-keyboard-response","24","177745","0.0-9.0-1.3","64875be76d98311f043edb55","64d3ef96556dbe1f0e02b5aa","64db8142c61ffebf02ca0e86","","","","","","","","","","","","","","","","","","reconstruct","","","","","","405.00999949146916","319.00010084819627","7607.100000023842","","","","","","","","","","4","2","375","350"
"","","","","","html-keyboard-response","25","180751","0.0-9.0-0.4","64875be76d98311f043edb55","64d3ef96556dbe1f0e02b5aa","64db8142c61ffebf02ca0e86","","null","","","","","","","","","","","","","null","","","fallScene","","","","","","","","","","","","false","60.00666000000027","604.4000000000001","575.4211431702997","266.76","12","5","","",""
"","","","","","html-keyboard-response","26","183902","0.0-9.0-1.4","64875be76d98311f043edb55","64d3ef96556dbe1f0e02b5aa","64db8142c61ffebf02ca0e86","","","","","","","","","","","","","","","","","","","","","","","","611.9929300735778","310.9929277909827","3149.9000000953674","","","","","","","","","","","","",""
"","","","","","html-keyboard-response","26","183902","0.0-9.0-1.4","64875be76d98311f043edb55","64d3ef96556dbe1f0e02b5aa","64db8142c61ffebf02ca0e86","","","","","","","","","","","","","","","","","","reconstruct","","","","","","611.9929300735778","310.9929277909827","3149.9000000953674","","","","","","","","","","5","4","500","350"
"","","","","","html-keyboard-response","27","186935","0.0-9.0-0.5","64875be76d98311f043edb55","64d3ef96556dbe1f0e02b5aa","64db8142c61ffebf02ca0e86","","null","","","","","","","","","","","","","null","","","fallScene","","","","","","","","","","","","false","62.007415000000854","322.3","379.3711431702997","245.25","1","6","","",""
"","","","","","html-keyboard-response","28","190257","0.0-9.0-1.5","64875be76d98311f043edb55","64d3ef96556dbe1f0e02b5aa","64db8142c61ffebf02ca0e86","","","","","","","","","","","","","","","","","","","","","","","","343.0099998593377","307.9999469601455","3321.7000000476837","","","","","","","","","","","","",""
"","","","","","html-keyboard-response","28","190258","0.0-9.0-1.5","64875be76d98311f043edb55","64d3ef96556dbe1f0e02b5aa","64db8142c61ffebf02ca0e86","","","","","","","","","","","","","","","","","","reconstruct","","","","","","343.0099998593377","307.9999469601455","3321.7000000476837","","","","","","","","","","6","1","375","250"
"","","","","","html-keyboard-response","29","193262","0.0-9.0-0.6","64875be76d98311f043edb55","64d3ef96556dbe1f0e02b5aa","64db8142c61ffebf02ca0e86","","null","","","","","","","","","","","","","null","","","fallScene","","","","","","","","","","","","true","60.019860000000335","322.3","296.07114317029976","371.46","3","7","","",""
"","","","","","html-keyboard-response","30","197232","0.0-9.0-1.6","64875be76d98311f043edb55","64d3ef96556dbe1f0e02b5aa","64db8142c61ffebf02ca0e86","","","","","","","","","","","","","","","","","","","","","","","","638.9900004999621","313.0000999949553","3968.9000000953674","","","","","","","","","","","","",""
"","","","","","html-keyboard-response","30","197232","0.0-9.0-1.6","64875be76d98311f043edb55","64d3ef96556dbe1f0e02b5aa","64db8142c61ffebf02ca0e86","","","","","","","","","","","","","","","","","","reconstruct","","","","","","638.9900004999621","313.0000999949553","3968.9000000953674","","","","","","","","","","7","4","500","350"
"","","","","","html-keyboard-response","31","200252","0.0-9.0-0.7","64875be76d98311f043edb55","64d3ef96556dbe1f0e02b5aa","64db8142c61ffebf02ca0e86","","null","","","","","","","","","","","","","null","","","fallScene","","","","","","","","","","","","false","62.00052200000011","604.4000000000001","667.6211431702998","201.78","9","8","","",""
"","","","","","html-keyboard-response","32","202994","0.0-9.0-1.7","64875be76d98311f043edb55","64d3ef96556dbe1f0e02b5aa","64db8142c61ffebf02ca0e86","","","","","","","","","","","","","","","","","","","","","","","","619","309.01","2741.7999999523163","","","","","","","","","","","","",""
"","","","","","html-keyboard-response","32","202995","0.0-9.0-1.7","64875be76d98311f043edb55","64d3ef96556dbe1f0e02b5aa","64db8142c61ffebf02ca0e86","","","","","","","","","","","","","","","","","","reconstruct","","","","","","619","309.01","2741.7999999523163","","","","","","","","","","8","4","500","350"
"","","","","","html-keyboard-response","33","205999","0.0-9.0-0.8","64875be76d98311f043edb55","64d3ef96556dbe1f0e02b5aa","64db8142c61ffebf02ca0e86","","null","","","","","","","","","","","","","null","","","fallScene","","","","","","","","","","","","true","60.003119999999754","322.3","296.07114317029976","371.46","3","9","","",""
"","","","","","html-keyboard-response","34","209060","0.0-9.0-1.8","64875be76d98311f043edb55","64d3ef96556dbe1f0e02b5aa","64db8142c61ffebf02ca0e86","","","","","","","","","","","","","","","","","","","","","","","","664.9999999236009","298.0099999999997","3060.4000000953674","","","","","","","","","","","","",""
"","","","","","html-keyboard-response","34","209060","0.0-9.0-1.8","64875be76d98311f043edb55","64d3ef96556dbe1f0e02b5aa","64db8142c61ffebf02ca0e86","","","","","","","","","","","","","","","","","","reconstruct","","","","","","664.9999999236009","298.0099999999997","3060.4000000953674","","","","","","","","","","9","2","375","350"
"","","","","","html-keyboard-response","35","212080","0.0-9.0-0.9","64875be76d98311f043edb55","64d3ef96556dbe1f0e02b5aa","64db8142c61ffebf02ca0e86","","null","","","","","","","","","","","","","null","","","fallScene","","","","","","","","","","","","false","60.02220000000146","604.4000000000001","667.6211431702998","201.78","9","10","","",""
"","","","","","html-keyboard-response","36","214932","0.0-9.0-1.9","64875be76d98311f043edb55","64d3ef96556dbe1f0e02b5aa","64db8142c61ffebf02ca0e86","","","","","","","","","","","","","","","","","","","","","","","","591.0069496043303","278.99280952020706","2852.2000000476837","","","","","","","","","","","","",""
"","","","","","html-keyboard-response","36","214932","0.0-9.0-1.9","64875be76d98311f043edb55","64d3ef96556dbe1f0e02b5aa","64db8142c61ffebf02ca0e86","","","","","","","","","","","","","","","","","","reconstruct","","","","","","591.0069496043303","278.99280952020706","2852.2000000476837","","","","","","","","","","10","5","625","250"
"","","","","","html-keyboard-response","37","217952","0.0-9.0-0.10","64875be76d98311f043edb55","64d3ef96556dbe1f0e02b5aa","64db8142c61ffebf02ca0e86","","null","","","","","","","","","","","","","null","","","fallScene","","","","","","","","","","","","false","62.01912700000146","500","453.67114317029973","210.33","5","11","","",""
"","","","","","html-keyboard-response","38","220977","0.0-9.0-1.10","64875be76d98311f043edb55","64d3ef96556dbe1f0e02b5aa","64db8142c61ffebf02ca0e86","","","","","","","","","","","","","","","","","","","","","","","","520.0062213901859","291.9921709321018","3024.1999999284744","","","","","","","","","","","","",""
"","","","","","html-keyboard-response","38","220977","0.0-9.0-1.10","64875be76d98311f043edb55","64d3ef96556dbe1f0e02b5aa","64db8142c61ffebf02ca0e86","","","","","","","","","","","","","","","","","","reconstruct","","","","","","520.0062213901859","291.9921709321018","3024.1999999284744","","","","","","","","","","11","4","500","350"
"","","","","","html-keyboard-response","39","224013","0.0-9.0-0.11","64875be76d98311f043edb55","64d3ef96556dbe1f0e02b5aa","64db8142c61ffebf02ca0e86","","null","","","","","","","","","","","","","null","","","fallScene","","","","","","","","","","","","false","60.03527999999933","500","479.92114317029973","330.87","6","12","","",""
"","","","","","html-keyboard-response","40","228109","0.0-9.0-1.11","64875be76d98311f043edb55","64d3ef96556dbe1f0e02b5aa","64db8142c61ffebf02ca0e86","","","","","","","","","","","","","","","","","","","","","","","","528.9999591803777","292.99000008331245","4095.399999976158","","","","","","","","","","","","",""
"","","","","","html-keyboard-response","40","228109","0.0-9.0-1.11","64875be76d98311f043edb55","64d3ef96556dbe1f0e02b5aa","64db8142c61ffebf02ca0e86","","","","","","","","","","","","","","","","","","reconstruct","","","","","","528.9999591803777","292.99000008331245","4095.399999976158","","","","","","","","","","12","2","375","350"
"","","","","","html-keyboard-response","41","231130","0.0-9.0-0.12","64875be76d98311f043edb55","64d3ef96556dbe1f0e02b5aa","64db8142c61ffebf02ca0e86","","null","","","","","","","","","","","","","null","","","fallScene","","","","","","","","","","","","true","60.00179999999993","322.3","308.07114317029976","253.89","2","13","","",""
"","","","","","html-keyboard-response","42","235885","0.0-9.0-1.12","64875be76d98311f043edb55","64d3ef96556dbe1f0e02b5aa","64db8142c61ffebf02ca0e86","","","","","","","","","","","","","","","","","","","","","","","","624.9999703826353","274.00999995614046","4755.300000071526","","","","","","","","","","","","",""
"","","","","","html-keyboard-response","42","235886","0.0-9.0-1.12","64875be76d98311f043edb55","64d3ef96556dbe1f0e02b5aa","64db8142c61ffebf02ca0e86","","","","","","","","","","","","","","","","","","reconstruct","","","","","","624.9999703826353","274.00999995614046","4755.300000071526","","","","","","","","","","13","2","375","350"
"","","","","","html-keyboard-response","43","238922","0.0-9.0-0.13","64875be76d98311f043edb55","64d3ef96556dbe1f0e02b5aa","64db8142c61ffebf02ca0e86","","null","","","","","","","","","","","","","null","","","fallScene","","","","","","","","","","","","true","60.003000000001045","604.4000000000001","650.0211431702996","404.58000000000004","11","14","","",""
"","","","","","html-keyboard-response","44","245230","0.0-9.0-1.13","64875be76d98311f043edb55","64d3ef96556dbe1f0e02b5aa","64db8142c61ffebf02ca0e86","","","","","","","","","","","","","","","","","","","","","","","","419.9999995973697","360.99978884004423","6311.700000047684","","","","","","","","","","","","",""
"","","","","","html-keyboard-response","44","245230","0.0-9.0-1.13","64875be76d98311f043edb55","64d3ef96556dbe1f0e02b5aa","64db8142c61ffebf02ca0e86","","","","","","","","","","","","","","","","","","reconstruct","","","","","","419.9999995973697","360.99978884004423","6311.700000047684","","","","","","","","","","14","5","625","250"
"","","","","","html-keyboard-response","45","248237","0.0-9.0-0.14","64875be76d98311f043edb55","64d3ef96556dbe1f0e02b5aa","64db8142c61ffebf02ca0e86","","null","","","","","","","","","","","","","null","","","fallScene","","","","","","","","","","","","true","60.00779999999853","322.3","356.42114317029973","357.87","4","15","","",""
"","","","","","html-keyboard-response","46","252240","0.0-9.0-1.14","64875be76d98311f043edb55","64d3ef96556dbe1f0e02b5aa","64db8142c61ffebf02ca0e86","","","","","","","","","","","","","","","","","","","","","","","","643.9910723145016","306.9954948438827","4002","","","","","","","","","","","","",""
"","","","","","html-keyboard-response","46","252240","0.0-9.0-1.14","64875be76d98311f043edb55","64d3ef96556dbe1f0e02b5aa","64db8142c61ffebf02ca0e86","","","","","","","","","","","","","","","","","","reconstruct","","","","","","643.9910723145016","306.9954948438827","4002","","","","","","","","","","15","5","625","250"
"","","","","","html-keyboard-response","47","255250","0.0-9.0-0.15","64875be76d98311f043edb55","64d3ef96556dbe1f0e02b5aa","64db8142c61ffebf02ca0e86","","null","","","","","","","","","","","","","null","","","fallScene","","","","","","","","","","","","true","60.001440000000294","500","479.92114317029973","330.87","6","16","","",""
"","","","","","html-keyboard-response","48","259278","0.0-9.0-1.15","64875be76d98311f043edb55","64d3ef96556dbe1f0e02b5aa","64db8142c61ffebf02ca0e86","","","","","","","","","","","","","","","","","","","","","","","","498.99985813339237","314.9900010063574","4027","","","","","","","","","","","","",""
"","","","","","html-keyboard-response","48","259278","0.0-9.0-1.15","64875be76d98311f043edb55","64d3ef96556dbe1f0e02b5aa","64db8142c61ffebf02ca0e86","","","","","","","","","","","","","","","","","","reconstruct","","","","","","498.99985813339237","314.9900010063574","4027","","","","","","","","","","16","3","500","250"
"","","","","","html-keyboard-response","49","262284","0.0-9.0-0.16","64875be76d98311f043edb55","64d3ef96556dbe1f0e02b5aa","64db8142c61ffebf02ca0e86","","null","","","","","","","","","","","","","null","","","fallScene","","","","","","","","","","","","false","61.997838000000456","604.4000000000001","667.6211431702998","201.78","9","17","","",""
"","","","","","html-keyboard-response","50","265927","0.0-9.0-1.16","64875be76d98311f043edb55","64d3ef96556dbe1f0e02b5aa","64db8142c61ffebf02ca0e86","","","","","","","","","","","","","","","","","","","","","","","","602.0099999999562","298.0000009351538","3642.600000023842","","","","","","","","","","","","",""
"","","","","","html-keyboard-response","50","265927","0.0-9.0-1.16","64875be76d98311f043edb55","64d3ef96556dbe1f0e02b5aa","64db8142c61ffebf02ca0e86","","","","","","","","","","","","","","","","","","reconstruct","","","","","","602.0099999999562","298.0000009351538","3642.600000023842","","","","","","","","","","17","1","375","250"
"","","","","","html-keyboard-response","51","268951","0.0-9.0-0.17","64875be76d98311f043edb55","64d3ef96556dbe1f0e02b5aa","64db8142c61ffebf02ca0e86","","null","","","","","","","","","","","","","null","","","fallScene","","","","","","","","","","","","true","60.00731999999844","500","479.92114317029973","330.87","6","18","","",""
"","","","","","html-keyboard-response","52","272347","0.0-9.0-1.17","64875be76d98311f043edb55","64d3ef96556dbe1f0e02b5aa","64db8142c61ffebf02ca0e86","","","","","","","","","","","","","","","","","","","","","","","","474.9900000000005","290.00000010197726","3394.6999999284744","","","","","","","","","","","","",""
"","","","","","html-keyboard-response","52","272347","0.0-9.0-1.17","64875be76d98311f043edb55","64d3ef96556dbe1f0e02b5aa","64db8142c61ffebf02ca0e86","","","","","","","","","","","","","","","","","","reconstruct","","","","","","474.9900000000005","290.00000010197726","3394.6999999284744","","","","","","","","","","18","1","375","250"
"","","","","","html-button-response","53","287101","0.0-10.0","64875be76d98311f043edb55","64d3ef96556dbe1f0e02b5aa","64db8142c61ffebf02ca0e86","","14748","","","","","","","","","","","","","0","","","","<p><span style = ""font-size:40px;"">BREAK</span></p><p>You are doing great! Click 'Next' when you are ready for the next set.</p>","","","","","","","","","","","","","","","","","","","",""
"","","","","","html-keyboard-response","54","290116","0.0-11.0-0.0","64875be76d98311f043edb55","64d3ef96556dbe1f0e02b5aa","64db8142c61ffebf02ca0e86","","null","","","","","","","","","","","","","null","","","fallScene","","","","","","","","","","","","false","60.00552000000025","322.3","296.07114317029976","371.46","3","19","","",""
"","","","","","html-keyboard-response","55","300192","0.0-11.0-1.0","64875be76d98311f043edb55","64d3ef96556dbe1f0e02b5aa","64db8142c61ffebf02ca0e86","","","","","","","","","","","","","","","","","","","","","","","","482.009999999925","338.00000122459613","10077.100000023842","","","","","","","","","","","","",""
"","","","","","html-keyboard-response","55","300192","0.0-11.0-1.0","64875be76d98311f043edb55","64d3ef96556dbe1f0e02b5aa","64db8142c61ffebf02ca0e86","","","","","","","","","","","","","","","","","","reconstruct","","","","","","482.009999999925","338.00000122459613","10077.100000023842","","","","","","","","","","19","3","500","250"
"","","","","","html-keyboard-response","56","303212","0.0-11.0-0.1","64875be76d98311f043edb55","64d3ef96556dbe1f0e02b5aa","64db8142c61ffebf02ca0e86","","null","","","","","","","","","","","","","null","","","fallScene","","","","","","","","","","","","true","60.03228000000002","604.4000000000001","596.8711431702998","394.5","10","20","","",""
"","","","","","html-keyboard-response","57","306257","0.0-11.0-1.1","64875be76d98311f043edb55","64d3ef96556dbe1f0e02b5aa","64db8142c61ffebf02ca0e86","","","","","","","","","","","","","","","","","","","","","","","","379.0099999999913","267.99999958329204","3044.600000023842","","","","","","","","","","","","",""
"","","","","","html-keyboard-response","57","306257","0.0-11.0-1.1","64875be76d98311f043edb55","64d3ef96556dbe1f0e02b5aa","64db8142c61ffebf02ca0e86","","","","","","","","","","","","","","","","","","reconstruct","","","","","","379.0099999999913","267.99999958329204","3044.600000023842","","","","","","","","","","20","1","375","250"
"","","","","","html-keyboard-response","58","309273","0.0-11.0-0.2","64875be76d98311f043edb55","64d3ef96556dbe1f0e02b5aa","64db8142c61ffebf02ca0e86","","null","","","","","","","","","","","","","null","","","fallScene","","","","","","","","","","","","false","60.00665999999852","604.4000000000001","596.8711431702998","394.5","10","21","","",""
"","","","","","html-keyboard-response","59","312180","0.0-11.0-1.2","64875be76d98311f043edb55","64d3ef96556dbe1f0e02b5aa","64db8142c61ffebf02ca0e86","","","","","","","","","","","","","","","","","","","","","","","","625.0001869536391","232.99000174773587","2905.3000000715256","","","","","","","","","","","","",""
"","","","","","html-keyboard-response","59","312180","0.0-11.0-1.2","64875be76d98311f043edb55","64d3ef96556dbe1f0e02b5aa","64db8142c61ffebf02ca0e86","","","","","","","","","","","","","","","","","","reconstruct","","","","","","625.0001869536391","232.99000174773587","2905.3000000715256","","","","","","","","","","21","6","625","350"
"","","","","","html-keyboard-response","60","315207","0.0-11.0-0.3","64875be76d98311f043edb55","64d3ef96556dbe1f0e02b5aa","64db8142c61ffebf02ca0e86","","null","","","","","","","","","","","","","null","","","fallScene","","","","","","","","","","","","true","60.00600000000209","604.4000000000001","596.8711431702998","394.5","10","22","","",""
"","","","","","html-keyboard-response","61","319733","0.0-11.0-1.3","64875be76d98311f043edb55","64d3ef96556dbe1f0e02b5aa","64db8142c61ffebf02ca0e86","","","","","","","","","","","","","","","","","","","","","","","","405.99990000587786","244.9900004999537","4524.399999976158","","","","","","","","","","","","",""
"","","","","","html-keyboard-response","61","319733","0.0-11.0-1.3","64875be76d98311f043edb55","64d3ef96556dbe1f0e02b5aa","64db8142c61ffebf02ca0e86","","","","","","","","","","","","","","","","","","reconstruct","","","","","","405.99990000587786","244.9900004999537","4524.399999976158","","","","","","","","","","22","5","625","250"
"","","","","","html-keyboard-response","62","322769","0.0-11.0-0.4","64875be76d98311f043edb55","64d3ef96556dbe1f0e02b5aa","64db8142c61ffebf02ca0e86","","null","","","","","","","","","","","","","null","","","fallScene","","","","","","","","","","","","false","62.006805000000284","500","453.67114317029973","210.33","5","23","","",""
"","","","","","html-keyboard-response","63","326785","0.0-11.0-1.4","64875be76d98311f043edb55","64d3ef96556dbe1f0e02b5aa","64db8142c61ffebf02ca0e86","","","","","","","","","","","","","","","","","","","","","","","","546.9928101910621","275.0069502983703","4014.3000000715256","","","","","","","","","","","","",""
"","","","","","html-keyboard-response","63","326785","0.0-11.0-1.4","64875be76d98311f043edb55","64d3ef96556dbe1f0e02b5aa","64db8142c61ffebf02ca0e86","","","","","","","","","","","","","","","","","","reconstruct","","","","","","546.9928101910621","275.0069502983703","4014.3000000715256","","","","","","","","","","23","2","375","350"
"","","","","","html-keyboard-response","64","329819","0.0-11.0-0.5","64875be76d98311f043edb55","64d3ef96556dbe1f0e02b5aa","64db8142c61ffebf02ca0e86","","null","","","","","","","","","","","","","null","","","fallScene","","","","","","","","","","","","false","60.00402000000235","322.3","308.07114317029976","253.89","2","24","","",""
"","","","","","html-keyboard-response","65","333034","0.0-11.0-1.5","64875be76d98311f043edb55","64d3ef96556dbe1f0e02b5aa","64db8142c61ffebf02ca0e86","","","","","","","","","","","","","","","","","","","","","","","","356.99","287.0000000033255","3214.0999999046326","","","","","","","","","","","","",""
"","","","","","html-keyboard-response","65","333034","0.0-11.0-1.5","64875be76d98311f043edb55","64d3ef96556dbe1f0e02b5aa","64db8142c61ffebf02ca0e86","","","","","","","","","","","","","","","","","","reconstruct","","","","","","356.99","287.0000000033255","3214.0999999046326","","","","","","","","","","24","3","500","250"
"","","","","","html-keyboard-response","66","336042","0.0-11.0-0.6","64875be76d98311f043edb55","64d3ef96556dbe1f0e02b5aa","64db8142c61ffebf02ca0e86","","null","","","","","","","","","","","","","null","","","fallScene","","","","","","","","","","","","false","60.004860000000335","322.3","379.3711431702997","245.25","1","25","","",""
"","","","","","html-keyboard-response","67","339367","0.0-11.0-1.6","64875be76d98311f043edb55","64d3ef96556dbe1f0e02b5aa","64db8142c61ffebf02ca0e86","","","","","","","","","","","","","","","","","","","","","","","","369.00999956793856","279.0000929572054","3324.5999999046326","","","","","","","","","","","","",""
"","","","","","html-keyboard-response","67","339367","0.0-11.0-1.6","64875be76d98311f043edb55","64d3ef96556dbe1f0e02b5aa","64db8142c61ffebf02ca0e86","","","","","","","","","","","","","","","","","","reconstruct","","","","","","369.00999956793856","279.0000929572054","3324.5999999046326","","","","","","","","","","25","5","625","250"
"","","","","","html-keyboard-response","68","342392","0.0-11.0-0.7","64875be76d98311f043edb55","64d3ef96556dbe1f0e02b5aa","64db8142c61ffebf02ca0e86","","null","","","","","","","","","","","","","null","","","fallScene","","","","","","","","","","","","false","60.004860000000335","322.3","356.42114317029973","357.87","4","26","","",""
"","","","","","html-keyboard-response","69","346293","0.0-11.0-1.7","64875be76d98311f043edb55","64d3ef96556dbe1f0e02b5aa","64db8142c61ffebf02ca0e86","","","","","","","","","","","","","","","","","","","","","","","","382.00989533952065","321.9985569976539","3900.5","","","","","","","","","","","","",""
"","","","","","html-keyboard-response","69","346293","0.0-11.0-1.7","64875be76d98311f043edb55","64d3ef96556dbe1f0e02b5aa","64db8142c61ffebf02ca0e86","","","","","","","","","","","","","","","","","","reconstruct","","","","","","382.00989533952065","321.9985569976539","3900.5","","","","","","","","","","26","1","375","250"
"","","","","","html-keyboard-response","70","349326","0.0-11.0-0.8","64875be76d98311f043edb55","64d3ef96556dbe1f0e02b5aa","64db8142c61ffebf02ca0e86","","null","","","","","","","","","","","","","null","","","fallScene","","","","","","","","","","","","false","60.004619999999406","604.4000000000001","667.6211431702998","201.78","9","27","","",""
"","","","","","html-keyboard-response","71","352531","0.0-11.0-1.8","64875be76d98311f043edb55","64d3ef96556dbe1f0e02b5aa","64db8142c61ffebf02ca0e86","","","","","","","","","","","","","","","","","","","","","","","","645.9997549647774","254.0099969974362","3204.2000000476837","","","","","","","","","","","","",""
"","","","","","html-keyboard-response","71","352531","0.0-11.0-1.8","64875be76d98311f043edb55","64d3ef96556dbe1f0e02b5aa","64db8142c61ffebf02ca0e86","","","","","","","","","","","","","","","","","","reconstruct","","","","","","645.9997549647774","254.0099969974362","3204.2000000476837","","","","","","","","","","27","2","375","350"
"","","","","","html-keyboard-response","72","355560","0.0-11.0-0.9","64875be76d98311f043edb55","64d3ef96556dbe1f0e02b5aa","64db8142c61ffebf02ca0e86","","null","","","","","","","","","","","","","null","","","fallScene","","","","","","","","","","","","true","60.00719999999971","500","553.4711431702997","282.51","7","28","","",""
"","","","","","html-keyboard-response","73","359077","0.0-11.0-1.9","64875be76d98311f043edb55","64d3ef96556dbe1f0e02b5aa","64db8142c61ffebf02ca0e86","","","","","","","","","","","","","","","","","","","","","","","","530.0000000000687","311.01","3516.5","","","","","","","","","","","","",""
"","","","","","html-keyboard-response","73","359077","0.0-11.0-1.9","64875be76d98311f043edb55","64d3ef96556dbe1f0e02b5aa","64db8142c61ffebf02ca0e86","","","","","","","","","","","","","","","","","","reconstruct","","","","","","530.0000000000687","311.01","3516.5","","","","","","","","","","28","6","625","350"
"","","","","","html-keyboard-response","74","362095","0.0-11.0-0.10","64875be76d98311f043edb55","64d3ef96556dbe1f0e02b5aa","64db8142c61ffebf02ca0e86","","null","","","","","","","","","","","","","null","","","fallScene","","","","","","","","","","","","false","60.00816000000341","604.4000000000001","596.8711431702998","394.5","10","29","","",""
"","","","","","html-keyboard-response","75","366459","0.0-11.0-1.10","64875be76d98311f043edb55","64d3ef96556dbe1f0e02b5aa","64db8142c61ffebf02ca0e86","","","","","","","","","","","","","","","","","","","","","","","","633.9930320511193","263.992827295601","4363.199999928474","","","","","","","","","","","","",""
"","","","","","html-keyboard-response","75","366459","0.0-11.0-1.10","64875be76d98311f043edb55","64d3ef96556dbe1f0e02b5aa","64db8142c61ffebf02ca0e86","","","","","","","","","","","","","","","","","","reconstruct","","","","","","633.9930320511193","263.992827295601","4363.199999928474","","","","","","","","","","29","2","375","350"
"","","","","","html-keyboard-response","76","369475","0.0-11.0-0.11","64875be76d98311f043edb55","64d3ef96556dbe1f0e02b5aa","64db8142c61ffebf02ca0e86","","null","","","","","","","","","","","","","null","","","fallScene","","","","","","","","","","","","false","60.01434000000009","322.3","296.07114317029976","371.46","3","30","","",""
"","","","","","html-keyboard-response","77","372611","0.0-11.0-1.11","64875be76d98311f043edb55","64d3ef96556dbe1f0e02b5aa","64db8142c61ffebf02ca0e86","","","","","","","","","","","","","","","","","","","","","","","","321.9900031445237","260.00025076001623","3135.100000023842","","","","","","","","","","","","",""
"","","","","","html-keyboard-response","77","372611","0.0-11.0-1.11","64875be76d98311f043edb55","64d3ef96556dbe1f0e02b5aa","64db8142c61ffebf02ca0e86","","","","","","","","","","","","","","","","","","reconstruct","","","","","","321.9900031445237","260.00025076001623","3135.100000023842","","","","","","","","","","30","6","625","350"
"","","","","","html-keyboard-response","78","375616","0.0-11.0-0.12","64875be76d98311f043edb55","64d3ef96556dbe1f0e02b5aa","64db8142c61ffebf02ca0e86","","null","","","","","","","","","","","","","null","","","fallScene","","","","","","","","","","","","true","60.01332000000053","500","553.4711431702997","282.51","7","31","","",""
"","","","","","html-keyboard-response","79","379568","0.0-11.0-1.12","64875be76d98311f043edb55","64d3ef96556dbe1f0e02b5aa","64db8142c61ffebf02ca0e86","","","","","","","","","","","","","","","","","","","","","","","","510.9900003232019","330.0000803985962","3950.7999999523163","","","","","","","","","","","","",""
"","","","","","html-keyboard-response","79","379568","0.0-11.0-1.12","64875be76d98311f043edb55","64d3ef96556dbe1f0e02b5aa","64db8142c61ffebf02ca0e86","","","","","","","","","","","","","","","","","","reconstruct","","","","","","510.9900003232019","330.0000803985962","3950.7999999523163","","","","","","","","","","31","3","500","250"
"","","","","","html-keyboard-response","80","382592","0.0-11.0-0.13","64875be76d98311f043edb55","64d3ef96556dbe1f0e02b5aa","64db8142c61ffebf02ca0e86","","null","","","","","","","","","","","","","null","","","fallScene","","","","","","","","","","","","false","60.01206000000006","500","553.4711431702997","282.51","7","32","","",""
"","","","","","html-keyboard-response","81","386798","0.0-11.0-1.13","64875be76d98311f043edb55","64d3ef96556dbe1f0e02b5aa","64db8142c61ffebf02ca0e86","","","","","","","","","","","","","","","","","","","","","","","","512.0099995009214","281.0000999065718","4205.100000023842","","","","","","","","","","","","",""
"","","","","","html-keyboard-response","81","386798","0.0-11.0-1.13","64875be76d98311f043edb55","64d3ef96556dbe1f0e02b5aa","64db8142c61ffebf02ca0e86","","","","","","","","","","","","","","","","","","reconstruct","","","","","","512.0099995009214","281.0000999065718","4205.100000023842","","","","","","","","","","32","2","375","350"
"","","","","","html-keyboard-response","82","389819","0.0-11.0-0.14","64875be76d98311f043edb55","64d3ef96556dbe1f0e02b5aa","64db8142c61ffebf02ca0e86","","null","","","","","","","","","","","","","null","","","fallScene","","","","","","","","","","","","false","61.98197799999989","322.3","308.07114317029976","253.89","2","33","","",""
"","","","","","html-keyboard-response","83","394133","0.0-11.0-1.14","64875be76d98311f043edb55","64d3ef96556dbe1f0e02b5aa","64db8142c61ffebf02ca0e86","","","","","","","","","","","","","","","","","","","","","","","","469.9998963035479","299.9900005376622","4313.5","","","","","","","","","","","","",""
"","","","","","html-keyboard-response","83","394133","0.0-11.0-1.14","64875be76d98311f043edb55","64d3ef96556dbe1f0e02b5aa","64db8142c61ffebf02ca0e86","","","","","","","","","","","","","","","","","","reconstruct","","","","","","469.9998963035479","299.9900005376622","4313.5","","","","","","","","","","33","5","625","250"
"","","","","","html-keyboard-response","84","397169","0.0-11.0-0.15","64875be76d98311f043edb55","64d3ef96556dbe1f0e02b5aa","64db8142c61ffebf02ca0e86","","null","","","","","","","","","","","","","null","","","fallScene","","","","","","","","","","","","false","60.00828000000213","500","553.4711431702997","282.51","7","34","","",""
"","","","","","html-keyboard-response","85","404112","0.0-11.0-1.15","64875be76d98311f043edb55","64d3ef96556dbe1f0e02b5aa","64db8142c61ffebf02ca0e86","","","","","","","","","","","","","","","","","","","","","","","","497.99000000011875","259.99999845880507","6942.900000095367","","","","","","","","","","","","",""
"","","","","","html-keyboard-response","85","404112","0.0-11.0-1.15","64875be76d98311f043edb55","64d3ef96556dbe1f0e02b5aa","64db8142c61ffebf02ca0e86","","","","","","","","","","","","","","","","","","reconstruct","","","","","","497.99000000011875","259.99999845880507","6942.900000095367","","","","","","","","","","34","5","625","250"
"","","","","","html-keyboard-response","86","407127","0.0-11.0-0.16","64875be76d98311f043edb55","64d3ef96556dbe1f0e02b5aa","64db8142c61ffebf02ca0e86","","null","","","","","","","","","","","","","null","","","fallScene","","","","","","","","","","","","false","60.00540000000154","500","553.4711431702997","282.51","7","35","","",""
"","","","","","html-keyboard-response","87","410485","0.0-11.0-1.16","64875be76d98311f043edb55","64d3ef96556dbe1f0e02b5aa","64db8142c61ffebf02ca0e86","","","","","","","","","","","","","","","","","","","","","","","","553.9900886259132","281.99867159354415","3357.899999976158","","","","","","","","","","","","",""
"","","","","","html-keyboard-response","87","410485","0.0-11.0-1.16","64875be76d98311f043edb55","64d3ef96556dbe1f0e02b5aa","64db8142c61ffebf02ca0e86","","","","","","","","","","","","","","","","","","reconstruct","","","","","","553.9900886259132","281.99867159354415","3357.899999976158","","","","","","","","","","35","1","375","250"
"","","","","","html-keyboard-response","88","413489","0.0-11.0-0.17","64875be76d98311f043edb55","64d3ef96556dbe1f0e02b5aa","64db8142c61ffebf02ca0e86","","null","","","","","","","","","","","","","null","","","fallScene","","","","","","","","","","","","false","60.00641999999759","500","510.8711431702997","369.03","8","36","","",""
"","","","","","html-keyboard-response","89","417031","0.0-11.0-1.17","64875be76d98311f043edb55","64d3ef96556dbe1f0e02b5aa","64db8142c61ffebf02ca0e86","","","","","","","","","","","","","","","","","","","","","","","","467.99292929403657","306.9929285703582","3538.5","","","","","","","","","","","","",""
"","","","","","html-keyboard-response","89","417031","0.0-11.0-1.17","64875be76d98311f043edb55","64d3ef96556dbe1f0e02b5aa","64db8142c61ffebf02ca0e86","","","","","","","","","","","","","","","","","","reconstruct","","","","","","467.99292929403657","306.9929285703582","3538.5","","","","","","","","","","36","1","375","250"
"","","","","","html-button-response","90","512997","0.0-12.0","64875be76d98311f043edb55","64d3ef96556dbe1f0e02b5aa","64db8142c61ffebf02ca0e86","","95950","","","","","","","","","","","","","0","","","","<p><span style = ""font-size:40px;"">BREAK</span></p><p>You are halfway done! Click 'Next' when you are ready for the next set.</p>","","","","","","","","","","","","","","","","","","","",""
"","","","","","html-keyboard-response","91","516006","0.0-13.0-0.0","64875be76d98311f043edb55","64d3ef96556dbe1f0e02b5aa","64db8142c61ffebf02ca0e86","","null","","","","","","","","","","","","","null","","","fallScene","","","","","","","","","","","","true","61.984783999998236","604.4000000000001","650.0211431702996","404.58000000000004","11","37","","",""
"","","","","","html-keyboard-response","92","519371","0.0-13.0-1.0","64875be76d98311f043edb55","64d3ef96556dbe1f0e02b5aa","64db8142c61ffebf02ca0e86","","","","","","","","","","","","","","","","","","","","","","","","458.0099995000375","251.99990000499955","3365","","","","","","","","","","","","",""
"","","","","","html-keyboard-response","92","519371","0.0-13.0-1.0","64875be76d98311f043edb55","64d3ef96556dbe1f0e02b5aa","64db8142c61ffebf02ca0e86","","","","","","","","","","","","","","","","","","reconstruct","","","","","","458.0099995000375","251.99990000499955","3365","","","","","","","","","","37","6","625","350"
"","","","","","html-keyboard-response","93","522382","0.0-13.0-0.1","64875be76d98311f043edb55","64d3ef96556dbe1f0e02b5aa","64db8142c61ffebf02ca0e86","","null","","","","","","","","","","","","","null","","","fallScene","","","","","","","","","","","","false","60.004860000000335","604.4000000000001","650.0211431702996","404.58000000000004","11","38","","",""
"","","","","","html-keyboard-response","94","526564","0.0-13.0-1.1","64875be76d98311f043edb55","64d3ef96556dbe1f0e02b5aa","64db8142c61ffebf02ca0e86","","","","","","","","","","","","","","","","","","","","","","","","660.9901460469224","372.00170282375603","4181.100000023842","","","","","","","","","","","","",""
"","","","","","html-keyboard-response","94","526564","0.0-13.0-1.1","64875be76d98311f043edb55","64d3ef96556dbe1f0e02b5aa","64db8142c61ffebf02ca0e86","","","","","","","","","","","","","","","","","","reconstruct","","","","","","660.9901460469224","372.00170282375603","4181.100000023842","","","","","","","","","","38","1","375","250"
"","","","","","html-keyboard-response","95","529570","0.0-13.0-0.2","64875be76d98311f043edb55","64d3ef96556dbe1f0e02b5aa","64db8142c61ffebf02ca0e86","","null","","","","","","","","","","","","","null","","","fallScene","","","","","","","","","","","","false","62.00845200000039","322.3","308.07114317029976","253.89","2","39","","",""
"","","","","","html-keyboard-response","96","533812","0.0-13.0-1.2","64875be76d98311f043edb55","64d3ef96556dbe1f0e02b5aa","64db8142c61ffebf02ca0e86","","","","","","","","","","","","","","","","","","","","","","","","405.01","282","4241.099999904633","","","","","","","","","","","","",""
"","","","","","html-keyboard-response","96","533812","0.0-13.0-1.2","64875be76d98311f043edb55","64d3ef96556dbe1f0e02b5aa","64db8142c61ffebf02ca0e86","","","","","","","","","","","","","","","","","","reconstruct","","","","","","405.01","282","4241.099999904633","","","","","","","","","","39","1","375","250"
"","","","","","html-keyboard-response","97","536817","0.0-13.0-0.3","64875be76d98311f043edb55","64d3ef96556dbe1f0e02b5aa","64db8142c61ffebf02ca0e86","","null","","","","","","","","","","","","","null","","","fallScene","","","","","","","","","","","","true","60.005340000002185","322.3","379.3711431702997","245.25","1","40","","",""
"","","","","","html-keyboard-response","98","540234","0.0-13.0-1.3","64875be76d98311f043edb55","64d3ef96556dbe1f0e02b5aa","64db8142c61ffebf02ca0e86","","","","","","","","","","","","","","","","","","","","","","","","651.9998962150269","248.99000053858055","3416.3000000715256","","","","","","","","","","","","",""
"","","","","","html-keyboard-response","98","540234","0.0-13.0-1.3","64875be76d98311f043edb55","64d3ef96556dbe1f0e02b5aa","64db8142c61ffebf02ca0e86","","","","","","","","","","","","","","","","","","reconstruct","","","","","","651.9998962150269","248.99000053858055","3416.3000000715256","","","","","","","","","","40","4","500","350"
"","","","","","html-keyboard-response","99","543228","0.0-13.0-0.4","64875be76d98311f043edb55","64d3ef96556dbe1f0e02b5aa","64db8142c61ffebf02ca0e86","","null","","","","","","","","","","","","","null","","","fallScene","","","","","","","","","","","","true","60.01727999999654","500","510.8711431702997","369.03","8","41","","",""
"","","","","","html-keyboard-response","100","546889","0.0-13.0-1.4","64875be76d98311f043edb55","64d3ef96556dbe1f0e02b5aa","64db8142c61ffebf02ca0e86","","","","","","","","","","","","","","","","","","","","","","","","480.00999986317044","281.0000523122555","3659.9000000953674","","","","","","","","","","","","",""
"","","","","","html-keyboard-response","100","546889","0.0-13.0-1.4","64875be76d98311f043edb55","64d3ef96556dbe1f0e02b5aa","64db8142c61ffebf02ca0e86","","","","","","","","","","","","","","","","","","reconstruct","","","","","","480.00999986317044","281.0000523122555","3659.9000000953674","","","","","","","","","","41","4","500","350"
"","","","","","html-keyboard-response","101","549901","0.0-13.0-0.5","64875be76d98311f043edb55","64d3ef96556dbe1f0e02b5aa","64db8142c61ffebf02ca0e86","","null","","","","","","","","","","","","","null","","","fallScene","","","","","","","","","","","","true","62.01546699999983","604.4000000000001","596.8711431702998","394.5","10","42","","",""
"","","","","","html-keyboard-response","102","553523","0.0-13.0-1.5","64875be76d98311f043edb55","64d3ef96556dbe1f0e02b5aa","64db8142c61ffebf02ca0e86","","","","","","","","","","","","","","","","","","","","","","","","331.01","290.9999999944807","3620.600000023842","","","","","","","","","","","","",""
"","","","","","html-keyboard-response","102","553523","0.0-13.0-1.5","64875be76d98311f043edb55","64d3ef96556dbe1f0e02b5aa","64db8142c61ffebf02ca0e86","","","","","","","","","","","","","","","","","","reconstruct","","","","","","331.01","290.9999999944807","3620.600000023842","","","","","","","","","","42","4","500","350"
"","","","","","html-keyboard-response","103","556530","0.0-13.0-0.6","64875be76d98311f043edb55","64d3ef96556dbe1f0e02b5aa","64db8142c61ffebf02ca0e86","","null","","","","","","","","","","","","","null","","","fallScene","","","","","","","","","","","","false","60.0165000000014","322.3","308.07114317029976","253.89","2","43","","",""
"","","","","","html-keyboard-response","104","560783","0.0-13.0-1.6","64875be76d98311f043edb55","64d3ef96556dbe1f0e02b5aa","64db8142c61ffebf02ca0e86","","","","","","","","","","","","","","","","","","","","","","","","390.99999711385874","283.0099999995835","4253","","","","","","","","","","","","",""
"","","","","","html-keyboard-response","104","560783","0.0-13.0-1.6","64875be76d98311f043edb55","64d3ef96556dbe1f0e02b5aa","64db8142c61ffebf02ca0e86","","","","","","","","","","","","","","","","","","reconstruct","","","","","","390.99999711385874","283.0099999995835","4253","","","","","","","","","","43","6","625","350"
"","","","","","html-keyboard-response","105","563794","0.0-13.0-0.7","64875be76d98311f043edb55","64d3ef96556dbe1f0e02b5aa","64db8142c61ffebf02ca0e86","","null","","","","","","","","","","","","","null","","","fallScene","","","","","","","","","","","","false","56.01086400000099","604.4000000000001","575.4211431702997","266.76","12","44","","",""
"","","","","","html-keyboard-response","106","567149","0.0-13.0-1.7","64875be76d98311f043edb55","64d3ef96556dbe1f0e02b5aa","64db8142c61ffebf02ca0e86","","","","","","","","","","","","","","","","","","","","","","","","670.9900004868723","267.00009867729295","3354.7000000476837","","","","","","","","","","","","",""
"","","","","","html-keyboard-response","106","567149","0.0-13.0-1.7","64875be76d98311f043edb55","64d3ef96556dbe1f0e02b5aa","64db8142c61ffebf02ca0e86","","","","","","","","","","","","","","","","","","reconstruct","","","","","","670.9900004868723","267.00009867729295","3354.7000000476837","","","","","","","","","","44","3","500","250"
"","","","","","html-keyboard-response","107","570157","0.0-13.0-0.8","64875be76d98311f043edb55","64d3ef96556dbe1f0e02b5aa","64db8142c61ffebf02ca0e86","","null","","","","","","","","","","","","","null","","","fallScene","","","","","","","","","","","","true","60.00030000000028","604.4000000000001","575.4211431702997","266.76","12","45","","",""
"","","","","","html-keyboard-response","108","573150","0.0-13.0-1.8","64875be76d98311f043edb55","64d3ef96556dbe1f0e02b5aa","64db8142c61ffebf02ca0e86","","","","","","","","","","","","","","","","","","","","","","","","378.9999952839862","289.99000000111204","2991.7999999523163","","","","","","","","","","","","",""
"","","","","","html-keyboard-response","108","573150","0.0-13.0-1.8","64875be76d98311f043edb55","64d3ef96556dbe1f0e02b5aa","64db8142c61ffebf02ca0e86","","","","","","","","","","","","","","","","","","reconstruct","","","","","","378.9999952839862","289.99000000111204","2991.7999999523163","","","","","","","","","","45","5","625","250"
"","","","","","html-keyboard-response","109","576158","0.0-13.0-0.9","64875be76d98311f043edb55","64d3ef96556dbe1f0e02b5aa","64db8142c61ffebf02ca0e86","","null","","","","","","","","","","","","","null","","","fallScene","","","","","","","","","","","","true","60.02465999999782","604.4000000000001","575.4211431702997","266.76","12","46","","",""
"","","","","","html-keyboard-response","110","578758","0.0-13.0-1.9","64875be76d98311f043edb55","64d3ef96556dbe1f0e02b5aa","64db8142c61ffebf02ca0e86","","","","","","","","","","","","","","","","","","","","","","","","354.0099995000375","262.0000999950001","2599.100000023842","","","","","","","","","","","","",""
"","","","","","html-keyboard-response","110","578758","0.0-13.0-1.9","64875be76d98311f043edb55","64d3ef96556dbe1f0e02b5aa","64db8142c61ffebf02ca0e86","","","","","","","","","","","","","","","","","","reconstruct","","","","","","354.0099995000375","262.0000999950001","2599.100000023842","","","","","","","","","","46","6","625","350"
"","","","","","html-keyboard-response","111","581770","0.0-13.0-0.10","64875be76d98311f043edb55","64d3ef96556dbe1f0e02b5aa","64db8142c61ffebf02ca0e86","","null","","","","","","","","","","","","","null","","","fallScene","","","","","","","","","","","","false","60.02160000000615","322.3","379.3711431702997","245.25","1","47","","",""
"","","","","","html-keyboard-response","112","584912","0.0-13.0-1.10","64875be76d98311f043edb55","64d3ef96556dbe1f0e02b5aa","64db8142c61ffebf02ca0e86","","","","","","","","","","","","","","","","","","","","","","","","364.99792640875825","268.0097826488929","3141.5","","","","","","","","","","","","",""
"","","","","","html-keyboard-response","112","584912","0.0-13.0-1.10","64875be76d98311f043edb55","64d3ef96556dbe1f0e02b5aa","64db8142c61ffebf02ca0e86","","","","","","","","","","","","","","","","","","reconstruct","","","","","","364.99792640875825","268.0097826488929","3141.5","","","","","","","","","","47","2","375","350"
"","","","","","html-keyboard-response","113","587919","0.0-13.0-0.11","64875be76d98311f043edb55","64d3ef96556dbe1f0e02b5aa","64db8142c61ffebf02ca0e86","","null","","","","","","","","","","","","","null","","","fallScene","","","","","","","","","","","","false","61.995337000002394","500","510.8711431702997","369.03","8","48","","",""
"","","","","","html-keyboard-response","114","591561","0.0-13.0-1.11","64875be76d98311f043edb55","64d3ef96556dbe1f0e02b5aa","64db8142c61ffebf02ca0e86","","","","","","","","","","","","","","","","","","","","","","","","486.99000000000046","274.000000095399","3641.8000000715256","","","","","","","","","","","","",""
"","","","","","html-keyboard-response","114","591561","0.0-13.0-1.11","64875be76d98311f043edb55","64d3ef96556dbe1f0e02b5aa","64db8142c61ffebf02ca0e86","","","","","","","","","","","","","","","","","","reconstruct","","","","","","486.99000000000046","274.000000095399","3641.8000000715256","","","","","","","","","","48","2","375","350"
"","","","","","html-keyboard-response","115","594571","0.0-13.0-0.12","64875be76d98311f043edb55","64d3ef96556dbe1f0e02b5aa","64db8142c61ffebf02ca0e86","","null","","","","","","","","","","","","","null","","","fallScene","","","","","","","","","","","","true","60.01331999999704","322.3","379.3711431702997","245.25","1","49","","",""
"","","","","","html-keyboard-response","116","597761","0.0-13.0-1.12","64875be76d98311f043edb55","64d3ef96556dbe1f0e02b5aa","64db8142c61ffebf02ca0e86","","","","","","","","","","","","","","","","","","","","","","","","641.0070582609011","239.99291614843096","3189.100000023842","","","","","","","","","","","","",""
"","","","","","html-keyboard-response","116","597761","0.0-13.0-1.12","64875be76d98311f043edb55","64d3ef96556dbe1f0e02b5aa","64db8142c61ffebf02ca0e86","","","","","","","","","","","","","","","","","","reconstruct","","","","","","641.0070582609011","239.99291614843096","3189.100000023842","","","","","","","","","","49","6","625","350"
"","","","","","html-keyboard-response","117","600781","0.0-13.0-0.13","64875be76d98311f043edb55","64d3ef96556dbe1f0e02b5aa","64db8142c61ffebf02ca0e86","","null","","","","","","","","","","","","","null","","","fallScene","","","","","","","","","","","","false","62.011989999998015","322.3","308.07114317029976","253.89","2","50","","",""
"","","","","","html-keyboard-response","118","604320","0.0-13.0-1.13","64875be76d98311f043edb55","64d3ef96556dbe1f0e02b5aa","64db8142c61ffebf02ca0e86","","","","","","","","","","","","","","","","","","","","","","","","359.99000000000285","270.0000002391098","3538.2000000476837","","","","","","","","","","","","",""
"","","","","","html-keyboard-response","118","604320","0.0-13.0-1.13","64875be76d98311f043edb55","64d3ef96556dbe1f0e02b5aa","64db8142c61ffebf02ca0e86","","","","","","","","","","","","","","","","","","reconstruct","","","","","","359.99000000000285","270.0000002391098","3538.2000000476837","","","","","","","","","","50","4","500","350"
"","","","","","html-keyboard-response","119","607332","0.0-13.0-0.14","64875be76d98311f043edb55","64d3ef96556dbe1f0e02b5aa","64db8142c61ffebf02ca0e86","","null","","","","","","","","","","","","","null","","","fallScene","","","","","","","","","","","","false","60.01122000000206","322.3","356.42114317029973","357.87","4","51","","",""
"","","","","","html-keyboard-response","120","611024","0.0-13.0-1.14","64875be76d98311f043edb55","64d3ef96556dbe1f0e02b5aa","64db8142c61ffebf02ca0e86","","","","","","","","","","","","","","","","","","","","","","","","343.0000415271286","264.0099999137745","3692.100000023842","","","","","","","","","","","","",""
"","","","","","html-keyboard-response","120","611025","0.0-13.0-1.14","64875be76d98311f043edb55","64d3ef96556dbe1f0e02b5aa","64db8142c61ffebf02ca0e86","","","","","","","","","","","","","","","","","","reconstruct","","","","","","343.0000415271286","264.0099999137745","3692.100000023842","","","","","","","","","","51","2","375","350"
"","","","","","html-keyboard-response","121","614031","0.0-13.0-0.15","64875be76d98311f043edb55","64d3ef96556dbe1f0e02b5aa","64db8142c61ffebf02ca0e86","","null","","","","","","","","","","","","","null","","","fallScene","","","","","","","","","","","","false","62.023030999996934","322.3","356.42114317029973","357.87","4","52","","",""
"","","","","","html-keyboard-response","122","617958","0.0-13.0-1.15","64875be76d98311f043edb55","64d3ef96556dbe1f0e02b5aa","64db8142c61ffebf02ca0e86","","","","","","","","","","","","","","","","","","","","","","","","341.0099976662655","259.00021603065244","3925.600000023842","","","","","","","","","","","","",""
"","","","","","html-keyboard-response","122","617958","0.0-13.0-1.15","64875be76d98311f043edb55","64d3ef96556dbe1f0e02b5aa","64db8142c61ffebf02ca0e86","","","","","","","","","","","","","","","","","","reconstruct","","","","","","341.0099976662655","259.00021603065244","3925.600000023842","","","","","","","","","","52","4","500","350"
"","","","","","html-keyboard-response","123","620983","0.0-13.0-0.16","64875be76d98311f043edb55","64d3ef96556dbe1f0e02b5aa","64db8142c61ffebf02ca0e86","","null","","","","","","","","","","","","","null","","","fallScene","","","","","","","","","","","","false","60.006839999996586","500","510.8711431702997","369.03","8","53","","",""
"","","","","","html-keyboard-response","124","624665","0.0-13.0-1.16","64875be76d98311f043edb55","64d3ef96556dbe1f0e02b5aa","64db8142c61ffebf02ca0e86","","","","","","","","","","","","","","","","","","","","","","","","390.00003766617886","251.9900000709373","3681.0999999046326","","","","","","","","","","","","",""
"","","","","","html-keyboard-response","124","624665","0.0-13.0-1.16","64875be76d98311f043edb55","64d3ef96556dbe1f0e02b5aa","64db8142c61ffebf02ca0e86","","","","","","","","","","","","","","","","","","reconstruct","","","","","","390.00003766617886","251.9900000709373","3681.0999999046326","","","","","","","","","","53","6","625","350"
"","","","","","html-keyboard-response","125","627683","0.0-13.0-0.17","64875be76d98311f043edb55","64d3ef96556dbe1f0e02b5aa","64db8142c61ffebf02ca0e86","","null","","","","","","","","","","","","","null","","","fallScene","","","","","","","","","","","","false","60.004500000004185","500","453.67114317029973","210.33","5","54","","",""
"","","","","","html-keyboard-response","126","631456","0.0-13.0-1.17","64875be76d98311f043edb55","64d3ef96556dbe1f0e02b5aa","64db8142c61ffebf02ca0e86","","","","","","","","","","","","","","","","","","","","","","","","531.9999657803396","254.00999994145056","3772.4000000953674","","","","","","","","","","","","",""
"","","","","","html-keyboard-response","126","631456","0.0-13.0-1.17","64875be76d98311f043edb55","64d3ef96556dbe1f0e02b5aa","64db8142c61ffebf02ca0e86","","","","","","","","","","","","","","","","","","reconstruct","","","","","","531.9999657803396","254.00999994145056","3772.4000000953674","","","","","","","","","","54","6","625","350"
"","","","","","html-button-response","127","636738","0.0-14.0","64875be76d98311f043edb55","64d3ef96556dbe1f0e02b5aa","64db8142c61ffebf02ca0e86","","5277","","","","","","","","","","","","","0","","","","<p><span style = ""font-size:40px;"">BREAK</span></p><p>You are almost done! Click 'Next' when you are ready for the next set.</p>","","","","","","","","","","","","","","","","","","","",""
"","","","","","html-keyboard-response","128","639745","0.0-15.0-0.0","64875be76d98311f043edb55","64d3ef96556dbe1f0e02b5aa","64db8142c61ffebf02ca0e86","","null","","","","","","","","","","","","","null","","","fallScene","","","","","","","","","","","","false","62.016565000002274","604.4000000000001","667.6211431702998","201.78","9","55","","",""
"","","","","","html-keyboard-response","129","642911","0.0-15.0-1.0","64875be76d98311f043edb55","64d3ef96556dbe1f0e02b5aa","64db8142c61ffebf02ca0e86","","","","","","","","","","","","","","","","","","","","","","","","500.9999947763658","330.9900000013643","3165.600000023842","","","","","","","","","","","","",""
"","","","","","html-keyboard-response","129","642911","0.0-15.0-1.0","64875be76d98311f043edb55","64d3ef96556dbe1f0e02b5aa","64db8142c61ffebf02ca0e86","","","","","","","","","","","","","","","","","","reconstruct","","","","","","500.9999947763658","330.9900000013643","3165.600000023842","","","","","","","","","","55","3","500","250"
"","","","","","html-keyboard-response","130","645918","0.0-15.0-0.1","64875be76d98311f043edb55","64d3ef96556dbe1f0e02b5aa","64db8142c61ffebf02ca0e86","","null","","","","","","","","","","","","","null","","","fallScene","","","","","","","","","","","","false","60.007139999996866","604.4000000000001","596.8711431702998","394.5","10","56","","",""
"","","","","","html-keyboard-response","131","649680","0.0-15.0-1.1","64875be76d98311f043edb55","64d3ef96556dbe1f0e02b5aa","64db8142c61ffebf02ca0e86","","","","","","","","","","","","","","","","","","","","","","","","657.9997029795935","280.0099955879706","3760.2000000476837","","","","","","","","","","","","",""
"","","","","","html-keyboard-response","131","649680","0.0-15.0-1.1","64875be76d98311f043edb55","64d3ef96556dbe1f0e02b5aa","64db8142c61ffebf02ca0e86","","","","","","","","","","","","","","","","","","reconstruct","","","","","","657.9997029795935","280.0099955879706","3760.2000000476837","","","","","","","","","","56","3","500","250"
"","","","","","html-keyboard-response","132","652691","0.0-15.0-0.2","64875be76d98311f043edb55","64d3ef96556dbe1f0e02b5aa","64db8142c61ffebf02ca0e86","","null","","","","","","","","","","","","","null","","","fallScene","","","","","","","","","","","","true","60.00414000000106","604.4000000000001","575.4211431702997","266.76","12","57","","",""
"","","","","","html-keyboard-response","133","655709","0.0-15.0-1.2","64875be76d98311f043edb55","64d3ef96556dbe1f0e02b5aa","64db8142c61ffebf02ca0e86","","","","","","","","","","","","","","","","","","","","","","","","352.99106222591826","258.9955148919229","3017.0999999046326","","","","","","","","","","","","",""
"","","","","","html-keyboard-response","133","655709","0.0-15.0-1.2","64875be76d98311f043edb55","64d3ef96556dbe1f0e02b5aa","64db8142c61ffebf02ca0e86","","","","","","","","","","","","","","","","","","reconstruct","","","","","","352.99106222591826","258.9955148919229","3017.0999999046326","","","","","","","","","","57","2","375","350"
"","","","","","html-keyboard-response","134","658724","0.0-15.0-0.3","64875be76d98311f043edb55","64d3ef96556dbe1f0e02b5aa","64db8142c61ffebf02ca0e86","","null","","","","","","","","","","","","","null","","","fallScene","","","","","","","","","","","","true","60.000720000006254","500","479.92114317029973","330.87","6","58","","",""
"","","","","","html-keyboard-response","135","661990","0.0-15.0-1.3","64875be76d98311f043edb55","64d3ef96556dbe1f0e02b5aa","64db8142c61ffebf02ca0e86","","","","","","","","","","","","","","","","","","","","","","","","536.0002921013911","260.0099957329285","3274.7000000476837","","","","","","","","","","","","",""
"","","","","","html-keyboard-response","135","661990","0.0-15.0-1.3","64875be76d98311f043edb55","64d3ef96556dbe1f0e02b5aa","64db8142c61ffebf02ca0e86","","","","","","","","","","","","","","","","","","reconstruct","","","","","","536.0002921013911","260.0099957329285","3274.7000000476837","","","","","","","","","","58","5","625","250"
"","","","","","html-keyboard-response","136","664999","0.0-15.0-0.4","64875be76d98311f043edb55","64d3ef96556dbe1f0e02b5aa","64db8142c61ffebf02ca0e86","","null","","","","","","","","","","","","","null","","","fallScene","","","","","","","","","","","","true","62.0064389999971","604.4000000000001","575.4211431702997","266.76","12","59","","",""
"","","","","","html-keyboard-response","137","668633","0.0-15.0-1.4","64875be76d98311f043edb55","64d3ef96556dbe1f0e02b5aa","64db8142c61ffebf02ca0e86","","","","","","","","","","","","","","","","","","","","","","","","352.00801122762135","311.0059850005847","3633.600000023842","","","","","","","","","","","","",""
"","","","","","html-keyboard-response","137","668633","0.0-15.0-1.4","64875be76d98311f043edb55","64d3ef96556dbe1f0e02b5aa","64db8142c61ffebf02ca0e86","","","","","","","","","","","","","","","","","","reconstruct","","","","","","352.00801122762135","311.0059850005847","3633.600000023842","","","","","","","","","","59","1","375","250"
"","","","","","html-keyboard-response","138","671647","0.0-15.0-0.5","64875be76d98311f043edb55","64d3ef96556dbe1f0e02b5aa","64db8142c61ffebf02ca0e86","","null","","","","","","","","","","","","","null","","","fallScene","","","","","","","","","","","","true","60.00821999999927","500","553.4711431702997","282.51","7","60","","",""
"","","","","","html-keyboard-response","139","675841","0.0-15.0-1.5","64875be76d98311f043edb55","64d3ef96556dbe1f0e02b5aa","64db8142c61ffebf02ca0e86","","","","","","","","","","","","","","","","","","","","","","","","529.0100998941479","291.0099785103562","4193.699999928474","","","","","","","","","","","","",""
"","","","","","html-keyboard-response","139","675841","0.0-15.0-1.5","64875be76d98311f043edb55","64d3ef96556dbe1f0e02b5aa","64db8142c61ffebf02ca0e86","","","","","","","","","","","","","","","","","","reconstruct","","","","","","529.0100998941479","291.0099785103562","4193.699999928474","","","","","","","","","","60","4","500","350"
"","","","","","html-keyboard-response","140","678852","0.0-15.0-0.6","64875be76d98311f043edb55","64d3ef96556dbe1f0e02b5aa","64db8142c61ffebf02ca0e86","","null","","","","","","","","","","","","","null","","","fallScene","","","","","","","","","","","","true","62.0122950000054","500","453.67114317029973","210.33","5","61","","",""
"","","","","","html-keyboard-response","141","683136","0.0-15.0-1.6","64875be76d98311f043edb55","64d3ef96556dbe1f0e02b5aa","64db8142c61ffebf02ca0e86","","","","","","","","","","","","","","","","","","","","","","","","561.999896201276","281.0099994612767","4284.100000023842","","","","","","","","","","","","",""
"","","","","","html-keyboard-response","141","683136","0.0-15.0-1.6","64875be76d98311f043edb55","64d3ef96556dbe1f0e02b5aa","64db8142c61ffebf02ca0e86","","","","","","","","","","","","","","","","","","reconstruct","","","","","","561.999896201276","281.0099994612767","4284.100000023842","","","","","","","","","","61","5","625","250"
"","","","","","html-keyboard-response","142","686161","0.0-15.0-0.7","64875be76d98311f043edb55","64d3ef96556dbe1f0e02b5aa","64db8142c61ffebf02ca0e86","","null","","","","","","","","","","","","","null","","","fallScene","","","","","","","","","","","","false","60.011340000000786","500","510.8711431702997","369.03","8","62","","",""
"","","","","","html-keyboard-response","143","689723","0.0-15.0-1.7","64875be76d98311f043edb55","64d3ef96556dbe1f0e02b5aa","64db8142c61ffebf02ca0e86","","","","","","","","","","","","","","","","","","","","","","","","504.9928945368959","242.99296349560672","3560.399999976158","","","","","","","","","","","","",""
"","","","","","html-keyboard-response","143","689723","0.0-15.0-1.7","64875be76d98311f043edb55","64d3ef96556dbe1f0e02b5aa","64db8142c61ffebf02ca0e86","","","","","","","","","","","","","","","","","","reconstruct","","","","","","504.9928945368959","242.99296349560672","3560.399999976158","","","","","","","","","","62","5","625","250"
"","","","","","html-keyboard-response","144","692758","0.0-15.0-0.8","64875be76d98311f043edb55","64d3ef96556dbe1f0e02b5aa","64db8142c61ffebf02ca0e86","","null","","","","","","","","","","","","","null","","","fallScene","","","","","","","","","","","","true","60.00587999999989","322.3","379.3711431702997","245.25","1","63","","",""
"","","","","","html-keyboard-response","145","696337","0.0-15.0-1.8","64875be76d98311f043edb55","64d3ef96556dbe1f0e02b5aa","64db8142c61ffebf02ca0e86","","","","","","","","","","","","","","","","","","","","","","","","654.9928144361029","285.00695468701525","3579","","","","","","","","","","","","",""
"","","","","","html-keyboard-response","145","696337","0.0-15.0-1.8","64875be76d98311f043edb55","64d3ef96556dbe1f0e02b5aa","64db8142c61ffebf02ca0e86","","","","","","","","","","","","","","","","","","reconstruct","","","","","","654.9928144361029","285.00695468701525","3579","","","","","","","","","","63","3","500","250"
"","","","","","html-keyboard-response","146","699362","0.0-15.0-0.9","64875be76d98311f043edb55","64d3ef96556dbe1f0e02b5aa","64db8142c61ffebf02ca0e86","","null","","","","","","","","","","","","","null","","","fallScene","","","","","","","","","","","","true","60.00912000000012","500","479.92114317029973","330.87","6","64","","",""
"","","","","","html-keyboard-response","147","703301","0.0-15.0-1.9","64875be76d98311f043edb55","64d3ef96556dbe1f0e02b5aa","64db8142c61ffebf02ca0e86","","","","","","","","","","","","","","","","","","","","","","","","498.9928931390277","254.9929649074548","3937.5","","","","","","","","","","","","",""
"","","","","","html-keyboard-response","147","703301","0.0-15.0-1.9","64875be76d98311f043edb55","64d3ef96556dbe1f0e02b5aa","64db8142c61ffebf02ca0e86","","","","","","","","","","","","","","","","","","reconstruct","","","","","","498.9928931390277","254.9929649074548","3937.5","","","","","","","","","","64","6","625","350"
"","","","","","html-keyboard-response","148","706316","0.0-15.0-0.10","64875be76d98311f043edb55","64d3ef96556dbe1f0e02b5aa","64db8142c61ffebf02ca0e86","","null","","","","","","","","","","","","","null","","","fallScene","","","","","","","","","","","","false","51.004589999998345","604.4000000000001","650.0211431702996","404.58000000000004","11","65","","",""
"","","","","","html-keyboard-response","149","709503","0.0-15.0-1.10","64875be76d98311f043edb55","64d3ef96556dbe1f0e02b5aa","64db8142c61ffebf02ca0e86","","","","","","","","","","","","","","","","","","","","","","","","603.99","301.9999999817908","3185.5","","","","","","","","","","","","",""
"","","","","","html-keyboard-response","149","709503","0.0-15.0-1.10","64875be76d98311f043edb55","64d3ef96556dbe1f0e02b5aa","64db8142c61ffebf02ca0e86","","","","","","","","","","","","","","","","","","reconstruct","","","","","","603.99","301.9999999817908","3185.5","","","","","","","","","","65","4","500","350"
"","","","","","html-keyboard-response","150","712536","0.0-15.0-0.11","64875be76d98311f043edb55","64d3ef96556dbe1f0e02b5aa","64db8142c61ffebf02ca0e86","","null","","","","","","","","","","","","","null","","","fallScene","","","","","","","","","","","","false","60.01379999999888","500","510.8711431702997","369.03","8","66","","",""
"","","","","","html-keyboard-response","151","715862","0.0-15.0-1.11","64875be76d98311f043edb55","64d3ef96556dbe1f0e02b5aa","64db8142c61ffebf02ca0e86","","","","","","","","","","","","","","","","","","","","","","","","463.99000080063246","312.9998734614383","3324.7999999523163","","","","","","","","","","","","",""
"","","","","","html-keyboard-response","151","715862","0.0-15.0-1.11","64875be76d98311f043edb55","64d3ef96556dbe1f0e02b5aa","64db8142c61ffebf02ca0e86","","","","","","","","","","","","","","","","","","reconstruct","","","","","","463.99000080063246","312.9998734614383","3324.7999999523163","","","","","","","","","","66","3","500","250"
"","","","","","html-keyboard-response","152","718887","0.0-15.0-0.12","64875be76d98311f043edb55","64d3ef96556dbe1f0e02b5aa","64db8142c61ffebf02ca0e86","","null","","","","","","","","","","","","","null","","","fallScene","","","","","","","","","","","","true","60.00407999999821","604.4000000000001","667.6211431702998","201.78","9","67","","",""
"","","","","","html-keyboard-response","153","722875","0.0-15.0-1.12","64875be76d98311f043edb55","64d3ef96556dbe1f0e02b5aa","64db8142c61ffebf02ca0e86","","","","","","","","","","","","","","","","","","","","","","","","320.0099995101993","283.99990102639384","3981.600000023842","","","","","","","","","","","","",""
"","","","","","html-keyboard-response","153","722875","0.0-15.0-1.12","64875be76d98311f043edb55","64d3ef96556dbe1f0e02b5aa","64db8142c61ffebf02ca0e86","","","","","","","","","","","","","","","","","","reconstruct","","","","","","320.0099995101993","283.99990102639384","3981.600000023842","","","","","","","","","","67","6","625","350"
"","","","","","html-keyboard-response","154","725919","0.0-15.0-0.13","64875be76d98311f043edb55","64d3ef96556dbe1f0e02b5aa","64db8142c61ffebf02ca0e86","","null","","","","","","","","","","","","","null","","","fallScene","","","","","","","","","","","","true","61.978500999998076","604.4000000000001","650.0211431702996","404.58000000000004","11","68","","",""
"","","","","","html-keyboard-response","155","729375","0.0-15.0-1.13","64875be76d98311f043edb55","64d3ef96556dbe1f0e02b5aa","64db8142c61ffebf02ca0e86","","","","","","","","","","","","","","","","","","","","","","","","335.00999999913137","298.0000041680899","3455.7999999523163","","","","","","","","","","","","",""
"","","","","","html-keyboard-response","155","729375","0.0-15.0-1.13","64875be76d98311f043edb55","64d3ef96556dbe1f0e02b5aa","64db8142c61ffebf02ca0e86","","","","","","","","","","","","","","","","","","reconstruct","","","","","","335.00999999913137","298.0000041680899","3455.7999999523163","","","","","","","","","","68","3","500","250"
"","","","","","html-keyboard-response","156","732390","0.0-15.0-0.14","64875be76d98311f043edb55","64d3ef96556dbe1f0e02b5aa","64db8142c61ffebf02ca0e86","","null","","","","","","","","","","","","","null","","","fallScene","","","","","","","","","","","","false","62.00631699999841","322.3","296.07114317029976","371.46","3","69","","",""
"","","","","","html-keyboard-response","157","736362","0.0-15.0-1.14","64875be76d98311f043edb55","64d3ef96556dbe1f0e02b5aa","64db8142c61ffebf02ca0e86","","","","","","","","","","","","","","","","","","","","","","","","307.9900000025368","296.9999928770372","3970.899999976158","","","","","","","","","","","","",""
"","","","","","html-keyboard-response","157","736362","0.0-15.0-1.14","64875be76d98311f043edb55","64d3ef96556dbe1f0e02b5aa","64db8142c61ffebf02ca0e86","","","","","","","","","","","","","","","","","","reconstruct","","","","","","307.9900000025368","296.9999928770372","3970.899999976158","","","","","","","","","","69","5","625","250"
"","","","","","html-keyboard-response","158","739383","0.0-15.0-0.15","64875be76d98311f043edb55","64d3ef96556dbe1f0e02b5aa","64db8142c61ffebf02ca0e86","","null","","","","","","","","","","","","","null","","","fallScene","","","","","","","","","","","","false","60.00900000000139","322.3","356.42114317029973","357.87","4","70","","",""
"","","","","","html-keyboard-response","159","743127","0.0-15.0-1.15","64875be76d98311f043edb55","64d3ef96556dbe1f0e02b5aa","64db8142c61ffebf02ca0e86","","","","","","","","","","","","","","","","","","","","","","","","336.99000151716837","298.00017418687116","3743.3000000715256","","","","","","","","","","","","",""
"","","","","","html-keyboard-response","159","743127","0.0-15.0-1.15","64875be76d98311f043edb55","64d3ef96556dbe1f0e02b5aa","64db8142c61ffebf02ca0e86","","","","","","","","","","","","","","","","","","reconstruct","","","","","","336.99000151716837","298.00017418687116","3743.3000000715256","","","","","","","","","","70","3","500","250"
"","","","","","html-keyboard-response","160","746165","0.0-15.0-0.16","64875be76d98311f043edb55","64d3ef96556dbe1f0e02b5aa","64db8142c61ffebf02ca0e86","","null","","","","","","","","","","","","","null","","","fallScene","","","","","","","","","","","","false","62.00802500000142","322.3","296.07114317029976","371.46","3","71","","",""
"","","","","","html-keyboard-response","161","750193","0.0-15.0-1.16","64875be76d98311f043edb55","64d3ef96556dbe1f0e02b5aa","64db8142c61ffebf02ca0e86","","","","","","","","","","","","","","","","","","","","","","","","318.0099999999988","327.00000015376463","4028","","","","","","","","","","","","",""
"","","","","","html-keyboard-response","161","750193","0.0-15.0-1.16","64875be76d98311f043edb55","64d3ef96556dbe1f0e02b5aa","64db8142c61ffebf02ca0e86","","","","","","","","","","","","","","","","","","reconstruct","","","","","","318.0099999999988","327.00000015376463","4028","","","","","","","","","","71","1","375","250"
"","","","","","html-keyboard-response","162","753210","0.0-15.0-0.17","64875be76d98311f043edb55","64d3ef96556dbe1f0e02b5aa","64db8142c61ffebf02ca0e86","","null","","","","","","","","","","","","","null","","","fallScene","","","","","","","","","","","","false","62.017419000000224","322.3","356.42114317029973","357.87","4","72","","",""
"","","","","","html-keyboard-response","163","760814","0.0-15.0-1.17","64875be76d98311f043edb55","64d3ef96556dbe1f0e02b5aa","64db8142c61ffebf02ca0e86","","","","","","","","","","","","","","","","","","","","","","","","330.990000186255","287.0000610333052","7602.300000071526","","","","","","","","","","","","",""
"","","","","","html-keyboard-response","163","760814","0.0-15.0-1.17","64875be76d98311f043edb55","64d3ef96556dbe1f0e02b5aa","64db8142c61ffebf02ca0e86","","","","","","","","","","","","","","","","","","reconstruct","","","","","","330.990000186255","287.0000610333052","7602.300000071526","","","","","","","","","","72","6","625","350"
"","","","","","survey-text","164","799712","0.0-16.0","64875be76d98311f043edb55","64d3ef96556dbe1f0e02b5aa","64db8142c61ffebf02ca0e86","","38887","","","","","","","","","","","","","{""Summary"":""moving triangles to where I imagined the ball hit it behind the gray screen.""}","","","","","","","","","","","","","","","","","","","","","","","",""
"","","","","","survey-text","165","803085","0.0-17.0","64875be76d98311f043edb55","64d3ef96556dbe1f0e02b5aa","64db8142c61ffebf02ca0e86","","3369","","","","","","","","","","","","","{""Comments"":""""}","","","","","","","","","","","","","","","","","","","","","","","",""
