"success","timeout","failed_images","failed_audio","failed_video","trial_type","trial_index","time_elapsed","internal_node_id","subject_id","study_id","session_id","rt","url","response","view_history","triangle_prac_final_x","triangle_prac_final_y","trial_name","stimulus","ball_X_prac_occ","ball_Y_prac_occ","obstacle_X_prac_occ","obstacle_Y_prac_occ","triangle_final_x","triangle_final_y","response_time","obstacle_X_prac_occ_init","obstacle_Y_prac_occ_init","question_order","flipped","ball_X","obstacle_groundTruth_x","obstacle_groundTruth_y","stimulus_idx","obstacle_idx","obstacle_initial_x","obstacle_initial_y","final_to_initial_distance","initial_to_groundTruth_distance","final_to_groundTruth_distance","finalInBetweenInitGround"
"true","false","[]","[]","[]","preload","0","108","0.0-0.0","","","","","","","","","","","","","","","","","","","","","","","","","","","","","","","","",""
"","","","","","external-html","1","8926","0.0-1.0","","","","8691","consent.html","","","","","","","","","","","","","","","","","","","","","","","","","","","",""
"true","","","","","fullscreen","2","41065","0.0-2.0","","","","31636","","","","","","","","","","","","","","","","","","","","","","","","","","","","",""
"","","","","","survey-text","3","82481","0.0-3.0","","","","41412","","{""prolificID"":""fan""}","","","","","","","","","","","","","","","","","","","","","","","","","","",""
"","","","","","instructions","4","163637","0.0-4.0-0.0-0.0","","","","81156","","","[{""page_index"":0,""viewing_time"":35643},{""page_index"":1,""viewing_time"":20804},{""page_index"":2,""viewing_time"":13928},{""page_index"":3,""viewing_time"":10780}]","","","","","","","","","","","","","","","","","","","","","","","","","",""
"","","","","","html-keyboard-response","5","175668","0.0-4.0-0.0-1.0","","","","","","","","487.00999999995315","364.99999903190303","","","","","","","","","","","","","","","","","","","","","","","",""
"","","","","","html-keyboard-response","5","175668","0.0-4.0-0.0-1.0","","","","","","","","","","practiceTrial_move","","","","","","","","","","","","","","","","","","","","","","",""
"","","","","","html-button-response","6","242779","0.0-4.0-0.0-2.0","","","","67109","","0","","","","","<p>To help you get more comfortable with the task, let's begin with a practice trial first!</p><p>As described previously, you will first see a video of a ball falling, some of it behind a gray screen.</p><p>After the video, you will drag a triangle to the spot you think the ball hit the triangle behind the screen.</p><p>Click 'Next' to start your practice trial.</p>","","","","","","","","","","","","","","","","","","","","","",""
"","","","","","html-keyboard-response","7","245783","0.0-4.0-0.0-3.0","","","","null","","null","","","","fallScene_practiceTrial_withOccluder","","400","50","420","415","","","","","","","","","","","","","","","","","",""
"","","","","","html-keyboard-response","8","250338","0.0-4.0-0.0-4.0","","","","","","","","","","","","","","","","433.0022827198202","335.0097359740254","4554.199999988079","","","","","","","","","","","","","","",""
"","","","","","html-keyboard-response","8","250338","0.0-4.0-0.0-4.0","","","","","","","","","","reconstruct_practiceTrial_withOccluder","","","","","","433.0022827198202","335.0097359740254","4554.199999988079","500","300","","","","","","","","","","","","",""
"","","","","","html-button-response","9","261100","0.0-4.0-0.0-5.0","","","","10759","","1","","","","","<p>Ok! We're almost ready to get started.</p><p>We just have a <b>brief quiz</b>, to make sure you understood the task.</p><p>If you need to review the instructions, click 'Previous'.</p><p>It's important to understand the task to do the study, so you have to pass the quiz to move to the study.</p>","","","","","","","","","","","","","","","","","","","","","",""
"","","","","","survey-multi-choice","10","276644","0.0-4.0-1.0-0.0","","","","15543","","{""generalProcedure"":""Watch a video of a ball falling, some of it behind a gray screen. After each video, drag a triangle to where I think the ball hit the triangle behind the screen.""}","","","","","","","","","","","","","","","[0]","","","","","","","","","","","",""
"","","","","","survey-multi-choice","11","282133","0.0-4.0-1.0-1.0","","","","5487","","{""checkBallHitObstacle"":""Yes.""}","","","","","","","","","","","","","","","[0]","","","","","","","","","","","",""
"","","","","","survey-multi-choice","12","289833","0.0-4.0-1.0-2.0","","","","7698","","{""checkTriangleVisibility"":""No, the triangle is hidden behind the gray screen.""}","","","","","","","","","","","","","","","[0]","","","","","","","","","","","",""
"","","","","","instructions","13","306395","0.0-5.0","","","","16561","","","[{""page_index"":0,""viewing_time"":16561}]","","","","","","","","","","","","","","","","","","","","","","","","","",""
"","","","","","html-keyboard-response","14","309402","0.0-6.0-0.0","","","","null","","null","","","","fallScene","","","","","","","","","","","","true","604.4000000000001","596.8711431702998","394.5","10","","","","","","",""
"","","","","","html-keyboard-response","15","317044","0.0-6.0-1.0","","","","","","","","","","","","","","","","399.00707111489777","286.0070710207256","7640.199999988079","","","","","","","","","","","","","","",""
"","","","","","html-keyboard-response","15","317044","0.0-6.0-1.0","","","","","","","","","","reconstruct","","","","","","399.00707111489777","286.0070710207256","7640.199999988079","","","","","","","","","2","375","350","68.3478926000079","226.28975710733275","225.65661224268877","true"
"","","","","","html-keyboard-response","16","320048","0.0-6.0-0.1","","","","null","","null","","","","fallScene","","","","","","","","","","","","false","604.4000000000001","667.6211431702998","201.78","9","","","","","","",""
"","","","","","html-keyboard-response","17","323124","0.0-6.0-1.1","","","","","","","","","","","","","","","","633.9985237310964","306.00989043124054","3074.5","","","","","","","","","","","","","","",""
"","","","","","html-keyboard-response","17","323124","0.0-6.0-1.1","","","","","","","","","","reconstruct","","","","","","633.9985237310964","306.00989043124054","3074.5","","","","","","","","","3","500","250","145.23330261421714","174.4190816330545","109.51872258779274","true"
"","","","","","html-keyboard-response","18","326126","0.0-6.0-0.2","","","","null","","null","","","","fallScene","","","","","","","","","","","","false","500","553.4711431702997","282.51","7","","","","","","",""
"","","","","","html-keyboard-response","19","328909","0.0-6.0-1.2","","","","","","","","","","","","","","","","504.0000428466328","300.9900000917921","2782.300000011921","","","","","","","","","","","","","","",""
"","","","","","html-keyboard-response","19","328909","0.0-6.0-1.2","","","","","","","","","","reconstruct","","","","","","504.0000428466328","300.9900000917921","2782.300000011921","","","","","","","","","3","500","250","51.14665631432674","62.57845677178917","52.810038540290314","true"
"","","","","","html-keyboard-response","20","331914","0.0-6.0-0.3","","","","null","","null","","","","fallScene","","","","","","","","","","","","true","604.4000000000001","596.8711431702998","394.5","10","","","","","","",""
"","","","","","html-keyboard-response","21","336043","0.0-6.0-1.3","","","","","","","","","","","","","","","","414.00999950018746","270.99990001999845","4128.100000023842","","","","","","","","","","","","","","",""
"","","","","","html-keyboard-response","21","336043","0.0-6.0-1.3","","","","","","","","","","reconstruct","","","","","","414.00999950018746","270.99990001999845","4128.100000023842","","","","","","","","","6","625","350","225.29490919184377","52.64487236707649","220.6591773740939","false"
"","","","","","html-keyboard-response","22","339058","0.0-6.0-0.4","","","","null","","null","","","","fallScene","","","","","","","","","","","","true","604.4000000000001","575.4211431702997","266.76","12","","","","","","",""
"","","","","","html-keyboard-response","23","342143","0.0-6.0-1.4","","","","","","","","","","","","","","","","391.01","308.9999999999997","3084.199999988079","","","","","","","","","","","","","","",""
"","","","","","html-keyboard-response","23","342143","0.0-6.0-1.4","","","","","","","","","","reconstruct","","","","","","391.01","308.9999999999997","3084.199999988079","","","","","","","","","5","625","250","241.3137379015127","52.33508043884061","189.18691108366022","false"
"","","","","","html-keyboard-response","24","345144","0.0-6.0-0.5","","","","null","","null","","","","fallScene","","","","","","","","","","","","true","604.4000000000001","596.8711431702998","394.5","10","","","","","","",""
"","","","","","html-keyboard-response","25","349605","0.0-6.0-1.5","","","","","","","","","","","","","","","","422.01","294","4459.199999988079","","","","","","","","","","","","","","",""
"","","","","","html-keyboard-response","25","349605","0.0-6.0-1.5","","","","","","","","","","reconstruct","","","","","","422.01","294","4459.199999988079","","","","","","","","","5","625","250","207.70397227785512","147.21237239629613","201.6845789613675","false"
"","","","","","html-keyboard-response","26","352607","0.0-6.0-0.6","","","","null","","null","","","","fallScene","","","","","","","","","","","","false","604.4000000000001","650.0211431702996","404.58000000000004","11","","","","","","",""
"","","","","","html-keyboard-response","27","356149","0.0-6.0-1.6","","","","","","","","","","","","","","","","655.9900004999625","285.99990000499963","3541","","","","","","","","","","","","","","",""
"","","","","","html-keyboard-response","27","356149","0.0-6.0-1.6","","","","","","","","","","reconstruct","","","","","","655.9900004999625","285.99990000499963","3541","","","","","","","","","2","375","350","288.18638618147634","280.384745645512","118.73022939692387","false"
"","","","","","html-keyboard-response","28","359153","0.0-6.0-0.7","","","","null","","null","","","","fallScene","","","","","","","","","","","","true","322.3","308.07114317029976","253.89","2","","","","","","",""
"","","","","","html-keyboard-response","29","362273","0.0-6.0-1.7","","","","","","","","","","","","","","","","660","247.01","3119.2999999821186","","","","","","","","","","","","","","",""
"","","","","","html-keyboard-response","29","362273","0.0-6.0-1.7","","","","","","","","","","reconstruct","","","","","","660","247.01","3119.2999999821186","","","","","","","","","6","625","350","108.77472178773891","331.1812681770825","351.99610036115405","false"
"","","","","","html-keyboard-response","30","365277","0.0-6.0-0.8","","","","null","","null","","","","fallScene","","","","","","","","","","","","true","322.3","379.3711431702997","245.25","1","","","","","","",""
"","","","","","html-keyboard-response","31","368884","0.0-6.0-1.8","","","","","","","","","","","","","","","","631.0000999949896","293.0099995000376","3606.4000000059605","","","","","","","","","","","","","","",""
"","","","","","html-keyboard-response","31","368884","0.0-6.0-1.8","","","","","","","","","","reconstruct","","","","","","631.0000999949896","293.0099995000376","3606.4000000059605","","","","","","","","","4","500","350","142.85967365104463","159.76195917689645","256.1213569090349","false"
"","","","","","html-keyboard-response","32","371887","0.0-6.0-0.9","","","","null","","null","","","","fallScene","","","","","","","","","","","","false","500","453.67114317029973","210.33","5","","","","","","",""
"","","","","","html-keyboard-response","33","375126","0.0-6.0-1.9","","","","","","","","","","","","","","","","519","267.99","3237.7000000178814","","","","","","","","","","","","","","",""
"","","","","","html-keyboard-response","33","375126","0.0-6.0-1.9","","","","","","","","","","reconstruct","","","","","","519","267.99","3237.7000000178814","","","","","","","","","4","500","350","84.18218398212295","147.15322584009792","87.13515441356304","true"
"","","","","","html-keyboard-response","34","378129","0.0-6.0-0.10","","","","null","","null","","","","fallScene","","","","","","","","","","","","false","500","453.67114317029973","210.33","5","","","","","","",""
"","","","","","html-keyboard-response","35","381580","0.0-6.0-1.10","","","","","","","","","","","","","","","","502.99000049837383","256.00009983600506","3450.800000011921","","","","","","","","","","","","","","",""
"","","","","","html-keyboard-response","35","381580","0.0-6.0-1.10","","","","","","","","","","reconstruct","","","","","","502.99000049837383","256.00009983600506","3450.800000011921","","","","","","","","","2","375","350","158.79994161968307","160.30239445411223","67.2168707035488","true"
"","","","","","html-keyboard-response","36","384587","0.0-6.0-0.11","","","","null","","null","","","","fallScene","","","","","","","","","","","","false","322.3","296.07114317029976","371.46","3","","","","","","",""
"","","","","","html-keyboard-response","37","388210","0.0-6.0-1.11","","","","","","","","","","","","","","","","275.99","260","3622.5","","","","","","","","","","","","","","",""
"","","","","","html-keyboard-response","37","388210","0.0-6.0-1.11","","","","","","","","","","reconstruct","","","","","","275.99","260","3622.5","","","","","","","","","2","375","350","133.8020182956894","81.79422987254857","113.25450945117406","false"
"","","","","","html-keyboard-response","38","391214","0.0-6.0-0.12","","","","null","","null","","","","fallScene","","","","","","","","","","","","false","500","479.92114317029973","330.87","6","","","","","","",""
"","","","","","html-keyboard-response","39","396670","0.0-6.0-1.12","","","","","","","","","","","","","","","","501","251.01000000000002","5455.299999982119","","","","","","","","","","","","","","",""
"","","","","","html-keyboard-response","39","396670","0.0-6.0-1.12","","","","","","","","","","reconstruct","","","","","","501","251.01000000000002","5455.299999982119","","","","","","","","","4","500","350","98.9950508863953","27.732965791411512","82.59502288423316","false"
"","","","","","html-keyboard-response","40","399675","0.0-6.0-0.13","","","","null","","null","","","","fallScene","","","","","","","","","","","","true","604.4000000000001","575.4211431702997","266.76","12","","","","","","",""
"","","","","","html-keyboard-response","41","403047","0.0-6.0-1.13","","","","","","","","","","","","","","","","372.0070708011758","276.9929286655621","3371.0999999940395","","","","","","","","","","","","","","",""
"","","","","","html-keyboard-response","41","403047","0.0-6.0-1.13","","","","","","","","","","reconstruct","","","","","","372.0070708011758","276.9929286655621","3371.0999999940395","","","","","","","","","3","500","250","130.808287668784","77.26089850056657","203.671298092946","false"
"","","","","","html-keyboard-response","42","406051","0.0-6.0-0.14","","","","null","","null","","","","fallScene","","","","","","","","","","","","true","322.3","379.3711431702997","245.25","1","","","","","","",""
"","","","","","html-keyboard-response","43","417648","0.0-6.0-1.14","","","","","","","","","","","","","","","","671","237.99","11595.700000017881","","","","","","","","","","","","","","",""
"","","","","","html-keyboard-response","43","417648","0.0-6.0-1.14","","","","","","","","","","reconstruct","","","","","","671","237.99","11595.700000017881","","","","","","","","","2","375","350","316.4841861768136","104.84116268248488","291.71921043324835","false"
"","","","","","html-keyboard-response","44","420655","0.0-6.0-0.15","","","","null","","null","","","","fallScene","","","","","","","","","","","","false","604.4000000000001","575.4211431702997","266.76","12","","","","","","",""
"","","","","","html-keyboard-response","45","424992","0.0-6.0-1.15","","","","","","","","","","","","","","","","633.0099994613405","290.00010379257975","4336.5","","","","","","","","","","","","","","",""
"","","","","","html-keyboard-response","45","424992","0.0-6.0-1.15","","","","","","","","","","reconstruct","","","","","","633.0099994613405","290.00010379257975","4336.5","","","","","","","","","4","500","350","145.91657719946355","112.32651707016848","62.101359028607625","false"
"","","","","","html-keyboard-response","46","427998","0.0-6.0-0.16","","","","null","","null","","","","fallScene","","","","","","","","","","","","false","604.4000000000001","596.8711431702998","394.5","10","","","","","","",""
"","","","","","html-keyboard-response","47","432705","0.0-6.0-1.16","","","","","","","","","","","","","","","","580.9999842688837","232.0099999876266","4705.899999976158","","","","","","","","","","","","","","",""
"","","","","","html-keyboard-response","47","432705","0.0-6.0-1.16","","","","","","","","","","reconstruct","","","","","","580.9999842688837","232.0099999876266","4705.899999976158","","","","","","","","","4","500","350","143.1175654994148","106.60332255197638","163.26326527696028","false"
"","","","","","html-keyboard-response","48","435708","0.0-6.0-0.17","","","","null","","null","","","","fallScene","","","","","","","","","","","","false","500","453.67114317029973","210.33","5","","","","","","",""
"","","","","","html-keyboard-response","49","439076","0.0-6.0-1.17","","","","","","","","","","","","","","","","506.00999999970026","227.0000024483439","3367.100000023842","","","","","","","","","","","","","","",""
"","","","","","html-keyboard-response","49","439076","0.0-6.0-1.17","","","","","","","","","","reconstruct","","","","","","506.00999999970026","227.0000024483439","3367.100000023842","","","","","","","","","6","625","350","171.13626003211223","221.04589134967412","54.92945399179094","true"
"","","","","","html-button-response","50","490002","0.0-7.0","","","","50924","","0","","","","","<p><span style = ""font-size:40px;"">BREAK</span></p><p>You are doing great! Click 'Next' when you are ready for the next set.</p>","","","","","","","","","","","","","","","","","","","","","",""
"","","","","","html-keyboard-response","51","493006","0.0-8.0-0.0","","","","null","","null","","","","fallScene","","","","","","","","","","","","false","322.3","296.07114317029976","371.46","3","","","","","","",""
"","","","","","html-keyboard-response","52","497592","0.0-8.0-1.0","","","","","","","","","","","","","","","","315.9900002541552","296.0000712954306","4585.9000000059605","","","","","","","","","","","","","","",""
"","","","","","html-keyboard-response","52","497592","0.0-8.0-1.0","","","","","","","","","","reconstruct","","","","","","315.9900002541552","296.0000712954306","4585.9000000059605","","","","","","","","","5","625","250","312.4150868669945","350.6375970361613","78.044613572147","true"
"","","","","","html-keyboard-response","53","500597","0.0-8.0-0.1","","","","null","","null","","","","fallScene","","","","","","","","","","","","false","322.3","379.3711431702997","245.25","1","","","","","","",""
"","","","","","html-keyboard-response","54","504007","0.0-8.0-1.1","","","","","","","","","","","","","","","","337.00000450151","277.0099999989868","3409","","","","","","","","","","","","","","",""
"","","","","","html-keyboard-response","54","504007","0.0-8.0-1.1","","","","","","","","","","reconstruct","","","","","","337.00000450151","277.0099999989868","3409","","","","","","","","","6","625","350","297.10526334496024","267.03201644646543","52.952912970161066","false"
"","","","","","html-keyboard-response","55","507022","0.0-8.0-0.2","","","","null","","null","","","","fallScene","","","","","","","","","","","","false","322.3","308.07114317029976","253.89","2","","","","","","",""
"","","","","","html-keyboard-response","56","513793","0.0-8.0-1.2","","","","","","","","","","","","","","","","280.9998998675842","216.0099994986624","6771","","","","","","","","","","","","","","",""
"","","","","","html-keyboard-response","56","513793","0.0-8.0-1.2","","","","","","","","","","reconstruct","","","","","","280.9998998675842","216.0099994986624","6771","","","","","","","","","2","375","350","163.67449116845498","117.11790630185682","46.55906627002047","false"
"","","","","","html-keyboard-response","57","516800","0.0-8.0-0.3","","","","null","","null","","","","fallScene","","","","","","","","","","","","false","500","453.67114317029973","210.33","5","","","","","","",""
"","","","","","html-keyboard-response","58","520890","0.0-8.0-1.3","","","","","","","","","","","","","","","","492.01","237","4088.5","","","","","","","","","","","","","","",""
"","","","","","html-keyboard-response","58","520890","0.0-8.0-1.3","","","","","","","","","","reconstruct","","","","","","492.01","237","4088.5","","","","","","","","","5","625","250","133.62387548638156","175.86155373637507","46.70285690413654","true"
"","","","","","html-keyboard-response","59","523894","0.0-8.0-0.4","","","","null","","null","","","","fallScene","","","","","","","","","","","","true","322.3","379.3711431702997","245.25","1","","","","","","",""
"","","","","","html-keyboard-response","60","528180","0.0-8.0-1.4","","","","","","","","","","","","","","","","647.0099995001874","230.99990001999245","4286.5999999940395","","","","","","","","","","","","","","",""
"","","","","","html-keyboard-response","60","528180","0.0-8.0-1.4","","","","","","","","","","reconstruct","","","","","","647.0099995001874","230.99990001999245","4286.5999999940395","","","","","","","","","1","375","250","272.672777569273","6.455183391295546","268.01795232224737","false"
"","","","","","html-keyboard-response","61","531186","0.0-8.0-0.5","","","","null","","null","","","","fallScene","","","","","","","","","","","","true","322.3","379.3711431702997","245.25","1","","","","","","",""
"","","","","","html-keyboard-response","62","534274","0.0-8.0-1.5","","","","","","","","","","","","","","","","648.0000000000053","246.01","3087","","","","","","","","","","","","","","",""
"","","","","","html-keyboard-response","62","534274","0.0-8.0-1.5","","","","","","","","","","reconstruct","","","","","","648.0000000000053","246.01","3087","","","","","","","","","5","625","250","23.343523727154945","245.67478056867253","268.6299319168184","false"
"","","","","","html-keyboard-response","63","537279","0.0-8.0-0.6","","","","null","","null","","","","fallScene","","","","","","","","","","","","false","322.3","296.07114317029976","371.46","3","","","","","","",""
"","","","","","html-keyboard-response","64","551500","0.0-8.0-1.6","","","","","","","","","","","","","","","","288","236.01","14220.300000011921","","","","","","","","","","","","","","",""
"","","","","","html-keyboard-response","64","551500","0.0-8.0-1.6","","","","","","","","","","reconstruct","","","","","","288","236.01","14220.300000011921","","","","","","","","","1","375","250","88.11764919696849","144.8526701184459","135.69025702708163","true"
"","","","","","html-keyboard-response","65","554503","0.0-8.0-0.7","","","","null","","null","","","","fallScene","","","","","","","","","","","","true","322.3","308.07114317029976","253.89","2","","","","","","",""
"","","","","","html-keyboard-response","66","561177","0.0-8.0-1.7","","","","","","","","","","","","","","","","687.9900000000091","212.00000042765876","6672.899999976158","","","","","","","","","","","","","","",""
"","","","","","html-keyboard-response","66","561177","0.0-8.0-1.7","","","","","","","","","","reconstruct","","","","","","687.9900000000091","212.00000042765876","6672.899999976158","","","","","","","","","4","500","350","233.20428808658215","214.64812643942545","382.2212838644179","false"
"","","","","","html-keyboard-response","67","564181","0.0-8.0-0.8","","","","null","","null","","","","fallScene","","","","","","","","","","","","false","604.4000000000001","667.6211431702998","201.78","9","","","","","","",""
"","","","","","html-keyboard-response","68","569974","0.0-8.0-1.8","","","","","","","","","","","","","","","","616.01","260.0000000098133","5792","","","","","","","","","","","","","","",""
"","","","","","html-keyboard-response","68","569974","0.0-8.0-1.8","","","","","","","","","","reconstruct","","","","","","616.01","260.0000000098133","5792","","","","","","","","","2","375","350","257.2660492529739","328.0187522540336","77.8028180754903","true"
"","","","","","html-keyboard-response","69","572979","0.0-8.0-0.9","","","","null","","null","","","","fallScene","","","","","","","","","","","","true","322.3","296.07114317029976","371.46","3","","","","","","",""
"","","","","","html-keyboard-response","70","576732","0.0-8.0-1.9","","","","","","","","","","","","","","","","718.0000999949923","252.99000049996243","3752.800000011921","","","","","","","","","","","","","","",""
"","","","","","html-keyboard-response","70","576732","0.0-8.0-1.9","","","","","","","","","","reconstruct","","","","","","718.0000999949923","252.99000049996243","3752.800000011921","","","","","","","","","4","500","350","238.6105270117476","205.05489569349075","438.2455765763211","false"
"","","","","","html-keyboard-response","71","579735","0.0-8.0-0.10","","","","null","","null","","","","fallScene","","","","","","","","","","","","true","322.3","356.42114317029973","357.87","4","","","","","","",""
"","","","","","html-keyboard-response","72","584528","0.0-8.0-1.10","","","","","","","","","","","","","","","","655.0030761098061","252.99048487790614","4792.600000023842","","","","","","","","","","","","","","",""
"","","","","","html-keyboard-response","72","584528","0.0-8.0-1.10","","","","","","","","","","reconstruct","","","","","","655.0030761098061","252.99048487790614","4792.600000023842","","","","","","","","","6","625","350","101.54324497609171","268.69413695864046","316.46624365031005","false"
"","","","","","html-keyboard-response","73","587531","0.0-8.0-0.11","","","","null","","null","","","","fallScene","","","","","","","","","","","","true","604.4000000000001","650.0211431702996","404.58000000000004","11","","","","","","",""
"","","","","","html-keyboard-response","74","598794","0.0-8.0-1.11","","","","","","","","","","","","","","","","363.99","324.0000000000007","11262.09999999404","","","","","","","","","","","","","","",""
"","","","","","html-keyboard-response","74","598794","0.0-8.0-1.11","","","","","","","","","","reconstruct","","","","","","363.99","324.0000000000007","11262.09999999404","","","","","","","","","5","625","250","271.2972909927412","156.59193467592334","297.1648553636657","false"
"","","","","","html-keyboard-response","75","601803","0.0-8.0-0.12","","","","null","","null","","","","fallScene","","","","","","","","","","","","false","322.3","308.07114317029976","253.89","2","","","","","","",""
"","","","","","html-keyboard-response","76","607825","0.0-8.0-1.12","","","","","","","","","","","","","","","","317.99","203","6021.5999999940395","","","","","","","","","","","","","","",""
"","","","","","html-keyboard-response","76","607825","0.0-8.0-1.12","","","","","","","","","","reconstruct","","","","","","317.99","203","6021.5999999940395","","","","","","","","","5","625","250","310.5867674257871","316.9527289539887","51.847621168266635","true"
"","","","","","html-keyboard-response","77","610829","0.0-8.0-0.13","","","","null","","null","","","","fallScene","","","","","","","","","","","","false","322.3","356.42114317029973","357.87","4","","","","","","",""
"","","","","","html-keyboard-response","78","614116","0.0-8.0-1.13","","","","","","","","","","","","","","","","364.00999999997606","245.99999930831655","3286.5999999940395","","","","","","","","","","","","","","",""
"","","","","","html-keyboard-response","78","614116","0.0-8.0-1.13","","","","","","","","","","reconstruct","","","","","","364.00999999997606","245.99999930831655","3286.5999999940395","","","","","","","","","4","500","350","171.1995334219012","143.79438455142665","112.12710556657825","false"
"","","","","","html-keyboard-response","79","617121","0.0-8.0-0.14","","","","null","","null","","","","fallScene","","","","","","","","","","","","false","322.3","356.42114317029973","357.87","4","","","","","","",""
"","","","","","html-keyboard-response","80","620348","0.0-8.0-1.14","","","","","","","","","","","","","","","","343.01","239.99999997300245","3225.5","","","","","","","","","","","","","","",""
"","","","","","html-keyboard-response","80","620348","0.0-8.0-1.14","","","","","","","","","","reconstruct","","","","","","343.01","239.99999997300245","3225.5","","","","","","","","","3","500","250","157.30816921107422","179.58514701534637","118.63050057847131","true"
"","","","","","html-keyboard-response","81","623352","0.0-8.0-0.15","","","","null","","null","","","","fallScene","","","","","","","","","","","","false","604.4000000000001","575.4211431702997","266.76","12","","","","","","",""
"","","","","","html-keyboard-response","82","627239","0.0-8.0-1.15","","","","","","","","","","","","","","","","608.9900000000491","256.0000009913398","3886.199999988079","","","","","","","","","","","","","","",""
"","","","","","html-keyboard-response","82","627239","0.0-8.0-1.15","","","","","","","","","","reconstruct","","","","","","608.9900000000491","256.0000009913398","3886.199999988079","","","","","","","","","1","375","250","234.066913748866","201.1206907050833","35.25118051246768","false"
"","","","","","html-keyboard-response","83","630240","0.0-8.0-0.16","","","","null","","null","","","","fallScene","","","","","","","","","","","","false","500","553.4711431702997","282.51","7","","","","","","",""
"","","","","","html-keyboard-response","84","634713","0.0-8.0-1.16","","","","","","","","","","","","","","","","518.9999994944476","278.9900000000128","4471.5","","","","","","","","","","","","","","",""
"","","","","","html-keyboard-response","84","634713","0.0-8.0-1.16","","","","","","","","","","reconstruct","","","","","","518.9999994944476","278.9900000000128","4471.5","","","","","","","","","5","625","250","109.8927668555936","78.57020719944529","34.65039893451657","false"
"","","","","","html-keyboard-response","85","637718","0.0-8.0-0.17","","","","null","","null","","","","fallScene","","","","","","","","","","","","false","500","553.4711431702997","282.51","7","","","","","","",""
"","","","","","html-keyboard-response","86","640938","0.0-8.0-1.17","","","","","","","","","","","","","","","","537.01","254","3219.699999988079","","","","","","","","","","","","","","",""
"","","","","","html-keyboard-response","86","640938","0.0-8.0-1.17","","","","","","","","","","reconstruct","","","","","","537.01","254","3219.699999988079","","","","","","","","","1","375","250","162.05937214490248","181.4079630129659","32.920955856006124","true"
"","","","","","html-button-response","87","771064","0.0-9.0","","","","130130","","0","","","","","<p><span style = ""font-size:40px;"">BREAK</span></p><p>You are halfway done! Click 'Next' when you are ready for the next set.</p>","","","","","","","","","","","","","","","","","","","","","",""
"","","","","","html-keyboard-response","88","774068","0.0-10.0-0.0","","","","null","","null","","","","fallScene","","","","","","","","","","","","true","604.4000000000001","667.6211431702998","201.78","9","","","","","","",""
"","","","","","html-keyboard-response","89","777034","0.0-10.0-1.0","","","","","","","","","","","","","","","","386.9999999998485","267.99","2965.5","","","","","","","","","","","","","","",""
"","","","","","html-keyboard-response","89","777034","0.0-10.0-1.0","","","","","","","","","","reconstruct","","","","","","386.9999999998485","267.99","2965.5","","","","","","","","","5","625","250","238.67894775214697","64.35627588000405","288.32618697282925","false"
"","","","","","html-keyboard-response","90","780045","0.0-10.0-0.1","","","","null","","null","","","","fallScene","","","","","","","","","","","","false","500","510.8711431702997","369.03","8","","","","","","",""
"","","","","","html-keyboard-response","91","785752","0.0-10.0-1.1","","","","","","","","","","","","","","","","536.9999999999002","211.01","5706.0999999940395","","","","","","","","","","","","","","",""
"","","","","","html-keyboard-response","91","785752","0.0-10.0-1.1","","","","","","","","","","reconstruct","","","","","","536.9999999999002","211.01","5706.0999999940395","","","","","","","","","3","500","250","53.75146602645005","119.5254058927605","160.16565661596044","false"
"","","","","","html-keyboard-response","92","788757","0.0-10.0-0.2","","","","null","","null","","","","fallScene","","","","","","","","","","","","false","500","510.8711431702997","369.03","8","","","","","","",""
"","","","","","html-keyboard-response","93","794168","0.0-10.0-1.2","","","","","","","","","","","","","","","","530.9999275171331","285.00999973730825","5410.5999999940395","","","","","","","","","","","","","","",""
"","","","","","html-keyboard-response","93","794168","0.0-10.0-1.2","","","","","","","","","","reconstruct","","","","","","530.9999275171331","285.00999973730825","5410.5999999940395","","","","","","","","","6","625","350","114.27910465578958","115.70452394463331","86.39750229852736","true"
"","","","","","html-keyboard-response","94","797174","0.0-10.0-0.3","","","","null","","null","","","","fallScene","","","","","","","","","","","","false","322.3","379.3711431702997","245.25","1","","","","","","",""
"","","","","","html-keyboard-response","95","800053","0.0-10.0-1.3","","","","","","","","","","","","","","","","334.9900000037589","227.99999132950538","2878.5999999940395","","","","","","","","","","","","","","",""
"","","","","","html-keyboard-response","95","800053","0.0-10.0-1.3","","","","","","","","","","reconstruct","","","","","","334.9900000037589","227.99999132950538","2878.5999999940395","","","","","","","","","3","500","250","166.4701188810212","120.7223409317444","47.615634700181545","false"
"","","","","","html-keyboard-response","96","803057","0.0-10.0-0.4","","","","null","","null","","","","fallScene","","","","","","","","","","","","true","604.4000000000001","650.0211431702996","404.58000000000004","11","","","","","","",""
"","","","","","html-keyboard-response","97","806082","0.0-10.0-1.4","","","","","","","","","","","","","","","","356.9900001009982","295.00004494389634","3024.199999988079","","","","","","","","","","","","","","",""
"","","","","","html-keyboard-response","97","806082","0.0-10.0-1.4","","","","","","","","","","reconstruct","","","","","","356.9900001009982","295.00004494389634","3024.199999988079","","","","","","","","","4","500","350","153.2215883199424","159.6412221142257","312.84983196191604","false"
"","","","","","html-keyboard-response","98","809085","0.0-10.0-0.5","","","","null","","null","","","","fallScene","","","","","","","","","","","","false","322.3","296.07114317029976","371.46","3","","","","","","",""
"","","","","","html-keyboard-response","99","811987","0.0-10.0-1.5","","","","","","","","","","","","","","","","281.01","280","2900.2999999821186","","","","","","","","","","","","","","",""
"","","","","","html-keyboard-response","99","811987","0.0-10.0-1.5","","","","","","","","","","reconstruct","","","","","","281.01","280","2900.2999999821186","","","","","","","","","3","500","250","221.03533676767614","237.3594536728385","92.69179917121183","true"
"","","","","","html-keyboard-response","100","814992","0.0-10.0-0.6","","","","null","","null","","","","fallScene","","","","","","","","","","","","true","322.3","296.07114317029976","371.46","3","","","","","","",""
"","","","","","html-keyboard-response","101","818214","0.0-10.0-1.6","","","","","","","","","","","","","","","","711.0000000147725","283.01","3221.5","","","","","","","","","","","","","","",""
"","","","","","html-keyboard-response","101","818214","0.0-10.0-1.6","","","","","","","","","","reconstruct","","","","","","711.0000000147725","283.01","3221.5","","","","","","","","","6","625","350","109.01220162229944","329.62816089541474","424.2515276840626","false"
"","","","","","html-keyboard-response","102","821219","0.0-10.0-0.7","","","","null","","null","","","","fallScene","","","","","","","","","","","","true","604.4000000000001","650.0211431702996","404.58000000000004","11","","","","","","",""
"","","","","","html-keyboard-response","103","838643","0.0-10.0-1.7","","","","","","","","","","","","","","","","350.9900004999622","321.99990000503016","17423.09999999404","","","","","","","","","","","","","","",""
"","","","","","html-keyboard-response","103","838643","0.0-10.0-1.7","","","","","","","","","","reconstruct","","","","","","350.9900004999622","321.99990000503016","17423.09999999404","","","","","","","","","3","500","250","165.49309819970017","215.40965576808193","310.22426920198706","false"
"","","","","","html-keyboard-response","104","841646","0.0-10.0-0.8","","","","null","","null","","","","fallScene","","","","","","","","","","","","true","604.4000000000001","667.6211431702998","201.78","9","","","","","","",""
"","","","","","html-keyboard-response","105","855112","0.0-10.0-1.8","","","","","","","","","","","","","","","","395.9999000049939","283.99000049996255","13464.40000000596","","","","","","","","","","","","","","",""
"","","","","","html-keyboard-response","105","855112","0.0-10.0-1.8","","","","","","","","","","reconstruct","","","","","","395.9999000049939","283.99000049996255","13464.40000000596","","","","","","","","","4","500","350","123.18011541221341","223.75436540482988","283.78968254830914","false"
"","","","","","html-keyboard-response","106","858119","0.0-10.0-0.9","","","","null","","null","","","","fallScene","","","","","","","","","","","","false","604.4000000000001","596.8711431702998","394.5","10","","","","","","",""
"","","","","","html-keyboard-response","107","862140","0.0-10.0-1.9","","","","","","","","","","","","","","","","583.01","249.00000000688217","4020.699999988079","","","","","","","","","","","","","","",""
"","","","","","html-keyboard-response","107","862140","0.0-10.0-1.9","","","","","","","","","","reconstruct","","","","","","583.01","249.00000000688217","4020.699999988079","","","","","","","","","3","500","250","83.0160231520773","173.96628517940113","146.15875371658325","true"
"","","","","","html-keyboard-response","108","865144","0.0-10.0-0.10","","","","null","","null","","","","fallScene","","","","","","","","","","","","true","500","510.8711431702997","369.03","8","","","","","","",""
"","","","","","html-keyboard-response","109","869502","0.0-10.0-1.10","","","","","","","","","","","","","","","","510.0000010262584","244.00999999994735","4356.899999976158","","","","","","","","","","","","","","",""
"","","","","","html-keyboard-response","109","869502","0.0-10.0-1.10","","","","","","","","","","reconstruct","","","","","","510.0000010262584","244.00999999994735","4356.899999976158","","","","","","","","","1","375","250","135.13282494305523","180.6352912539631","125.0230350321423","true"
"","","","","","html-keyboard-response","110","872505","0.0-10.0-0.11","","","","null","","null","","","","fallScene","","","","","","","","","","","","false","604.4000000000001","575.4211431702997","266.76","12","","","","","","",""
"","","","","","html-keyboard-response","111","875778","0.0-10.0-1.11","","","","","","","","","","","","","","","","599.0099995000385","268.9999000050991","3271.800000011921","","","","","","","","","","","","","","",""
"","","","","","html-keyboard-response","111","875778","0.0-10.0-1.11","","","","","","","","","","reconstruct","","","","","","599.0099995000385","268.9999000050991","3271.800000011921","","","","","","","","","6","625","350","85.06759856239003","96.88632847073895","23.69496349391361","true"
"","","","","","html-keyboard-response","112","878780","0.0-10.0-0.12","","","","null","","null","","","","fallScene","","","","","","","","","","","","true","500","479.92114317029973","330.87","6","","","","","","",""
"","","","","","html-keyboard-response","113","881483","0.0-10.0-1.12","","","","","","","","","","","","","","","","548.0099662369306","236.99917895101112","2702.7999999821186","","","","","","","","","","","","","","",""
"","","","","","html-keyboard-response","113","881483","0.0-10.0-1.12","","","","","","","","","","reconstruct","","","","","","548.0099662369306","236.99917895101112","2702.7999999821186","","","","","","","","","5","625","250","78.08000158034321","166.09585063755407","115.96473115137317","true"
"","","","","","html-keyboard-response","114","884488","0.0-10.0-0.13","","","","null","","null","","","","fallScene","","","","","","","","","","","","true","500","479.92114317029973","330.87","6","","","","","","",""
"","","","","","html-keyboard-response","115","887772","0.0-10.0-1.13","","","","","","","","","","","","","","","","522.992930475967","230.0070726112538","3283.5999999940395","","","","","","","","","","","","","","",""
"","","","","","html-keyboard-response","115","887772","0.0-10.0-1.13","","","","","","","","","","reconstruct","","","","","","522.992930475967","230.0070726112538","3283.5999999940395","","","","","","","","","2","375","350","190.52614018602625","106.65084708600553","109.67455941617514","false"
"","","","","","html-keyboard-response","116","890779","0.0-10.0-0.14","","","","null","","null","","","","fallScene","","","","","","","","","","","","false","500","510.8711431702997","369.03","8","","","","","","",""
"","","","","","html-keyboard-response","117","893354","0.0-10.0-1.14","","","","","","","","","","","","","","","","547.0070815508227","204.00706056923664","2574","","","","","","","","","","","","","","",""
"","","","","","html-keyboard-response","117","893354","0.0-10.0-1.14","","","","","","","","","","reconstruct","","","","","","547.0070815508227","204.00706056923664","2574","","","","","","","","","5","625","250","90.5441649456324","164.90462959315064","168.93305354787836","false"
"","","","","","html-keyboard-response","118","896358","0.0-10.0-0.15","","","","null","","null","","","","fallScene","","","","","","","","","","","","false","500","510.8711431702997","369.03","8","","","","","","",""
"","","","","","html-keyboard-response","119","900469","0.0-10.0-1.15","","","","","","","","","","","","","","","","530.9900004999633","231.00009999508765","4113.4000000059605","","","","","","","","","","","","","","",""
"","","","","","html-keyboard-response","119","900469","0.0-10.0-1.15","","","","","","","","","","reconstruct","","","","","","530.9900004999633","231.00009999508765","4113.4000000059605","","","","","","","","","4","500","350","122.96892425392224","21.91626459570958","139.48842860831667","false"
"","","","","","html-keyboard-response","120","903476","0.0-10.0-0.16","","","","null","","null","","","","fallScene","","","","","","","","","","","","true","500","553.4711431702997","282.51","7","","","","","","",""
"","","","","","html-keyboard-response","121","906866","0.0-10.0-1.16","","","","","","","","","","","","","","","","483.99289384069107","250.99296419870407","3388.9000000059605","","","","","","","","","","","","","","",""
"","","","","","html-keyboard-response","121","906866","0.0-10.0-1.16","","","","","","","","","","reconstruct","","","","","","483.99289384069107","250.99296419870407","3388.9000000059605","","","","","","","","","2","375","350","147.24756040738754","190.8057888129016","76.29253355084906","true"
"","","","","","html-keyboard-response","122","909870","0.0-10.0-0.17","","","","null","","null","","","","fallScene","","","","","","","","","","","","false","604.4000000000001","575.4211431702997","266.76","12","","","","","","",""
"","","","","","html-keyboard-response","123","913157","0.0-10.0-1.17","","","","","","","","","","","","","","","","601.9900000162718","252.00001803980763","3286.2999999821186","","","","","","","","","","","","","","",""
"","","","","","html-keyboard-response","123","913157","0.0-10.0-1.17","","","","","","","","","","reconstruct","","","","","","601.9900000162718","252.00001803980763","3286.2999999821186","","","","","","","","","2","375","350","247.24169666863455","217.0196586249499","30.393440436498135","false"
"","","","","","html-button-response","124","1053241","0.0-11.0","","","","140081","","0","","","","","<p><span style = ""font-size:40px;"">BREAK</span></p><p>You are almost done! Click 'Next' when you are ready for the next set.</p>","","","","","","","","","","","","","","","","","","","","","",""
"","","","","","html-keyboard-response","125","1056250","0.0-12.0-0.0","","","","null","","null","","","","fallScene","","","","","","","","","","","","true","322.3","356.42114317029973","357.87","4","","","","","","",""
"","","","","","html-keyboard-response","126","1059615","0.0-12.0-1.0","","","","","","","","","","","","","","","","638","301.01","3363.899999976158","","","","","","","","","","","","","","",""
"","","","","","html-keyboard-response","126","1059615","0.0-12.0-1.0","","","","","","","","","","reconstruct","","","","","","638","301.01","3363.899999976158","","","","","","","","","1","375","250","267.90113866872605","109.45826063435551","287.26244483663515","false"
"","","","","","html-keyboard-response","127","1062617","0.0-12.0-0.1","","","","null","","null","","","","fallScene","","","","","","","","","","","","false","500","453.67114317029973","210.33","5","","","","","","",""
"","","","","","html-keyboard-response","128","1064714","0.0-12.0-1.1","","","","","","","","","","","","","","","","507.0000000000017","277.01","2096.100000023842","","","","","","","","","","","","","","",""
"","","","","","html-keyboard-response","128","1064714","0.0-12.0-1.1","","","","","","","","","","reconstruct","","","","","","507.0000000000017","277.01","2096.100000023842","","","","","","","","","3","500","250","27.90233144380633","60.992391944789844","85.38260578573863","false"
"","","","","","html-keyboard-response","129","1067717","0.0-12.0-0.2","","","","null","","null","","","","fallScene","","","","","","","","","","","","false","604.4000000000001","667.6211431702998","201.78","9","","","","","","",""
"","","","","","html-keyboard-response","130","1069979","0.0-12.0-1.2","","","","","","","","","","","","","","","","630","297.99","2257.599999964237","","","","","","","","","","","","","","",""
"","","","","","html-keyboard-response","130","1069979","0.0-12.0-1.2","","","","","","","","","","reconstruct","","","","","","630","297.99","2257.599999964237","","","","","","","","","6","625","350","52.24978564549331","154.2262307298703","103.30399079145101","true"
"","","","","","html-keyboard-response","131","1072982","0.0-12.0-0.3","","","","null","","null","","","","fallScene","","","","","","","","","","","","false","500","510.8711431702997","369.03","8","","","","","","",""
"","","","","","html-keyboard-response","132","1076681","0.0-12.0-1.3","","","","","","","","","","","","","","","","530.9900000000002","257.0000000738626","3699","","","","","","","","","","","","","","",""
"","","","","","html-keyboard-response","132","1076681","0.0-12.0-1.3","","","","","","","","","","reconstruct","","","","","","530.9900000000002","257.0000000738626","3699","","","","","","","","","2","375","350","181.60914097660842","137.19733396245016","113.82218273950083","false"
"","","","","","html-keyboard-response","133","1079683","0.0-12.0-0.4","","","","null","","null","","","","fallScene","","","","","","","","","","","","true","500","553.4711431702997","282.51","7","","","","","","",""
"","","","","","html-keyboard-response","134","1083826","0.0-12.0-1.4","","","","","","","","","","","","","","","","515.9900004999625","309.99990000499963","4142.599999964237","","","","","","","","","","","","","","",""
"","","","","","html-keyboard-response","134","1083826","0.0-12.0-1.4","","","","","","","","","","reconstruct","","","","","","515.9900004999625","309.99990000499963","4142.599999964237","","","","","","","","","4","500","350","43.07769858753867","86.1049548628805","46.481508776706534","true"
"","","","","","html-keyboard-response","135","1086828","0.0-12.0-0.5","","","","null","","null","","","","fallScene","","","","","","","","","","","","false","322.3","356.42114317029973","357.87","4","","","","","","",""
"","","","","","html-keyboard-response","136","1090216","0.0-12.0-1.5","","","","","","","","","","","","","","","","345.00009999500037","310.0099995000375","3386.399999976158","","","","","","","","","","","","","","",""
"","","","","","html-keyboard-response","136","1090216","0.0-12.0-1.5","","","","","","","","","","reconstruct","","","","","","345.00009999500037","310.0099995000375","3386.399999976158","","","","","","","","","5","625","250","286.35841884394506","289.4314067891538","49.2038603675409","true"
"","","","","","html-keyboard-response","137","1093220","0.0-12.0-0.6","","","","null","","null","","","","fallScene","","","","","","","","","","","","true","604.4000000000001","596.8711431702998","394.5","10","","","","","","",""
"","","","","","html-keyboard-response","138","1096068","0.0-12.0-1.6","","","","","","","","","","","","","","","","454.99000023057704","279.9999320920676","2848.100000023842","","","","","","","","","","","","","","",""
"","","","","","html-keyboard-response","138","1096068","0.0-12.0-1.6","","","","","","","","","","reconstruct","","","","","","454.99000023057704","279.9999320920676","2848.100000023842","","","","","","","","","1","375","250","85.43065060279233","264.7773671817432","182.31984059011012","true"
"","","","","","html-keyboard-response","139","1099077","0.0-12.0-0.7","","","","null","","null","","","","fallScene","","","","","","","","","","","","true","500","479.92114317029973","330.87","6","","","","","","",""
"","","","","","html-keyboard-response","140","1101975","0.0-12.0-1.7","","","","","","","","","","","","","","","","538.9925389265538","289.99334174324383","2897.199999988079","","","","","","","","","","","","","","",""
"","","","","","html-keyboard-response","140","1101975","0.0-12.0-1.7","","","","","","","","","","reconstruct","","","","","","538.9925389265538","289.99334174324383","2897.199999988079","","","","","","","","","3","500","250","55.85593500900961","83.32537063576497","71.83544380618545","true"
"","","","","","html-keyboard-response","141","1104981","0.0-12.0-0.8","","","","null","","null","","","","fallScene","","","","","","","","","","","","true","322.3","308.07114317029976","253.89","2","","","","","","",""
"","","","","","html-keyboard-response","142","1107929","0.0-12.0-1.8","","","","","","","","","","","","","","","","694.999899794433","261.00999949792964","2947.699999988079","","","","","","","","","","","","","","",""
"","","","","","html-keyboard-response","142","1107929","0.0-12.0-1.8","","","","","","","","","","reconstruct","","","","","","694.999899794433","261.00999949792964","2947.699999988079","","","","","","","","","1","375","250","320.1892502214769","67.04180767648283","386.9942597707984","false"
"","","","","","html-keyboard-response","143","1110932","0.0-12.0-0.9","","","","null","","null","","","","fallScene","","","","","","","","","","","","false","604.4000000000001","667.6211431702998","201.78","9","","","","","","",""
"","","","","","html-keyboard-response","144","1121568","0.0-12.0-1.9","","","","","","","","","","","","","","","","648.9875579538078","252.00040288372242","10635","","","","","","","","","","","","","","",""
"","","","","","html-keyboard-response","144","1121568","0.0-12.0-1.9","","","","","","","","","","reconstruct","","","","","","648.9875579538078","252.00040288372242","10635","","","","","","","","","1","375","250","273.99486039922067","296.56753333818097","53.565841390046906","true"
"","","","","","html-keyboard-response","145","1124574","0.0-12.0-0.10","","","","null","","null","","","","fallScene","","","","","","","","","","","","false","500","553.4711431702997","282.51","7","","","","","","",""
"","","","","","html-keyboard-response","146","1127914","0.0-12.0-1.10","","","","","","","","","","","","","","","","508.99836234788177","273.0098649934384","3339.199999988079","","","","","","","","","","","","","","",""
"","","","","","html-keyboard-response","146","1127914","0.0-12.0-1.10","","","","","","","","","","reconstruct","","","","","","508.99836234788177","273.0098649934384","3339.199999988079","","","","","","","","","6","625","350","139.22593446014977","98.34265330650666","45.47615638135792","false"
"","","","","","html-keyboard-response","147","1130921","0.0-12.0-0.11","","","","null","","null","","","","fallScene","","","","","","","","","","","","false","500","479.92114317029973","330.87","6","","","","","","",""
"","","","","","html-keyboard-response","148","1133906","0.0-12.0-1.11","","","","","","","","","","","","","","","","483.99","285.99999999993616","2984","","","","","","","","","","","","","","",""
"","","","","","html-keyboard-response","148","1133906","0.0-12.0-1.11","","","","","","","","","","reconstruct","","","","","","483.99","285.99999999993616","2984","","","","","","","","","6","625","350","154.85418980450018","146.33465617895396","45.05410631569921","false"
"","","","","","html-keyboard-response","149","1136913","0.0-12.0-0.12","","","","null","","null","","","","fallScene","","","","","","","","","","","","false","500","453.67114317029973","210.33","5","","","","","","",""
"","","","","","html-keyboard-response","150","1140877","0.0-12.0-1.12","","","","","","","","","","","","","","","","499.99999635360405","273.0099999993352","3959.5","","","","","","","","","","","","","","",""
"","","","","","html-keyboard-response","150","1140877","0.0-12.0-1.12","","","","","","","","","","reconstruct","","","","","","499.99999635360405","273.0099999993352","3959.5","","","","","","","","","1","375","250","127.10019350249013","88.10708069004328","77.94321674909772","false"
"","","","","","html-keyboard-response","151","1143883","0.0-12.0-0.13","","","","null","","null","","","","fallScene","","","","","","","","","","","","true","322.3","356.42114317029973","357.87","4","","","","","","",""
"","","","","","html-keyboard-response","152","1148348","0.0-12.0-1.13","","","","","","","","","","","","","","","","645.9999968691139","280.0099999995099","4464.300000011921","","","","","","","","","","","","","","",""
"","","","","","html-keyboard-response","152","1148348","0.0-12.0-1.13","","","","","","","","","","reconstruct","","","","","","645.9999968691139","280.0099999995099","4464.300000011921","","","","","","","","","2","375","350","279.89211922297557","20.176987413846014","299.8634557754505","false"
"","","","","","html-keyboard-response","153","1151351","0.0-12.0-0.14","","","","null","","null","","","","fallScene","","","","","","","","","","","","false","322.3","308.07114317029976","253.89","2","","","","","","",""
"","","","","","html-keyboard-response","154","1155185","0.0-12.0-1.14","","","","","","","","","","","","","","","","296.9900000009935","238.00000445759792","3833.5","","","","","","","","","","","","","","",""
"","","","","","html-keyboard-response","154","1155185","0.0-12.0-1.14","","","","","","","","","","reconstruct","","","","","","296.9900000009935","238.00000445759792","3833.5","","","","","","","","","3","500","250","203.3643528070106","191.96827389950553","19.37224024929022","false"
"","","","","","html-keyboard-response","155","1158188","0.0-12.0-0.15","","","","null","","null","","","","fallScene","","","","","","","","","","","","true","604.4000000000001","650.0211431702996","404.58000000000004","11","","","","","","",""
"","","","","","html-keyboard-response","156","1161455","0.0-12.0-1.15","","","","","","","","","","","","","","","","351.9999832922271","322.0099999860425","3266.300000011921","","","","","","","","","","","","","","",""
"","","","","","html-keyboard-response","156","1161455","0.0-12.0-1.15","","","","","","","","","","reconstruct","","","","","","351.9999832922271","322.0099999860425","3266.300000011921","","","","","","","","","1","375","250","75.59392083063076","315.4863001632535","309.24814734671673","true"
"","","","","","html-keyboard-response","157","1164464","0.0-12.0-0.16","","","","null","","null","","","","fallScene","","","","","","","","","","","","true","604.4000000000001","650.0211431702996","404.58000000000004","11","","","","","","",""
"","","","","","html-keyboard-response","158","1168003","0.0-12.0-1.16","","","","","","","","","","","","","","","","370.01","287","3538.300000011921","","","","","","","","","","","","","","",""
"","","","","","html-keyboard-response","158","1168003","0.0-12.0-1.16","","","","","","","","","","reconstruct","","","","","","370.01","287","3538.300000011921","","","","","","","","","6","625","350","262.6573815829283","60.04193539142985","303.69605973660254","false"
"","","","","","html-keyboard-response","159","1171012","0.0-12.0-0.17","","","","null","","null","","","","fallScene","","","","","","","","","","","","true","500","479.92114317029973","330.87","6","","","","","","",""
"","","","","","html-keyboard-response","160","1177014","0.0-12.0-1.17","","","","","","","","","","","","","","","","544.0078305119615","293.00621957252713","6001.5","","","","","","","","","","","","","","",""
"","","","","","html-keyboard-response","160","1177014","0.0-12.0-1.17","","","","","","","","","","reconstruct","","","","","","544.0078305119615","293.00621957252713","6001.5","","","","","","","","","1","375","250","174.3937547513681","132.47038606482027","74.4363443667661","false"
"","","","","","survey-text","161","1245365","0.0-13.0","","","","68347","","{""Summary"":""find the position of the triangle which bounces the ball""}","","","","","","","","","","","","","","","","","","","","","","","","","","",""
