"success","timeout","failed_images","failed_audio","failed_video","trial_type","trial_index","time_elapsed","internal_node_id","subject_id","study_id","session_id","rt","url","response","view_history","triangle_prac_final_x","triangle_prac_final_y","trial_name","stimulus","ball_X_prac_occ","ball_Y_prac_occ","obstacle_X_prac_occ","obstacle_Y_prac_occ","triangle_final_x","triangle_final_y","response_time","obstacle_X_prac_occ_init","obstacle_Y_prac_occ_init","question_order","flipped","ball_X","obstacle_groundTruth_x","obstacle_groundTruth_y","stimulus_idx","obstacle_idx","obstacle_initial_x","obstacle_initial_y","final_to_initial_distance","initial_to_groundTruth_distance","final_to_groundTruth_distance","finalInBetweenInitGround"
"true","false","[]","[]","[]","preload","0","13","0.0-0.0","","","","","","","","","","","","","","","","","","","","","","","","","","","","","","","","",""
"","","","","","external-html","1","567724","0.0-1.0","","","","567707","consent.html","","","","","","","","","","","","","","","","","","","","","","","","","","","",""
"true","","","","","fullscreen","2","580872","0.0-2.0","","","","12644","","","","","","","","","","","","","","","","","","","","","","","","","","","","",""
"","","","","","survey-text","3","584298","0.0-3.0","","","","3418","","{""prolificID"":""n/a""}","","","","","","","","","","","","","","","","","","","","","","","","","","",""
"","","","","","instructions","4","626919","0.0-4.0-0.0-0.0","","","","42622","","","[{""page_index"":0,""viewing_time"":23886},{""page_index"":1,""viewing_time"":5430},{""page_index"":2,""viewing_time"":5870},{""page_index"":3,""viewing_time"":7433}]","","","","","","","","","","","","","","","","","","","","","","","","","",""
"","","","","","html-keyboard-response","5","630532","0.0-4.0-0.0-1.0","","","","","","","","857.9929137855557","519.9929441113352","","","","","","","","","","","","","","","","","","","","","","","",""
"","","","","","html-keyboard-response","5","630532","0.0-4.0-0.0-1.0","","","","","","","","","","practiceTrial_move","","","","","","","","","","","","","","","","","","","","","","",""
"","","","","","html-button-response","6","633567","0.0-4.0-0.0-2.0","","","","3033","","0","","","","","<p>To help you get more comfortable with the task, let's begin with a practice trial first!</p><p>As described previously, you will first see a video of a ball falling, some of it behind a gray screen.</p><p>After the video, you will drag a triangle to the spot you think the ball hit the triangle behind the screen.</p><p>Click 'Next' to start your practice trial.</p>","","","","","","","","","","","","","","","","","","","","","",""
"","","","","","html-keyboard-response","7","636578","0.0-4.0-0.0-3.0","","","","null","","null","","","","fallScene_practiceTrial_withOccluder","","400","50","420","415","","","","","","","","","","","","","","","","","",""
"","","","","","html-keyboard-response","8","639548","0.0-4.0-0.0-4.0","","","","","","","","","","","","","","","","298","188.01","2968.5","","","","","","","","","","","","","","",""
"","","","","","html-keyboard-response","8","639548","0.0-4.0-0.0-4.0","","","","","","","","","","reconstruct_practiceTrial_withOccluder","","","","","","298","188.01","2968.5","500","300","","","","","","","","","","","","",""
"","","","","","html-button-response","9","641748","0.0-4.0-0.0-5.0","","","","2198","","1","","","","","<p>Ok! We're almost ready to get started.</p><p>We just have a <b>brief quiz</b>, to make sure you understood the task.</p><p>If you need to review the instructions, click 'Previous'.</p><p>It's important to understand the task to do the study, so you have to pass the quiz to move to the study.</p>","","","","","","","","","","","","","","","","","","","","","",""
"","","","","","survey-multi-choice","10","648816","0.0-4.0-1.0-0.0","","","","7067","","{""generalProcedure"":""Watch a video of a ball falling, some of it behind a gray screen. After each video, drag a triangle to where I think the ball hit the triangle behind the screen.""}","","","","","","","","","","","","","","","[0]","","","","","","","","","","","",""
"","","","","","survey-multi-choice","11","651615","0.0-4.0-1.0-1.0","","","","2791","","{""checkBallHitObstacle"":""Yes.""}","","","","","","","","","","","","","","","[0]","","","","","","","","","","","",""
"","","","","","survey-multi-choice","12","657097","0.0-4.0-1.0-2.0","","","","5476","","{""checkTriangleVisibility"":""No, the triangle is hidden behind the gray screen.""}","","","","","","","","","","","","","","","[0]","","","","","","","","","","","",""
"","","","","","instructions","13","659365","0.0-5.0","","","","2261","","","[{""page_index"":0,""viewing_time"":2261}]","","","","","","","","","","","","","","","","","","","","","","","","","",""
"","","","","","html-keyboard-response","14","662376","0.0-6.0-0.0","","","","null","","null","","","","fallScene","","","","","","","","","","","","true","322.3","296.07114317029976","371.46","3","","","","","","",""
"","","","","","html-keyboard-response","15","666598","0.0-6.0-1.0","","","","","","","","","","","","","","","","693.0000000108785","284.01","4221.099999904633","","","","","","","","","","","","","","",""
"","","","","","html-keyboard-response","15","666598","0.0-6.0-1.0","","","","","","","","","","reconstruct","","","","","","693.0000000108785","284.01","4221.099999904633","","","","","","","","","1","375","250","319.8135083246465","144.8526701184459","406.44805312950956","false"
"","","","","","html-keyboard-response","16","669609","0.0-6.0-0.1","","","","null","","null","","","","fallScene","","","","","","","","","","","","false","604.4000000000001","667.6211431702998","201.78","9","","","","","","",""
"","","","","","html-keyboard-response","17","671947","0.0-6.0-1.1","","","","","","","","","","","","","","","","602.9900004265728","254.0000923649003","2336.5","","","","","","","","","","","","","","",""
"","","","","","html-keyboard-response","17","671947","0.0-6.0-1.1","","","","","","","","","","reconstruct","","","","","","602.9900004265728","254.0000923649003","2336.5","","","","","","","","","6","625","350","98.49072213751882","154.2262307298703","83.09105041434204","true"
"","","","","","html-keyboard-response","18","674953","0.0-6.0-0.2","","","","null","","null","","","","fallScene","","","","","","","","","","","","false","322.3","308.07114317029976","253.89","2","","","","","","",""
"","","","","","html-keyboard-response","19","678330","0.0-6.0-1.2","","","","","","","","","","","","","","","","416.99999996677246","274.00999999999993","3376.0999999046326","","","","","","","","","","","","","","",""
"","","","","","html-keyboard-response","19","678330","0.0-6.0-1.2","","","","","","","","","","reconstruct","","","","","","416.99999996677246","274.00999999999993","3376.0999999046326","","","","","","","","","6","625","350","221.44633687153794","331.1812681770825","110.7714324317712","true"
"","","","","","html-keyboard-response","20","681337","0.0-6.0-0.3","","","","null","","null","","","","fallScene","","","","","","","","","","","","true","322.3","308.07114317029976","253.89","2","","","","","","",""
"","","","","","html-keyboard-response","21","683763","0.0-6.0-1.3","","","","","","","","","","","","","","","","456","294.99","2426.2000000476837","","","","","","","","","","","","","","",""
"","","","","","html-keyboard-response","21","683764","0.0-6.0-1.3","","","","","","","","","","reconstruct","","","","","","456","294.99","2426.2000000476837","","","","","","","","","5","625","250","174.88596313026383","316.9527289539887","153.5322659343695","true"
"","","","","","html-keyboard-response","22","686769","0.0-6.0-0.4","","","","null","","null","","","","fallScene","","","","","","","","","","","","false","500","553.4711431702997","282.51","7","","","","","","",""
"","","","","","html-keyboard-response","23","688896","0.0-6.0-1.4","","","","","","","","","","","","","","","","374.999999999995","291.01","2127.0999999046326","","","","","","","","","","","","","","",""
"","","","","","html-keyboard-response","23","688896","0.0-6.0-1.4","","","","","","","","","","reconstruct","","","","","","374.999999999995","291.01","2127.0999999046326","","","","","","","","","4","500","350","138.22018702056965","86.1049548628805","178.67344219137715","false"
"","","","","","html-keyboard-response","24","691904","0.0-6.0-0.5","","","","null","","null","","","","fallScene","","","","","","","","","","","","true","322.3","356.42114317029973","357.87","4","","","","","","",""
"","","","","","html-keyboard-response","25","694096","0.0-6.0-1.5","","","","","","","","","","","","","","","","684.0069920711848","294.99285080839906","2191.2999999523163","","","","","","","","","","","","","","",""
"","","","","","html-keyboard-response","25","694096","0.0-6.0-1.5","","","","","","","","","","reconstruct","","","","","","684.0069920711848","294.99285080839906","2191.2999999523163","","","","","","","","","5","625","250","74.2036504301218","289.4314067891538","333.5656221653789","false"
"","","","","","html-keyboard-response","26","697104","0.0-6.0-0.6","","","","null","","null","","","","fallScene","","","","","","","","","","","","true","500","479.92114317029973","330.87","6","","","","","","",""
"","","","","","html-keyboard-response","27","699112","0.0-6.0-1.6","","","","","","","","","","","","","","","","348.01","319.9999999999914","2007.3999998569489","","","","","","","","","","","","","","",""
"","","","","","html-keyboard-response","27","699112","0.0-6.0-1.6","","","","","","","","","","reconstruct","","","","","","348.01","319.9999999999914","2007.3999998569489","","","","","","","","","3","500","250","167.33487412968884","83.32537063576497","132.35825094226465","false"
"","","","","","html-keyboard-response","28","702115","0.0-6.0-0.7","","","","null","","null","","","","fallScene","","","","","","","","","","","","true","322.3","356.42114317029973","357.87","4","","","","","","",""
"","","","","","html-keyboard-response","29","706012","0.0-6.0-1.7","","","","","","","","","","","","","","","","694.9900995739195","374.00999950423943","3896.800000190735","","","","","","","","","","","","","","",""
"","","","","","html-keyboard-response","29","706012","0.0-6.0-1.7","","","","","","","","","","reconstruct","","","","","","694.9900995739195","374.00999950423943","3896.800000190735","","","","","","","","","2","375","350","320.88961326524804","20.176987413846014","338.953444921619","false"
"","","","","","html-keyboard-response","30","709023","0.0-6.0-0.8","","","","null","","null","","","","fallScene","","","","","","","","","","","","true","604.4000000000001","650.0211431702996","404.58000000000004","11","","","","","","",""
"","","","","","html-keyboard-response","31","711829","0.0-6.0-1.8","","","","","","","","","","","","","","","","455.9999999554722","399.0099999999999","2805.5","","","","","","","","","","","","","","",""
"","","","","","html-keyboard-response","31","711829","0.0-6.0-1.8","","","","","","","","","","reconstruct","","","","","","455.9999999554722","399.0099999999999","2805.5","","","","","","","","","6","625","350","175.9630078029197","60.04193539142985","194.10107911701206","false"
"","","","","","html-keyboard-response","32","714832","0.0-6.0-0.9","","","","null","","null","","","","fallScene","","","","","","","","","","","","false","500","510.8711431702997","369.03","8","","","","","","",""
"","","","","","html-keyboard-response","33","718079","0.0-6.0-1.9","","","","","","","","","","","","","","","","255.99999931106962","363.9900000000237","3247.300000190735","","","","","","","","","","","","","","",""
"","","","","","html-keyboard-response","33","718079","0.0-6.0-1.9","","","","","","","","","","reconstruct","","","","","","255.99999931106962","363.9900000000237","3247.300000190735","","","","","","","","","2","375","350","119.81953206370862","137.19733396245016","254.9209712285596","false"
"","","","","","html-keyboard-response","34","721082","0.0-6.0-0.10","","","","null","","null","","","","fallScene","","","","","","","","","","","","true","500","510.8711431702997","369.03","8","","","","","","",""
"","","","","","html-keyboard-response","35","724928","0.0-6.0-1.10","","","","","","","","","","","","","","","","650.9900000259203","392.98999447644695","3846.2000000476837","","","","","","","","","","","","","","",""
"","","","","","html-keyboard-response","35","724928","0.0-6.0-1.10","","","","","","","","","","reconstruct","","","","","","650.9900000259203","392.98999447644695","3846.2000000476837","","","","","","","","","1","375","250","310.83213899898095","180.6352912539631","142.1526481703287","false"
"","","","","","html-keyboard-response","36","727931","0.0-6.0-0.11","","","","null","","null","","","","fallScene","","","","","","","","","","","","true","322.3","356.42114317029973","357.87","4","","","","","","",""
"","","","","","html-keyboard-response","37","729978","0.0-6.0-1.11","","","","","","","","","","","","","","","","693.9900000231273","374.0000215068807","2046.8999998569489","","","","","","","","","","","","","","",""
"","","","","","html-keyboard-response","37","729978","0.0-6.0-1.11","","","","","","","","","","reconstruct","","","","","","693.9900000231273","374.0000215068807","2046.8999998569489","","","","","","","","","6","625","350","73.045336165438","268.69413695864046","337.95400679787366","false"
"","","","","","html-keyboard-response","38","732982","0.0-6.0-0.12","","","","null","","null","","","","fallScene","","","","","","","","","","","","false","500","453.67114317029973","210.33","5","","","","","","",""
"","","","","","html-keyboard-response","39","735611","0.0-6.0-1.12","","","","","","","","","","","","","","","","595.9900000000299","363.99999922707985","2628.7999999523163","","","","","","","","","","","","","","",""
"","","","","","html-keyboard-response","39","735611","0.0-6.0-1.12","","","","","","","","","","reconstruct","","","","","","595.9900000000299","363.99999922707985","2628.7999999523163","","","","","","","","","5","625","250","117.63324327660303","175.86155373637507","209.44957787441814","false"
"","","","","","html-keyboard-response","40","738614","0.0-6.0-0.13","","","","null","","null","","","","fallScene","","","","","","","","","","","","true","322.3","308.07114317029976","253.89","2","","","","","","",""
"","","","","","html-keyboard-response","41","741979","0.0-6.0-1.13","","","","","","","","","","","","","","","","347.009999499992","398.9999000004483","3364.399999856949","","","","","","","","","","","","","","",""
"","","","","","html-keyboard-response","41","741979","0.0-6.0-1.13","","","","","","","","","","reconstruct","","","","","","347.009999499992","398.9999000004483","3364.399999856949","","","","","","","","","4","500","350","160.6453561515128","214.64812643942545","150.24352768224168","true"
"","","","","","html-keyboard-response","42","744989","0.0-6.0-0.14","","","","null","","null","","","","fallScene","","","","","","","","","","","","true","604.4000000000001","650.0211431702996","404.58000000000004","11","","","","","","",""
"","","","","","html-keyboard-response","43","747345","0.0-6.0-1.14","","","","","","","","","","","","","","","","553.99","381","2355.399999856949","","","","","","","","","","","","","","",""
"","","","","","html-keyboard-response","43","747345","0.0-6.0-1.14","","","","","","","","","","reconstruct","","","","","","553.99","381","2355.399999856949","","","","","","","","","3","500","250","141.68952007823304","215.40965576808193","98.88375427032788","true"
"","","","","","html-keyboard-response","44","750348","0.0-6.0-0.15","","","","null","","null","","","","fallScene","","","","","","","","","","","","true","604.4000000000001","575.4211431702997","266.76","12","","","","","","",""
"","","","","","html-keyboard-response","45","752778","0.0-6.0-1.15","","","","","","","","","","","","","","","","245.00999997433144","415.00002265767944","2429.199999809265","","","","","","","","","","","","","","",""
"","","","","","html-keyboard-response","45","752778","0.0-6.0-1.15","","","","","","","","","","reconstruct","","","","","","245.00999997433144","415.00002265767944","2429.199999809265","","","","","","","","","1","375","250","210.05334461442894","201.1206907050833","362.1417234531475","false"
"","","","","","html-keyboard-response","46","755785","0.0-6.0-0.16","","","","null","","null","","","","fallScene","","","","","","","","","","","","true","604.4000000000001","596.8711431702998","394.5","10","","","","","","",""
"","","","","","html-keyboard-response","47","758395","0.0-6.0-1.16","","","","","","","","","","","","","","","","232.00000000000057","366.01","2609","","","","","","","","","","","","","","",""
"","","","","","html-keyboard-response","47","758395","0.0-6.0-1.16","","","","","","","","","","reconstruct","","","","","","232.00000000000057","366.01","2609","","","","","","","","","5","625","250","409.7649571400653","147.21237239629613","365.9817361814671","false"
"","","","","","html-keyboard-response","48","761404","0.0-6.0-0.17","","","","null","","null","","","","fallScene","","","","","","","","","","","","true","322.3","356.42114317029973","357.87","4","","","","","","",""
"","","","","","html-keyboard-response","49","764061","0.0-6.0-1.17","","","","","","","","","","","","","","","","735.9910245884744","374.99559069303103","2656.2999999523163","","","","","","","","","","","","","","",""
"","","","","","html-keyboard-response","49","764061","0.0-6.0-1.17","","","","","","","","","","reconstruct","","","","","","735.9910245884744","374.99559069303103","2656.2999999523163","","","","","","","","","3","500","250","267.04992300882185","179.58514701534637","379.95602474022223","false"
"","","","","","html-button-response","50","767994","0.0-7.0","","","","3932","","0","","","","","<p><span style = ""font-size:40px;"">BREAK</span></p><p>You are doing great! Click 'Next' when you are ready for the next set.</p>","","","","","","","","","","","","","","","","","","","","","",""
"","","","","","html-keyboard-response","51","770996","0.0-8.0-0.0","","","","null","","null","","","","fallScene","","","","","","","","","","","","false","322.3","308.07114317029976","253.89","2","","","","","","",""
"","","","","","html-keyboard-response","52","773943","0.0-8.0-1.0","","","","","","","","","","","","","","","","557.9900004999625","418.99990000499963","2947.2000000476837","","","","","","","","","","","","","","",""
"","","","","","html-keyboard-response","52","773943","0.0-8.0-1.0","","","","","","","","","","reconstruct","","","","","","557.9900004999625","418.99990000499963","2947.2000000476837","","","","","","","","","3","500","250","178.6723435780858","191.96827389950553","299.53416220629214","false"
"","","","","","html-keyboard-response","53","776947","0.0-8.0-0.1","","","","null","","null","","","","fallScene","","","","","","","","","","","","true","604.4000000000001","575.4211431702997","266.76","12","","","","","","",""
"","","","","","html-keyboard-response","54","778860","0.0-8.0-1.1","","","","","","","","","","","","","","","","259.0000999819343","350.00999950016814","1913.1000001430511","","","","","","","","","","","","","","",""
"","","","","","html-keyboard-response","54","778860","0.0-8.0-1.1","","","","","","","","","","reconstruct","","","","","","259.0000999819343","350.00999950016814","1913.1000001430511","","","","","","","","","4","500","350","240.99990022551393","112.32651707016848","327.18930145894353","false"
"","","","","","html-keyboard-response","55","781867","0.0-8.0-0.2","","","","null","","null","","","","fallScene","","","","","","","","","","","","true","604.4000000000001","596.8711431702998","394.5","10","","","","","","",""
"","","","","","html-keyboard-response","56","784727","0.0-8.0-1.2","","","","","","","","","","","","","","","","246.00901631250812","388.0055260619662","2859.0999999046326","","","","","","","","","","","","","","",""
"","","","","","html-keyboard-response","56","784727","0.0-8.0-1.2","","","","","","","","","","reconstruct","","","","","","246.00901631250812","388.0055260619662","2859.0999999046326","","","","","","","","","4","500","350","256.8186905304724","106.60332255197638","350.9222282143222","false"
"","","","","","html-keyboard-response","57","787731","0.0-8.0-0.3","","","","null","","null","","","","fallScene","","","","","","","","","","","","false","500","479.92114317029973","330.87","6","","","","","","",""
"","","","","","html-keyboard-response","58","790659","0.0-8.0-1.3","","","","","","","","","","","","","","","","703.9999000047774","406.0099995000353","2928.2000000476837","","","","","","","","","","","","","","",""
"","","","","","html-keyboard-response","58","790659","0.0-8.0-1.3","","","","","","","","","","reconstruct","","","","","","703.9999000047774","406.0099995000353","2928.2000000476837","","","","","","","","","2","375","350","333.73350782794864","106.65084708600553","236.34150881584526","false"
"","","","","","html-keyboard-response","59","793664","0.0-8.0-0.4","","","","null","","null","","","","fallScene","","","","","","","","","","","","true","604.4000000000001","650.0211431702996","404.58000000000004","11","","","","","","",""
"","","","","","html-keyboard-response","60","799309","0.0-8.0-1.4","","","","","","","","","","","","","","","","355.0099276118853","286.0100699369999","5644.599999904633","","","","","","","","","","","","","","",""
"","","","","","html-keyboard-response","60","799309","0.0-8.0-1.4","","","","","","","","","","reconstruct","","","","","","355.0099276118853","286.0100699369999","5644.599999904633","","","","","","","","","4","500","350","158.48290835474464","159.6412221142257","317.9472371642785","false"
"","","","","","html-keyboard-response","61","802314","0.0-8.0-0.5","","","","null","","null","","","","fallScene","","","","","","","","","","","","true","322.3","296.07114317029976","371.46","3","","","","","","",""
"","","","","","html-keyboard-response","62","804642","0.0-8.0-1.5","","","","","","","","","","","","","","","","619.9905131621075","296.99683773707596","2327.5","","","","","","","","","","","","","","",""
"","","","","","html-keyboard-response","62","804642","0.0-8.0-1.5","","","","","","","","","","reconstruct","","","","","","619.9905131621075","296.99683773707596","2327.5","","","","","","","","","3","500","250","128.86592259473","237.3594536728385","332.36805019448576","false"
"","","","","","html-keyboard-response","63","807650","0.0-8.0-0.6","","","","null","","null","","","","fallScene","","","","","","","","","","","","false","322.3","356.42114317029973","357.87","4","","","","","","",""
"","","","","","html-keyboard-response","64","811225","0.0-8.0-1.6","","","","","","","","","","","","","","","","349.0089377144428","331.0044852269216","3575","","","","","","","","","","","","","","",""
"","","","","","html-keyboard-response","64","811225","0.0-8.0-1.6","","","","","","","","","","reconstruct","","","","","","349.0089377144428","331.0044852269216","3575","","","","","","","","","1","375","250","85.07209851420306","109.45826063435551","27.86927831398455","true"
"","","","","","html-keyboard-response","65","814230","0.0-8.0-0.7","","","","null","","null","","","","fallScene","","","","","","","","","","","","true","604.4000000000001","667.6211431702998","201.78","9","","","","","","",""
"","","","","","html-keyboard-response","66","817758","0.0-8.0-1.7","","","","","","","","","","","","","","","","475.9999999999859","300.01","3527.7999999523163","","","","","","","","","","","","","","",""
"","","","","","html-keyboard-response","66","817758","0.0-8.0-1.7","","","","","","","","","","reconstruct","","","","","","475.9999999999859","300.01","3527.7999999523163","","","","","","","","","1","375","250","112.70315035524585","296.56753333818097","215.331826281899","true"
"","","","","","html-keyboard-response","67","820763","0.0-8.0-0.8","","","","null","","null","","","","fallScene","","","","","","","","","","","","false","500","553.4711431702997","282.51","7","","","","","","",""
"","","","","","html-keyboard-response","68","825808","0.0-8.0-1.8","","","","","","","","","","","","","","","","409.01","313.0000000000095","5045.200000047684","","","","","","","","","","","","","","",""
"","","","","","html-keyboard-response","68","825808","0.0-8.0-1.8","","","","","","","","","","reconstruct","","","","","","409.01","313.0000000000095","5045.200000047684","","","","","","","","","1","375","250","71.59385518325715","181.4079630129659","147.64369944589714","true"
"","","","","","html-keyboard-response","69","828813","0.0-8.0-0.9","","","","null","","null","","","","fallScene","","","","","","","","","","","","false","500","479.92114317029973","330.87","6","","","","","","",""
"","","","","","html-keyboard-response","70","831741","0.0-8.0-1.9","","","","","","","","","","","","","","","","662.01","323.00000000000006","2927.5","","","","","","","","","","","","","","",""
"","","","","","html-keyboard-response","70","831741","0.0-8.0-1.9","","","","","","","","","","reconstruct","","","","","","662.01","323.00000000000006","2927.5","","","","","","","","","4","500","350","164.2444522655179","27.732965791411512","182.25885076326767","false"
"","","","","","html-keyboard-response","71","834753","0.0-8.0-0.10","","","","null","","null","","","","fallScene","","","","","","","","","","","","true","322.3","308.07114317029976","253.89","2","","","","","","",""
"","","","","","html-keyboard-response","72","839857","0.0-8.0-1.10","","","","","","","","","","","","","","","","620.0099994613405","276.999896207419","5103.900000095367","","","","","","","","","","","","","","",""
"","","","","","html-keyboard-response","72","839857","0.0-8.0-1.10","","","","","","","","","","reconstruct","","","","","","620.0099994613405","276.999896207419","5103.900000095367","","","","","","","","","1","375","250","246.49319307286655","67.04180767648283","312.7937297435488","false"
"","","","","","html-keyboard-response","73","842864","0.0-8.0-0.11","","","","null","","null","","","","fallScene","","","","","","","","","","","","false","604.4000000000001","575.4211431702997","266.76","12","","","","","","",""
"","","","","","html-keyboard-response","74","845723","0.0-8.0-1.11","","","","","","","","","","","","","","","","642.009999999872","282.00000160032994","2859.2999999523163","","","","","","","","","","","","","","",""
"","","","","","html-keyboard-response","74","845723","0.0-8.0-1.11","","","","","","","","","","reconstruct","","","","","","642.009999999872","282.00000160032994","2859.2999999523163","","","","","","","","","6","625","350","70.09522011058084","96.88632847073895","68.31056655194224","true"
"","","","","","html-keyboard-response","75","848726","0.0-8.0-0.12","","","","null","","null","","","","fallScene","","","","","","","","","","","","false","500","510.8711431702997","369.03","8","","","","","","",""
"","","","","","html-keyboard-response","76","852573","0.0-8.0-1.12","","","","","","","","","","","","","","","","362.9928710886442","313.9929872528292","3846.5","","","","","","","","","","","","","","",""
"","","","","","html-keyboard-response","76","852573","0.0-8.0-1.12","","","","","","","","","","reconstruct","","","","","","362.9928710886442","313.9929872528292","3846.5","","","","","","","","","5","625","250","269.7088022625746","164.90462959315064","157.78801008311237","false"
"","","","","","html-keyboard-response","77","855583","0.0-8.0-0.13","","","","null","","null","","","","fallScene","","","","","","","","","","","","false","322.3","296.07114317029976","371.46","3","","","","","","",""
"","","","","","html-keyboard-response","78","858873","0.0-8.0-1.13","","","","","","","","","","","","","","","","365.0060005054805","273.0079996208647","3289.4000000953674","","","","","","","","","","","","","","",""
"","","","","","html-keyboard-response","78","858873","0.0-8.0-1.13","","","","","","","","","","reconstruct","","","","","","365.0060005054805","273.0079996208647","3289.4000000953674","","","","","","","","","6","625","350","271.1542879903193","329.62816089541474","120.186567196484","true"
"","","","","","html-keyboard-response","79","861878","0.0-8.0-0.14","","","","null","","null","","","","fallScene","","","","","","","","","","","","false","604.4000000000001","667.6211431702998","201.78","9","","","","","","",""
"","","","","","html-keyboard-response","80","865256","0.0-8.0-1.14","","","","","","","","","","","","","","","","608.999999944445","304.9999666668744","3377","","","","","","","","","","","","","","",""
"","","","","","html-keyboard-response","80","865256","0.0-8.0-1.14","","","","","","","","","","reconstruct","","","","","","608.999999944445","304.9999666668744","3377","","","","","","","","","5","625","250","57.27998197568724","64.35627588000405","118.70467535786803","false"
"","","","","","html-keyboard-response","81","868260","0.0-8.0-0.15","","","","null","","null","","","","fallScene","","","","","","","","","","","","false","500","453.67114317029973","210.33","5","","","","","","",""
"","","","","","html-keyboard-response","82","871073","0.0-8.0-1.15","","","","","","","","","","","","","","","","576.9900002464943","307.99992978727994","2812.7999999523163","","","","","","","","","","","","","","",""
"","","","","","html-keyboard-response","82","871073","0.0-8.0-1.15","","","","","","","","","","reconstruct","","","","","","576.9900002464943","307.99992978727994","2812.7999999523163","","","","","","","","","3","500","250","96.39217807106861","60.992391944789844","157.3116514922881","false"
"","","","","","html-keyboard-response","83","874078","0.0-8.0-0.16","","","","null","","null","","","","fallScene","","","","","","","","","","","","false","500","479.92114317029973","330.87","6","","","","","","",""
"","","","","","html-keyboard-response","84","877489","0.0-8.0-1.16","","","","","","","","","","","","","","","","563.9999449920598","297.9900001512948","3411","","","","","","","","","","","","","","",""
"","","","","","html-keyboard-response","84","877489","0.0-8.0-1.16","","","","","","","","","","reconstruct","","","","","","563.9999449920598","297.9900001512948","3411","","","","","","","","","5","625","250","77.61473330169348","166.09585063755407","90.27922964798525","true"
"","","","","","html-keyboard-response","85","880493","0.0-8.0-0.17","","","","null","","null","","","","fallScene","","","","","","","","","","","","true","604.4000000000001","575.4211431702997","266.76","12","","","","","","",""
"","","","","","html-keyboard-response","86","882671","0.0-8.0-1.17","","","","","","","","","","","","","","","","322.00894436319146","283.0044719533874","2178","","","","","","","","","","","","","","",""
"","","","","","html-keyboard-response","86","882671","0.0-8.0-1.17","","","","","","","","","","reconstruct","","","","","","322.00894436319146","283.0044719533874","2178","","","","","","","","","2","375","350","85.41927625394513","217.0196586249499","253.93232439628034","false"
"","","","","","html-button-response","87","903139","0.0-9.0","","","","20467","","0","","","","","<p><span style = ""font-size:40px;"">BREAK</span></p><p>You are halfway done! Click 'Next' when you are ready for the next set.</p>","","","","","","","","","","","","","","","","","","","","","",""
"","","","","","html-keyboard-response","88","906148","0.0-10.0-0.0","","","","null","","null","","","","fallScene","","","","","","","","","","","","true","500","510.8711431702997","369.03","8","","","","","","",""
"","","","","","html-keyboard-response","89","942231","0.0-10.0-1.0","","","","","","","","","","","","","","","","292.99106787927144","252.99550364377632","36071.699999809265","","","","","","","","","","","","","","",""
"","","","","","html-keyboard-response","89","942231","0.0-10.0-1.0","","","","","","","","","","reconstruct","","","","","","292.99106787927144","252.99550364377632","36071.699999809265","","","","","","","","","4","500","350","228.61008352889644","21.91626459570958","246.85163874980987","false"
"","","","","","html-keyboard-response","90","945239","0.0-10.0-0.1","","","","null","","null","","","","fallScene","","","","","","","","","","","","false","500","453.67114317029973","210.33","5","","","","","","",""
"","","","","","html-keyboard-response","91","947764","0.0-10.0-1.1","","","","","","","","","","","","","","","","567.0099999999877","253.00000049504357","2524.699999809265","","","","","","","","","","","","","","",""
"","","","","","html-keyboard-response","91","947764","0.0-10.0-1.1","","","","","","","","","","reconstruct","","","","","","567.0099999999877","253.00000049504357","2524.699999809265","","","","","","","","","2","375","350","215.12052436705528","160.30239445411223","121.10501810291565","false"
"","","","","","html-keyboard-response","92","950775","0.0-10.0-0.2","","","","null","","null","","","","fallScene","","","","","","","","","","","","true","500","453.67114317029973","210.33","5","","","","","","",""
"","","","","","html-keyboard-response","93","953881","0.0-10.0-1.2","","","","","","","","","","","","","","","","365.99","280.0000000083631","3105.4000000953674","","","","","","","","","","","","","","",""
"","","","","","html-keyboard-response","93","953881","0.0-10.0-1.2","","","","","","","","","","reconstruct","","","","","","365.99","280.0000000083631","3105.4000000953674","","","","","","","","","6","625","350","268.3024041987495","221.04589134967412","111.99058785815846","false"
"","","","","","html-keyboard-response","94","956887","0.0-10.0-0.3","","","","null","","null","","","","fallScene","","","","","","","","","","","","false","604.4000000000001","596.8711431702998","394.5","10","","","","","","",""
"","","","","","html-keyboard-response","95","959498","0.0-10.0-1.3","","","","","","","","","","","","","","","","672.0099999999985","284.99999982948805","2610.0999999046326","","","","","","","","","","","","","","",""
"","","","","","html-keyboard-response","95","959498","0.0-10.0-1.3","","","","","","","","","","reconstruct","","","","","","672.0099999999985","284.99999982948805","2610.0999999046326","","","","","","","","","3","500","250","175.53472615999277","173.96628517940113","132.80097079093994","false"
"","","","","","html-keyboard-response","96","962502","0.0-10.0-0.4","","","","null","","null","","","","fallScene","","","","","","","","","","","","false","322.3","379.3711431702997","245.25","1","","","","","","",""
"","","","","","html-keyboard-response","97","990998","0.0-10.0-1.4","","","","","","","","","","","","","","","","234.01687481812635","338.00510174789633","28495.599999904633","","","","","","","","","","","","","","",""
"","","","","","html-keyboard-response","97","990998","0.0-10.0-1.4","","","","","","","","","","reconstruct","","","","","","234.01687481812635","338.00510174789633","28495.599999904633","","","","","","","","","4","500","350","266.25345155620914","159.76195917689645","172.4278754391477","false"
"","","","","","html-keyboard-response","98","994005","0.0-10.0-0.5","","","","null","","null","","","","fallScene","","","","","","","","","","","","false","604.4000000000001","596.8711431702998","394.5","10","","","","","","",""
"","","","","","html-keyboard-response","99","1002564","0.0-10.0-1.5","","","","","","","","","","","","","","","","693.9855011985459","265.00106236788326","8559.099999904633","","","","","","","","","","","","","","",""
"","","","","","html-keyboard-response","99","1002564","0.0-10.0-1.5","","","","","","","","","","reconstruct","","","","","","693.9855011985459","265.00106236788326","8559.099999904633","","","","","","","","","2","375","350","330.1159938165311","226.28975710733275","161.86776511425995","false"
"","","","","","html-keyboard-response","100","1005573","0.0-10.0-0.6","","","","null","","null","","","","fallScene","","","","","","","","","","","","false","604.4000000000001","650.0211431702996","404.58000000000004","11","","","","","","",""
"","","","","","html-keyboard-response","101","1009414","0.0-10.0-1.6","","","","","","","","","","","","","","","","517.9999977707326","330.0099999997515","3840.5","","","","","","","","","","","","","","",""
"","","","","","html-keyboard-response","101","1009414","0.0-10.0-1.6","","","","","","","","","","reconstruct","","","","","","517.9999977707326","330.0099999997515","3840.5","","","","","","","","","5","625","250","133.60613974299034","156.59193467592334","151.62541915078313","true"
"","","","","","html-keyboard-response","102","1012421","0.0-10.0-0.7","","","","null","","null","","","","fallScene","","","","","","","","","","","","true","500","479.92114317029973","330.87","6","","","","","","",""
"","","","","","html-keyboard-response","103","1017263","0.0-10.0-1.7","","","","","","","","","","","","","","","","379.0070348554799","323.99289290436417","4841.900000095367","","","","","","","","","","","","","","",""
"","","","","","html-keyboard-response","103","1017263","0.0-10.0-1.7","","","","","","","","","","reconstruct","","","","","","379.0070348554799","323.99289290436417","4841.900000095367","","","","","","","","","1","375","250","74.1013125976169","132.47038606482027","101.14816784786579","true"
"","","","","","html-keyboard-response","104","1020268","0.0-10.0-0.8","","","","null","","null","","","","fallScene","","","","","","","","","","","","false","322.3","296.07114317029976","371.46","3","","","","","","",""
"","","","","","html-keyboard-response","105","1023729","0.0-10.0-1.8","","","","","","","","","","","","","","","","371.0099999468053","305.99996738265185","3460.7999999523163","","","","","","","","","","","","","","",""
"","","","","","html-keyboard-response","105","1023729","0.0-10.0-1.8","","","","","","","","","","reconstruct","","","","","","371.0099999468053","305.99996738265185","3460.7999999523163","","","","","","","","","4","500","350","136.28801482174018","205.05489569349075","99.50300560904626","true"
"","","","","","html-keyboard-response","106","1026740","0.0-10.0-0.9","","","","null","","null","","","","fallScene","","","","","","","","","","","","false","322.3","296.07114317029976","371.46","3","","","","","","",""
"","","","","","html-keyboard-response","107","1029879","0.0-10.0-1.9","","","","","","","","","","","","","","","","327.0001037799848","269.99000053852876","3139.300000190735","","","","","","","","","","","","","","",""
"","","","","","html-keyboard-response","107","1029879","0.0-10.0-1.9","","","","","","","","","","reconstruct","","","","","","327.0001037799848","269.99000053852876","3139.300000190735","","","","","","","","","5","625","250","298.669613902503","350.6375970361613","106.0790337206482","true"
"","","","","","html-keyboard-response","108","1032883","0.0-10.0-0.10","","","","null","","null","","","","fallScene","","","","","","","","","","","","true","604.4000000000001","596.8711431702998","394.5","10","","","","","","",""
"","","","","","html-keyboard-response","109","1035980","0.0-10.0-1.10","","","","","","","","","","","","","","","","313.01","271.00000000565745","3095.9000000953674","","","","","","","","","","","","","","",""
"","","","","","html-keyboard-response","109","1035980","0.0-10.0-1.10","","","","","","","","","","reconstruct","","","","","","313.01","271.00000000565745","3095.9000000953674","","","","","","","","","6","625","350","321.83654251670384","52.64487236707649","309.5632384514544","false"
"","","","","","html-keyboard-response","110","1038988","0.0-10.0-0.11","","","","null","","null","","","","fallScene","","","","","","","","","","","","true","604.4000000000001","667.6211431702998","201.78","9","","","","","","",""
"","","","","","html-keyboard-response","111","1042895","0.0-10.0-1.11","","","","","","","","","","","","","","","","408.9916849382249","288.9944448449458","3907.399999856949","","","","","","","","","","","","","","",""
"","","","","","html-keyboard-response","111","1042895","0.0-10.0-1.11","","","","","","","","","","reconstruct","","","","","","408.9916849382249","288.9944448449458","3907.399999856949","","","","","","","","","4","500","350","109.56363981796002","223.75436540482988","272.9387404804027","false"
"","","","","","html-keyboard-response","112","1045898","0.0-10.0-0.12","","","","null","","null","","","","fallScene","","","","","","","","","","","","true","604.4000000000001","575.4211431702997","266.76","12","","","","","","",""
"","","","","","html-keyboard-response","113","1089364","0.0-10.0-1.12","","","","","","","","","","","","","","","","326.00105568637997","321.99552797521227","43467.39999985695","","","","","","","","","","","","","","",""
"","","","","","html-keyboard-response","113","1089364","0.0-10.0-1.12","","","","","","","","","","reconstruct","","","","","","326.00105568637997","321.99552797521227","43467.39999985695","","","","","","","","","3","500","250","188.30557259593732","77.26089850056657","255.4629984776399","false"
"","","","","","html-keyboard-response","114","1092370","0.0-10.0-0.13","","","","null","","null","","","","fallScene","","","","","","","","","","","","false","604.4000000000001","575.4211431702997","266.76","12","","","","","","",""
"","","","","","html-keyboard-response","115","1276290","0.0-10.0-1.13","","","","","","","","","","","","","","","","657.9949133311385","338.99139036586763","183929","","","","","","","","","","","","","","",""
"","","","","","html-keyboard-response","115","1276290","0.0-10.0-1.13","","","","","","","","","","reconstruct","","","","","","657.9949133311385","338.99139036586763","183929","","","","","","","","","5","625","250","94.9111788198818","52.33508043884061","109.7077995074251","false"
"","","","","","html-keyboard-response","116","1279304","0.0-10.0-0.14","","","","null","","null","","","","fallScene","","","","","","","","","","","","false","500","553.4711431702997","282.51","7","","","","","","",""
"","","","","","html-keyboard-response","117","1281656","0.0-10.0-1.14","","","","","","","","","","","","","","","","704.9900917620843","401.9986484004269","2352","","","","","","","","","","","","","","",""
"","","","","","html-keyboard-response","117","1281656","0.0-10.0-1.14","","","","","","","","","","reconstruct","","","","","","704.9900917620843","401.9986484004269","2352","","","","","","","","","6","625","350","95.40583952556509","98.34265330650666","192.96509756668613","false"
"","","","","","html-keyboard-response","118","1285615","0.0-10.0-0.15","","","","null","","null","","","","fallScene","","","","","","","","","","","","false","322.3","296.07114317029976","371.46","3","","","","","","",""
"","","","","","html-keyboard-response","119","1290824","0.0-10.0-1.15","","","","","","","","","","","","","","","","251.00970149635742","330.0024250708086","5207.400000095367","","","","","","","","","","","","","","",""
"","","","","","html-keyboard-response","119","1290824","0.0-10.0-1.15","","","","","","","","","","reconstruct","","","","","","251.00970149635742","330.0024250708086","5207.400000095367","","","","","","","","","2","375","350","125.59258388165686","81.79422987254857","61.23123422521895","false"
"","","","","","html-keyboard-response","120","1293831","0.0-10.0-0.16","","","","null","","null","","","","fallScene","","","","","","","","","","","","false","322.3","379.3711431702997","245.25","1","","","","","","",""
"","","","","","html-keyboard-response","121","1296857","0.0-10.0-1.16","","","","","","","","","","","","","","","","292.0070728276243","263.9929306924386","3025","","","","","","","","","","","","","","",""
"","","","","","html-keyboard-response","121","1296857","0.0-10.0-1.16","","","","","","","","","","reconstruct","","","","","","292.0070728276243","263.9929306924386","3025","","","","","","","","","5","625","250","333.2868009030518","245.67478056867253","89.35199067609794","false"
"","","","","","html-keyboard-response","122","1299862","0.0-10.0-0.17","","","","null","","null","","","","fallScene","","","","","","","","","","","","true","500","453.67114317029973","210.33","5","","","","","","",""
"","","","","","html-keyboard-response","123","1302339","0.0-10.0-1.17","","","","","","","","","","","","","","","","490.00893214307297","293.9955036881643","2477.0999999046326","","","","","","","","","","","","","","",""
"","","","","","html-keyboard-response","123","1302339","0.0-10.0-1.17","","","","","","","","","","reconstruct","","","","","","490.00893214307297","293.9955036881643","2477.0999999046326","","","","","","","","","1","375","250","123.13674844442353","88.10708069004328","91.21596030752532","false"
"","","","","","html-button-response","124","1304508","0.0-11.0","","","","2166","","0","","","","","<p><span style = ""font-size:40px;"">BREAK</span></p><p>You are almost done! Click 'Next' when you are ready for the next set.</p>","","","","","","","","","","","","","","","","","","","","","",""
"","","","","","html-keyboard-response","125","1307518","0.0-12.0-0.0","","","","null","","null","","","","fallScene","","","","","","","","","","","","false","500","553.4711431702997","282.51","7","","","","","","",""
"","","","","","html-keyboard-response","126","1383454","0.0-12.0-1.0","","","","","","","","","","","","","","","","269.00999216839466","353.99960430975136","75939.09999990463","","","","","","","","","","","","","","",""
"","","","","","html-keyboard-response","126","1383454","0.0-12.0-1.0","","","","","","","","","","reconstruct","","","","","","269.00999216839466","353.99960430975136","75939.09999990463","","","","","","","","","2","375","350","106.06544486673472","190.8057888129016","293.3068528924843","false"
"","","","","","html-keyboard-response","127","1386460","0.0-12.0-0.1","","","","null","","null","","","","fallScene","","","","","","","","","","","","false","322.3","379.3711431702997","245.25","1","","","","","","",""
"","","","","","html-keyboard-response","128","1389538","0.0-12.0-1.1","","","","","","","","","","","","","","","","278.0034172138683","334.9906019869452","3077","","","","","","","","","","","","","","",""
"","","","","","html-keyboard-response","128","1389538","0.0-12.0-1.1","","","","","","","","","","reconstruct","","","","","","278.0034172138683","334.9906019869452","3077","","","","","","","","","1","375","250","128.96410158757448","6.455183391295546","135.38386724627674","false"
"","","","","","html-keyboard-response","129","1392545","0.0-12.0-0.2","","","","null","","null","","","","fallScene","","","","","","","","","","","","true","322.3","379.3711431702997","245.25","1","","","","","","",""
"","","","","","html-keyboard-response","130","1394988","0.0-12.0-1.2","","","","","","","","","","","","","","","","402.0097340449204","293.0022909320129","2442","","","","","","","","","","","","","","",""
"","","","","","html-keyboard-response","130","1394988","0.0-12.0-1.2","","","","","","","","","","reconstruct","","","","","","402.0097340449204","293.0022909320129","2442","","","","","","","","","6","625","350","230.15950458261776","267.03201644646543","52.84682664119066","true"
"","","","","","html-keyboard-response","131","1398610","0.0-12.0-0.3","","","","null","","null","","","","fallScene","","","","","","","","","","","","true","322.3","379.3711431702997","245.25","1","","","","","","",""
"","","","","","html-keyboard-response","132","1413321","0.0-12.0-1.3","","","","","","","","","","","","","","","","319.00004970181635","332.0099998764857","14709.299999952316","","","","","","","","","","","","","","",""
"","","","","","html-keyboard-response","132","1413321","0.0-12.0-1.3","","","","","","","","","","reconstruct","","","","","","319.00004970181635","332.0099998764857","14709.299999952316","","","","","","","","","2","375","350","58.81865807584429","104.84116268248488","105.69752364718937","false"
"","","","","","html-keyboard-response","133","1416329","0.0-12.0-0.4","","","","null","","null","","","","fallScene","","","","","","","","","","","","false","500","553.4711431702997","282.51","7","","","","","","",""
"","","","","","html-keyboard-response","134","1419153","0.0-12.0-1.4","","","","","","","","","","","","","","","","387.9999920093965","291.9900000031925","2823.7999999523163","","","","","","","","","","","","","","",""
"","","","","","html-keyboard-response","134","1419153","0.0-12.0-1.4","","","","","","","","","","reconstruct","","","","","","387.9999920093965","291.9900000031925","2823.7999999523163","","","","","","","","","3","500","250","119.61254904968521","62.57845677178917","165.74248781339983","false"
"","","","","","html-keyboard-response","135","1422160","0.0-12.0-0.5","","","","null","","null","","","","fallScene","","","","","","","","","","","","false","604.4000000000001","650.0211431702996","404.58000000000004","11","","","","","","",""
"","","","","","html-keyboard-response","136","1425020","0.0-12.0-1.5","","","","","","","","","","","","","","","","611.0019607327754","265.99019410753766","2858.7999999523163","","","","","","","","","","","","","","",""
"","","","","","html-keyboard-response","136","1425020","0.0-12.0-1.5","","","","","","","","","","reconstruct","","","","","","611.0019607327754","265.99019410753766","2858.7999999523163","","","","","","","","","2","375","350","250.5086285056937","280.384745645512","143.9778833550598","true"
"","","","","","html-keyboard-response","137","1428024","0.0-12.0-0.6","","","","null","","null","","","","fallScene","","","","","","","","","","","","false","500","479.92114317029973","330.87","6","","","","","","",""
"","","","","","html-keyboard-response","138","1430919","0.0-12.0-1.6","","","","","","","","","","","","","","","","625","258.99","2894.9000000953674","","","","","","","","","","","","","","",""
"","","","","","html-keyboard-response","138","1430919","0.0-12.0-1.6","","","","","","","","","","reconstruct","","","","","","625","258.99","2894.9000000953674","","","","","","","","","6","625","350","91.00999999999999","146.33465617895396","161.909261930912","false"
"","","","","","html-keyboard-response","139","1433927","0.0-12.0-0.7","","","","null","","null","","","","fallScene","","","","","","","","","","","","true","604.4000000000001","596.8711431702998","394.5","10","","","","","","",""
"","","","","","html-keyboard-response","140","1436953","0.0-12.0-1.7","","","","","","","","","","","","","","","","236.9910569764484","268.9955253681989","3024.7999999523163","","","","","","","","","","","","","","",""
"","","","","","html-keyboard-response","140","1436953","0.0-12.0-1.7","","","","","","","","","","reconstruct","","","","","","236.9910569764484","268.9955253681989","3024.7999999523163","","","","","","","","","1","375","250","139.3100798165438","264.7773671817432","381.1365235601258","false"
"","","","","","html-keyboard-response","141","1439960","0.0-12.0-0.8","","","","null","","null","","","","fallScene","","","","","","","","","","","","true","604.4000000000001","667.6211431702998","201.78","9","","","","","","",""
"","","","","","html-keyboard-response","142","1442603","0.0-12.0-1.8","","","","","","","","","","","","","","","","411.00978108864496","267.0020809384709","2642.5","","","","","","","","","","","","","","",""
"","","","","","html-keyboard-response","142","1442603","0.0-12.0-1.8","","","","","","","","","","reconstruct","","","","","","411.00978108864496","267.0020809384709","2642.5","","","","","","","","","2","375","350","90.47297332682435","328.0187522540336","264.7702985445055","true"
"","","","","","html-keyboard-response","143","1445607","0.0-12.0-0.9","","","","null","","null","","","","fallScene","","","","","","","","","","","","false","500","510.8711431702997","369.03","8","","","","","","",""
"","","","","","html-keyboard-response","144","1448653","0.0-12.0-1.9","","","","","","","","","","","","","","","","345.9937532358395","269.9921911628572","3045","","","","","","","","","","","","","","",""
"","","","","","html-keyboard-response","144","1448653","0.0-12.0-1.9","","","","","","","","","","reconstruct","","","","","","345.9937532358395","269.9921911628572","3045","","","","","","","","","3","500","250","155.29846023021517","119.5254058927605","192.3357514630665","false"
"","","","","","html-keyboard-response","145","1451663","0.0-12.0-0.10","","","","null","","null","","","","fallScene","","","","","","","","","","","","true","500","553.4711431702997","282.51","7","","","","","","",""
"","","","","","html-keyboard-response","146","1456386","0.0-12.0-1.10","","","","","","","","","","","","","","","","501.99999999999636","302.01","4723.099999904633","","","","","","","","","","","","","","",""
"","","","","","html-keyboard-response","146","1456386","0.0-12.0-1.10","","","","","","","","","","reconstruct","","","","","","501.99999999999636","302.01","4723.099999904633","","","","","","","","","5","625","250","133.54415037732238","78.57020719944529","55.041153505880146","false"
"","","","","","html-keyboard-response","147","1459390","0.0-12.0-0.11","","","","null","","null","","","","fallScene","","","","","","","","","","","","true","322.3","379.3711431702997","245.25","1","","","","","","",""
"","","","","","html-keyboard-response","148","1462221","0.0-12.0-1.11","","","","","","","","","","","","","","","","664.0089442715615","262.9955278633481","2830.9000000953674","","","","","","","","","","","","","","",""
"","","","","","html-keyboard-response","148","1462221","0.0-12.0-1.11","","","","","","","","","","reconstruct","","","","","","664.0089442715615","262.9955278633481","2830.9000000953674","","","","","","","","","3","500","250","164.5230000502034","120.7223409317444","285.1904303704988","false"
"","","","","","html-keyboard-response","149","1465231","0.0-12.0-0.12","","","","null","","null","","","","fallScene","","","","","","","","","","","","false","604.4000000000001","667.6211431702998","201.78","9","","","","","","",""
"","","","","","html-keyboard-response","150","1467786","0.0-12.0-1.12","","","","","","","","","","","","","","","","579.0045123536431","319.0089240497869","2554.800000190735","","","","","","","","","","","","","","",""
"","","","","","html-keyboard-response","150","1467786","0.0-12.0-1.12","","","","","","","","","","reconstruct","","","","","","579.0045123536431","319.0089240497869","2554.800000190735","","","","","","","","","3","500","250","104.89968813464704","174.4190816330545","146.9541693561851","true"
"","","","","","html-keyboard-response","151","1470790","0.0-12.0-0.13","","","","null","","null","","","","fallScene","","","","","","","","","","","","true","322.3","308.07114317029976","253.89","2","","","","","","",""
"","","","","","html-keyboard-response","152","1491368","0.0-12.0-1.13","","","","","","","","","","","","","","","","700.01","330.9999999818281","20577.900000095367","","","","","","","","","","","","","","",""
"","","","","","html-keyboard-response","152","1491368","0.0-12.0-1.13","","","","","","","","","","reconstruct","","","","","","700.01","330.9999999818281","20577.900000095367","","","","","","","","","2","375","350","325.5648938394472","117.11790630185682","399.4521493122421","false"
"","","","","","html-keyboard-response","153","1494373","0.0-12.0-0.14","","","","null","","null","","","","fallScene","","","","","","","","","","","","true","604.4000000000001","650.0211431702996","404.58000000000004","11","","","","","","",""
"","","","","","html-keyboard-response","154","1497068","0.0-12.0-1.14","","","","","","","","","","","","","","","","388.0087413805907","318.0048567752026","2694.600000143051","","","","","","","","","","","","","","",""
"","","","","","html-keyboard-response","154","1497068","0.0-12.0-1.14","","","","","","","","","","reconstruct","","","","","","388.0087413805907","318.0048567752026","2694.600000143051","","","","","","","","","1","375","250","69.23790795021837","315.4863001632535","275.9452012918617","true"
"","","","","","html-keyboard-response","155","1500070","0.0-12.0-0.15","","","","null","","null","","","","fallScene","","","","","","","","","","","","true","322.3","356.42114317029973","357.87","4","","","","","","",""
"","","","","","html-keyboard-response","156","1502667","0.0-12.0-1.15","","","","","","","","","","","","","","","","660.0085749815546","287.00514487039084","2596.5999999046326","","","","","","","","","","","","","","",""
"","","","","","html-keyboard-response","156","1502667","0.0-12.0-1.15","","","","","","","","","","reconstruct","","","","","","660.0085749815546","287.00514487039084","2596.5999999046326","","","","","","","","","4","500","350","171.96248381675645","143.79438455142665","311.7485468230667","false"
"","","","","","html-keyboard-response","157","1505676","0.0-12.0-0.16","","","","null","","null","","","","fallScene","","","","","","","","","","","","true","500","453.67114317029973","210.33","5","","","","","","",""
"","","","","","html-keyboard-response","158","1509067","0.0-12.0-1.16","","","","","","","","","","","","","","","","365.00928734101126","319.0037074650289","3390.399999856949","","","","","","","","","","","","","","",""
"","","","","","html-keyboard-response","158","1509067","0.0-12.0-1.16","","","","","","","","","","reconstruct","","","","","","365.00928734101126","319.0037074650289","3390.399999856949","","","","","","","","","4","500","350","138.50365574632016","147.15322584009792","140.2529834737508","true"
"","","","","","html-keyboard-response","159","1512076","0.0-12.0-0.17","","","","null","","null","","","","fallScene","","","","","","","","","","","","false","500","510.8711431702997","369.03","8","","","","","","",""
"","","","","","html-keyboard-response","160","1533784","0.0-12.0-1.17","","","","","","","","","","","","","","","","307.9951398039631","418.9912605209261","21708.5","","","","","","","","","","","","","","",""
"","","","","","html-keyboard-response","160","1533784","0.0-12.0-1.17","","","","","","","","","","reconstruct","","","","","","307.9951398039631","418.9912605209261","21708.5","","","","","","","","","6","625","350","324.4254543283791","115.70452394463331","208.93731187783973","false"
"","","","","","survey-text","161","1548400","0.0-13.0","","","","14610","","{""Summary"":""where was the triangle?""}","","","","","","","","","","","","","","","","","","","","","","","","","","",""
