"success","timeout","failed_images","failed_audio","failed_video","trial_type","trial_index","time_elapsed","internal_node_id","subject_id","study_id","session_id","rt","url","response","view_history","triangle_prac_final_x","triangle_prac_final_y","trial_name","stimulus","ball_X_prac_occ","ball_Y_prac_occ","obstacle_X_prac_occ","obstacle_Y_prac_occ","triangle_final_x","triangle_final_y","response_time","obstacle_X_prac_occ_init","obstacle_Y_prac_occ_init","question_order","flipped","ball_X","obstacle_groundTruth_x","obstacle_groundTruth_y","stimulus_idx","obstacle_idx","obstacle_initial_x","obstacle_initial_y","final_to_initial_distance","initial_to_groundTruth_distance","final_to_groundTruth_distance","finalInBetweenInitGround"
"true","false","[]","[]","[]","preload","0","193","0.0-0.0","","","","","","","","","","","","","","","","","","","","","","","","","","","","","","","","",""
"","","","","","external-html","1","28401","0.0-1.0","","","","28150","consent.html","","","","","","","","","","","","","","","","","","","","","","","","","","","",""
"true","","","","","fullscreen","2","32385","0.0-2.0","","","","3471","","","","","","","","","","","","","","","","","","","","","","","","","","","","",""
"","","","","","survey-text","3","38462","0.0-3.0","","","","6069","","{""prolificID"":""LiuShuze""}","","","","","","","","","","","","","","","","","","","","","","","","","","",""
"","","","","","instructions","4","64301","0.0-4.0-0.0-0.0","","","","25838","","","[{""page_index"":0,""viewing_time"":5971},{""page_index"":1,""viewing_time"":3363},{""page_index"":2,""viewing_time"":4640},{""page_index"":3,""viewing_time"":11864}]","","","","","","","","","","","","","","","","","","","","","","","","","",""
"","","","","","html-keyboard-response","5","88997","0.0-4.0-0.0-1.0","","","","","","","","484.009053032987","299.0274407048932","","","","","","","","","","","","","","","","","","","","","","","",""
"","","","","","html-keyboard-response","5","88997","0.0-4.0-0.0-1.0","","","","","","","","","","practiceTrial_move","","","","","","","","","","","","","","","","","","","","","","",""
"","","","","","html-button-response","6","91761","0.0-4.0-0.0-2.0","","","","2763","","0","","","","","<p>To help you get more comfortable with the task, let's begin with a practice trial first!</p><p>As described previously, you will first see a video of a ball falling, some of it behind a gray screen.</p><p>After the video, you will drag a triangle to the spot you think the ball hit the triangle behind the screen.</p><p>Click 'Next' to start your practice trial.</p>","","","","","","","","","","","","","","","","","","","","","",""
"","","","","","html-keyboard-response","7","94773","0.0-4.0-0.0-3.0","","","","null","","null","","","","fallScene_practiceTrial_withOccluder","","400","50","420","415","","","","","","","","","","","","","","","","","",""
"","","","","","html-keyboard-response","8","98358","0.0-4.0-0.0-4.0","","","","","","","","","","","","","","","","396.01","331","3583.5999999046326","","","","","","","","","","","","","","",""
"","","","","","html-keyboard-response","8","98358","0.0-4.0-0.0-4.0","","","","","","","","","","reconstruct_practiceTrial_withOccluder","","","","","","396.01","331","3583.5999999046326","500","300","","","","","","","","","","","","",""
"","","","","","html-button-response","9","100873","0.0-4.0-0.0-5.0","","","","2514","","1","","","","","<p>Ok! We're almost ready to get started.</p><p>We just have a <b>brief quiz</b>, to make sure you understood the task.</p><p>If you need to review the instructions, click 'Previous'.</p><p>It's important to understand the task to do the study, so you have to pass the quiz to move to the study.</p>","","","","","","","","","","","","","","","","","","","","","",""
"","","","","","survey-multi-choice","10","107659","0.0-4.0-1.0-0.0","","","","6785","","{""generalProcedure"":""Watch a video of a ball falling, some of it behind a gray screen. After each video, drag a triangle to where I think the ball hit the triangle behind the screen.""}","","","","","","","","","","","","","","","[0]","","","","","","","","","","","",""
"","","","","","survey-multi-choice","11","110141","0.0-4.0-1.0-1.0","","","","2481","","{""checkBallHitObstacle"":""Yes.""}","","","","","","","","","","","","","","","[0]","","","","","","","","","","","",""
"","","","","","survey-multi-choice","12","112564","0.0-4.0-1.0-2.0","","","","2421","","{""checkTriangleVisibility"":""No, the triangle is hidden behind the gray screen.""}","","","","","","","","","","","","","","","[0]","","","","","","","","","","","",""
"","","","","","instructions","13","114978","0.0-5.0","","","","2412","","","[{""page_index"":0,""viewing_time"":2412}]","","","","","","","","","","","","","","","","","","","","","","","","","",""
"","","","","","html-keyboard-response","14","117995","0.0-6.0-0.0","","","","null","","null","","","","fallScene","","","","","","","","","","","","false","322.3","296.07114317029976","371.46","3","","","","","","",""
"","","","","","html-keyboard-response","15","122141","0.0-6.0-1.0","","","","","","","","","","","","","","","","298.0099878844081","291.0004921026838","4144.900000095367","","","","","","","","","","","","","","",""
"","","","","","html-keyboard-response","15","122141","0.0-6.0-1.0","","","","","","","","","","reconstruct","","","","","","298.0099878844081","291.0004921026838","4144.900000095367","","","","","","","","","3","500","250","206.10920733222767","237.3594536728385","80.48286482167315","true"
"","","","","","html-keyboard-response","16","125158","0.0-6.0-0.1","","","","null","","null","","","","fallScene","","","","","","","","","","","","true","322.3","356.42114317029973","357.87","4","","","","","","",""
"","","","","","html-keyboard-response","17","127595","0.0-6.0-1.1","","","","","","","","","","","","","","","","638.9900000000077","279.000000394746","2436.699999809265","","","","","","","","","","","","","","",""
"","","","","","html-keyboard-response","17","127595","0.0-6.0-1.1","","","","","","","","","","reconstruct","","","","","","638.9900000000077","279.000000394746","2436.699999809265","","","","","","","","","5","625","250","32.198138500470556","289.4314067891538","293.3694525470926","false"
"","","","","","html-keyboard-response","18","130604","0.0-6.0-0.2","","","","null","","null","","","","fallScene","","","","","","","","","","","","false","500","510.8711431702997","369.03","8","","","","","","",""
"","","","","","html-keyboard-response","19","133129","0.0-6.0-1.2","","","","","","","","","","","","","","","","484.01","258.99999999854657","2524.0999999046326","","","","","","","","","","","","","","",""
"","","","","","html-keyboard-response","19","133129","0.0-6.0-1.2","","","","","","","","","","reconstruct","","","","","","484.01","258.99999999854657","2524.0999999046326","","","","","","","","","3","500","250","18.34884464956414","119.5254058927605","113.2612992717953","true"
"","","","","","html-keyboard-response","20","136136","0.0-6.0-0.3","","","","null","","null","","","","fallScene","","","","","","","","","","","","true","500","553.4711431702997","282.51","7","","","","","","",""
"","","","","","html-keyboard-response","21","139526","0.0-6.0-1.3","","","","","","","","","","","","","","","","468.9986873570352","261.9999134152338","3389.5999999046326","","","","","","","","","","","","","","",""
"","","","","","html-keyboard-response","21","139526","0.0-6.0-1.3","","","","","","","","","","reconstruct","","","","","","468.9986873570352","261.9999134152338","3389.5999999046326","","","","","","","","","6","625","350","179.11009124349863","98.34265330650666","86.92674756850467","false"
"","","","","","html-keyboard-response","22","142533","0.0-6.0-0.4","","","","null","","null","","","","fallScene","","","","","","","","","","","","false","500","479.92114317029973","330.87","6","","","","","","",""
"","","","","","html-keyboard-response","23","144925","0.0-6.0-1.4","","","","","","","","","","","","","","","","470.00707142277264","217.0070707128333","2391.699999809265","","","","","","","","","","","","","","",""
"","","","","","html-keyboard-response","23","144925","0.0-6.0-1.4","","","","","","","","","","reconstruct","","","","","","470.00707142277264","217.0070707128333","2391.699999809265","","","","","","","","","3","500","250","44.58821758701108","83.32537063576497","114.293724606688","false"
"","","","","","html-keyboard-response","24","147929","0.0-6.0-0.5","","","","null","","null","","","","fallScene","","","","","","","","","","","","false","500","479.92114317029973","330.87","6","","","","","","",""
"","","","","","html-keyboard-response","25","150415","0.0-6.0-1.5","","","","","","","","","","","","","","","","486.9999999999364","282.01","2486.199999809265","","","","","","","","","","","","","","",""
"","","","","","html-keyboard-response","25","150415","0.0-6.0-1.5","","","","","","","","","","reconstruct","","","","","","486.9999999999364","282.01","2486.199999809265","","","","","","","","","1","375","250","116.48450583655215","132.47038606482027","49.37013078790145","true"
"","","","","","html-keyboard-response","26","153426","0.0-6.0-0.6","","","","null","","null","","","","fallScene","","","","","","","","","","","","false","500","479.92114317029973","330.87","6","","","","","","",""
"","","","","","html-keyboard-response","27","156461","0.0-6.0-1.6","","","","","","","","","","","","","","","","468.9900000069001","300.99998825256284","3034.5999999046326","","","","","","","","","","","","","","",""
"","","","","","html-keyboard-response","27","156461","0.0-6.0-1.6","","","","","","","","","","reconstruct","","","","","","468.9900000069001","300.99998825256284","3034.5999999046326","","","","","","","","","5","625","250","164.13445372501343","166.09585063755407","31.80734966404419","true"
"","","","","","html-keyboard-response","28","159473","0.0-6.0-0.7","","","","null","","null","","","","fallScene","","","","","","","","","","","","false","500","453.67114317029973","210.33","5","","","","","","",""
"","","","","","html-keyboard-response","29","161703","0.0-6.0-1.7","","","","","","","","","","","","","","","","512.9900002465098","323.9999297850727","2228.7000002861023","","","","","","","","","","","","","","",""
"","","","","","html-keyboard-response","29","161703","0.0-6.0-1.7","","","","","","","","","","reconstruct","","","","","","512.9900002465098","323.9999297850727","2228.7000002861023","","","","","","","","","3","500","250","75.13141629571491","60.992391944789844","128.21692455433174","false"
"","","","","","html-keyboard-response","30","164705","0.0-6.0-0.8","","","","null","","null","","","","fallScene","","","","","","","","","","","","false","322.3","296.07114317029976","371.46","3","","","","","","",""
"","","","","","html-keyboard-response","31","167044","0.0-6.0-1.8","","","","","","","","","","","","","","","","298.00000000006617","318.99","2338.300000190735","","","","","","","","","","","","","","",""
"","","","","","html-keyboard-response","31","167044","0.0-6.0-1.8","","","","","","","","","","reconstruct","","","","","","298.00000000006617","318.99","2338.300000190735","","","","","","","","","1","375","250","103.3857828716783","144.8526701184459","52.5054415148538","true"
"","","","","","html-keyboard-response","32","170050","0.0-6.0-0.9","","","","null","","null","","","","fallScene","","","","","","","","","","","","true","604.4000000000001","575.4211431702997","266.76","12","","","","","","",""
"","","","","","html-keyboard-response","33","173512","0.0-6.0-1.9","","","","","","","","","","","","","","","","401.0000004324659","295.99000000000933","3461.5","","","","","","","","","","","","","","",""
"","","","","","html-keyboard-response","33","173512","0.0-6.0-1.9","","","","","","","","","","reconstruct","","","","","","401.0000004324659","295.99000000000933","3461.5","","","","","","","","","6","625","350","230.41935662234252","96.88632847073895","176.85340803606906","false"
"","","","","","html-keyboard-response","34","176514","0.0-6.0-0.10","","","","null","","null","","","","fallScene","","","","","","","","","","","","false","322.3","379.3711431702997","245.25","1","","","","","","",""
"","","","","","html-keyboard-response","35","178769","0.0-6.0-1.10","","","","","","","","","","","","","","","","328.9999851368666","239.00999998895435","2253.6000003814697","","","","","","","","","","","","","","",""
"","","","","","html-keyboard-response","35","178769","0.0-6.0-1.10","","","","","","","","","","reconstruct","","","","","","328.9999851368666","239.00999998895435","2253.6000003814697","","","","","","","","","1","375","250","47.29462408827537","6.455183391295546","50.7561933340843","false"
"","","","","","html-keyboard-response","36","181778","0.0-6.0-0.11","","","","null","","null","","","","fallScene","","","","","","","","","","","","false","604.4000000000001","596.8711431702998","394.5","10","","","","","","",""
"","","","","","html-keyboard-response","37","184487","0.0-6.0-1.11","","","","","","","","","","","","","","","","586.0099994992644","276.99989992771293","2708.300000190735","","","","","","","","","","","","","","",""
"","","","","","html-keyboard-response","37","184487","0.0-6.0-1.11","","","","","","","","","","reconstruct","","","","","","586.0099994992644","276.99989992771293","2708.300000190735","","","","","","","","","3","500","250","90.1482923297495","173.96628517940113","118.00100829586307","true"
"","","","","","html-keyboard-response","38","187492","0.0-6.0-0.12","","","","null","","null","","","","fallScene","","","","","","","","","","","","true","604.4000000000001","575.4211431702997","266.76","12","","","","","","",""
"","","","","","html-keyboard-response","39","190197","0.0-6.0-1.12","","","","","","","","","","","","","","","","362.00999999999993","258.00000004137894","2704.2999997138977","","","","","","","","","","","","","","",""
"","","","","","html-keyboard-response","39","190197","0.0-6.0-1.12","","","","","","","","","","reconstruct","","","","","","362.00999999999993","258.00000004137894","2704.2999997138977","","","","","","","","","2","375","350","92.91254001686896","217.0196586249499","213.5908556762888","true"
"","","","","","html-keyboard-response","40","193205","0.0-6.0-0.13","","","","null","","null","","","","fallScene","","","","","","","","","","","","false","500","453.67114317029973","210.33","5","","","","","","",""
"","","","","","html-keyboard-response","41","196163","0.0-6.0-1.13","","","","","","","","","","","","","","","","480.009999500038","259.99990000505454","2957.0999999046326","","","","","","","","","","","","","","",""
"","","","","","html-keyboard-response","41","196163","0.0-6.0-1.13","","","","","","","","","","reconstruct","","","","","","480.009999500038","259.99990000505454","2957.0999999046326","","","","","","","","","6","625","350","170.65203849962987","221.04589134967412","56.2212977373407","true"
"","","","","","html-keyboard-response","42","199169","0.0-6.0-0.14","","","","null","","null","","","","fallScene","","","","","","","","","","","","true","604.4000000000001","650.0211431702996","404.58000000000004","11","","","","","","",""
"","","","","","html-keyboard-response","43","202719","0.0-6.0-1.14","","","","","","","","","","","","","","","","353.99990001125303","322.99000049989996","3549.7999997138977","","","","","","","","","","","","","","",""
"","","","","","html-keyboard-response","43","202719","0.0-6.0-1.14","","","","","","","","","","reconstruct","","","","","","353.99990001125303","322.99000049989996","3549.7999997138977","","","","","","","","","5","625","250","280.65743240984415","156.59193467592334","307.05944769678354","false"
"","","","","","html-keyboard-response","44","205732","0.0-6.0-0.15","","","","null","","null","","","","fallScene","","","","","","","","","","","","true","322.3","296.07114317029976","371.46","3","","","","","","",""
"","","","","","html-keyboard-response","45","208851","0.0-6.0-1.15","","","","","","","","","","","","","","","","691.0000004158102","311.00999999999135","3118.0999999046326","","","","","","","","","","","","","","",""
"","","","","","html-keyboard-response","45","208851","0.0-6.0-1.15","","","","","","","","","","reconstruct","","","","","","691.0000004158102","311.00999999999135","3118.0999999046326","","","","","","","","","5","625","250","89.87891941320773","350.6375970361613","399.5284780653887","false"
"","","","","","html-keyboard-response","46","211862","0.0-6.0-0.16","","","","null","","null","","","","fallScene","","","","","","","","","","","","true","604.4000000000001","575.4211431702997","266.76","12","","","","","","",""
"","","","","","html-keyboard-response","47","216517","0.0-6.0-1.16","","","","","","","","","","","","","","","","382.0000126688411","245.009999991975","4653.900000095367","","","","","","","","","","","","","","",""
"","","","","","html-keyboard-response","47","216517","0.0-6.0-1.16","","","","","","","","","","reconstruct","","","","","","382.0000126688411","245.009999991975","4653.900000095367","","","","","","","","","5","625","250","243.05121670755625","52.33508043884061","194.64017114874147","false"
"","","","","","html-keyboard-response","48","219526","0.0-6.0-0.17","","","","null","","null","","","","fallScene","","","","","","","","","","","","true","322.3","308.07114317029976","253.89","2","","","","","","",""
"","","","","","html-keyboard-response","49","222405","0.0-6.0-1.17","","","","","","","","","","","","","","","","657.9999949269703","264.9900000012868","2878.9000000953674","","","","","","","","","","","","","","",""
"","","","","","html-keyboard-response","49","222405","0.0-6.0-1.17","","","","","","","","","","reconstruct","","","","","","657.9999949269703","264.9900000012868","2878.9000000953674","","","","","","","","","1","375","250","283.3967135107671","67.04180767648283","350.1048575666589","false"
"","","","","","html-button-response","50","225806","0.0-7.0","","","","3398","","0","","","","","<p><span style = ""font-size:40px;"">BREAK</span></p><p>You are doing great! Click 'Next' when you are ready for the next set.</p>","","","","","","","","","","","","","","","","","","","","","",""
"","","","","","html-keyboard-response","51","228820","0.0-8.0-0.0","","","","null","","null","","","","fallScene","","","","","","","","","","","","true","500","553.4711431702997","282.51","7","","","","","","",""
"","","","","","html-keyboard-response","52","231665","0.0-8.0-1.0","","","","","","","","","","","","","","","","480.0000000272775","280.01","2844.300000190735","","","","","","","","","","","","","","",""
"","","","","","html-keyboard-response","52","231665","0.0-8.0-1.0","","","","","","","","","","reconstruct","","","","","","480.0000000272775","280.01","2844.300000190735","","","","","","","","","3","500","250","36.06383366904993","62.57845677178917","73.51366454437198","false"
"","","","","","html-keyboard-response","53","234669","0.0-8.0-0.1","","","","null","","null","","","","fallScene","","","","","","","","","","","","false","604.4000000000001","667.6211431702998","201.78","9","","","","","","",""
"","","","","","html-keyboard-response","54","237710","0.0-8.0-1.1","","","","","","","","","","","","","","","","600.0070696321205","270.99292749678824","3040.7000002861023","","","","","","","","","","","","","","",""
"","","","","","html-keyboard-response","54","237710","0.0-8.0-1.1","","","","","","","","","","reconstruct","","","","","","600.0070696321205","270.99292749678824","3040.7000002861023","","","","","","","","","6","625","350","82.86594037299903","154.2262307298703","96.75790548116456","true"
"","","","","","html-keyboard-response","55","240713","0.0-8.0-0.2","","","","null","","null","","","","fallScene","","","","","","","","","","","","false","604.4000000000001","650.0211431702996","404.58000000000004","11","","","","","","",""
"","","","","","html-keyboard-response","56","243549","0.0-8.0-1.2","","","","","","","","","","","","","","","","645.0071061592249","310.9929641986192","2834.4000000953674","","","","","","","","","","","","","","",""
"","","","","","html-keyboard-response","56","243549","0.0-8.0-1.2","","","","","","","","","","reconstruct","","","","","","645.0071061592249","310.9929641986192","2834.4000000953674","","","","","","","","","2","375","350","272.81016516707945","280.384745645512","93.72125605879047","true"
"","","","","","html-keyboard-response","57","246560","0.0-8.0-0.3","","","","null","","null","","","","fallScene","","","","","","","","","","","","false","322.3","308.07114317029976","253.89","2","","","","","","",""
"","","","","","html-keyboard-response","58","249917","0.0-8.0-1.3","","","","","","","","","","","","","","","","331.01","249.99999999629958","3355.7999997138977","","","","","","","","","","","","","","",""
"","","","","","html-keyboard-response","58","249917","0.0-8.0-1.3","","","","","","","","","","reconstruct","","","","","","331.01","249.99999999629958","3355.7999997138977","","","","","","","","","6","625","350","310.5319952931422","331.1812681770825","23.266354520686605","true"
"","","","","","html-keyboard-response","59","252923","0.0-8.0-0.4","","","","null","","null","","","","fallScene","","","","","","","","","","","","false","604.4000000000001","596.8711431702998","394.5","10","","","","","","",""
"","","","","","html-keyboard-response","60","255982","0.0-8.0-1.4","","","","","","","","","","","","","","","","602.9999995056583","282.00999999998777","3057.7999997138977","","","","","","","","","","","","","","",""
"","","","","","html-keyboard-response","60","255982","0.0-8.0-1.4","","","","","","","","","","reconstruct","","","","","","602.9999995056583","282.00999999998777","3057.7999997138977","","","","","","","","","6","625","350","71.46075931413478","52.64487236707649","112.65683725359156","false"
"","","","","","html-keyboard-response","61","258987","0.0-8.0-0.5","","","","null","","null","","","","fallScene","","","","","","","","","","","","false","322.3","379.3711431702997","245.25","1","","","","","","",""
"","","","","","html-keyboard-response","62","262593","0.0-8.0-1.5","","","","","","","","","","","","","","","","334.9901095399071","260.00147607559103","3605.3999996185303","","","","","","","","","","","","","","",""
"","","","","","html-keyboard-response","62","262593","0.0-8.0-1.5","","","","","","","","","","reconstruct","","","","","","334.9901095399071","260.00147607559103","3605.3999996185303","","","","","","","","","4","500","350","187.9574373581005","159.76195917689645","46.76838881670796","false"
"","","","","","html-keyboard-response","63","265600","0.0-8.0-0.6","","","","null","","null","","","","fallScene","","","","","","","","","","","","false","322.3","356.42114317029973","357.87","4","","","","","","",""
"","","","","","html-keyboard-response","64","269027","0.0-8.0-1.6","","","","","","","","","","","","","","","","347.01","279.9999999969477","3426.0999999046326","","","","","","","","","","","","","","",""
"","","","","","html-keyboard-response","64","269027","0.0-8.0-1.6","","","","","","","","","","reconstruct","","","","","","347.01","279.9999999969477","3426.0999999046326","","","","","","","","","4","500","350","168.24369260221118","143.79438455142665","78.4366401386957","false"
"","","","","","html-keyboard-response","65","272030","0.0-8.0-0.7","","","","null","","null","","","","fallScene","","","","","","","","","","","","true","500","553.4711431702997","282.51","7","","","","","","",""
"","","","","","html-keyboard-response","66","274751","0.0-8.0-1.7","","","","","","","","","","","","","","","","497.989999997729","310.01","2720.5999999046326","","","","","","","","","","","","","","",""
"","","","","","html-keyboard-response","66","274751","0.0-8.0-1.7","","","","","","","","","","reconstruct","","","","","","497.989999997729","310.01","2720.5999999046326","","","","","","","","","4","500","350","40.0404820151947","86.1049548628805","61.92259077053613","true"
"","","","","","html-keyboard-response","67","277760","0.0-8.0-0.8","","","","null","","null","","","","fallScene","","","","","","","","","","","","true","500","510.8711431702997","369.03","8","","","","","","",""
"","","","","","html-keyboard-response","68","280916","0.0-8.0-1.8","","","","","","","","","","","","","","","","483.0098799672906","297.990000673919","3154.300000190735","","","","","","","","","","","","","","",""
"","","","","","html-keyboard-response","68","280916","0.0-8.0-1.8","","","","","","","","","","reconstruct","","","","","","483.0098799672906","297.990000673919","3154.300000190735","","","","","","","","","5","625","250","149.8807337571643","164.90462959315064","76.30813515947652","true"
"","","","","","html-keyboard-response","69","283923","0.0-8.0-0.9","","","","null","","null","","","","fallScene","","","","","","","","","","","","false","500","510.8711431702997","369.03","8","","","","","","",""
"","","","","","html-keyboard-response","70","286976","0.0-8.0-1.9","","","","","","","","","","","","","","","","487.98371490493116","263.99676031726653","3052.2999997138977","","","","","","","","","","","","","","",""
"","","","","","html-keyboard-response","70","286976","0.0-8.0-1.9","","","","","","","","","","reconstruct","","","","","","487.98371490493116","263.99676031726653","3052.2999997138977","","","","","","","","","2","375","350","141.99252469635317","137.19733396245016","107.49798049662571","false"
"","","","","","html-keyboard-response","71","289987","0.0-8.0-0.10","","","","null","","null","","","","fallScene","","","","","","","","","","","","true","604.4000000000001","575.4211431702997","266.76","12","","","","","","",""
"","","","","","html-keyboard-response","72","293068","0.0-8.0-1.10","","","","","","","","","","","","","","","","397.00922701532977","262.00385515085367","3079.699999809265","","","","","","","","","","","","","","",""
"","","","","","html-keyboard-response","72","293068","0.0-8.0-1.10","","","","","","","","","","reconstruct","","","","","","397.00922701532977","262.00385515085367","3079.699999809265","","","","","","","","","4","500","350","135.4637251381041","112.32651707016848","178.47530008355244","false"
"","","","","","html-keyboard-response","73","296072","0.0-8.0-0.11","","","","null","","null","","","","fallScene","","","","","","","","","","","","true","500","453.67114317029973","210.33","5","","","","","","",""
"","","","","","html-keyboard-response","74","302378","0.0-8.0-1.11","","","","","","","","","","","","","","","","489.9957702321923","242.01906140520515","6305.39999961853","","","","","","","","","","","","","","",""
"","","","","","html-keyboard-response","74","302378","0.0-8.0-1.11","","","","","","","","","","reconstruct","","","","","","489.9957702321923","242.01906140520515","6305.39999961853","","","","","","","","","4","500","350","108.44338482848987","147.15322584009792","48.204513729820356","true"
"","","","","","html-keyboard-response","75","305384","0.0-8.0-0.12","","","","null","","null","","","","fallScene","","","","","","","","","","","","false","604.4000000000001","575.4211431702997","266.76","12","","","","","","",""
"","","","","","html-keyboard-response","76","308903","0.0-8.0-1.12","","","","","","","","","","","","","","","","586.0099135252073","227.99868774317886","3518.2000002861023","","","","","","","","","","","","","","",""
"","","","","","html-keyboard-response","76","308903","0.0-8.0-1.12","","","","","","","","","","reconstruct","","","","","","586.0099135252073","227.99868774317886","3518.2000002861023","","","","","","","","","1","375","250","212.15381530139302","201.1206907050833","40.181605063757225","false"
"","","","","","html-keyboard-response","77","311908","0.0-8.0-0.13","","","","null","","null","","","","fallScene","","","","","","","","","","","","true","322.3","356.42114317029973","357.87","4","","","","","","",""
"","","","","","html-keyboard-response","78","315967","0.0-8.0-1.13","","","","","","","","","","","","","","","","662.0089531627823","259.99554569015504","4057.2999997138977","","","","","","","","","","","","","","",""
"","","","","","html-keyboard-response","78","315967","0.0-8.0-1.13","","","","","","","","","","reconstruct","","","","","","662.0089531627823","259.99554569015504","4057.2999997138977","","","","","","","","","2","375","350","300.7905267644065","20.176987413846014","320.87897784437604","false"
"","","","","","html-keyboard-response","79","318972","0.0-8.0-0.14","","","","null","","null","","","","fallScene","","","","","","","","","","","","false","604.4000000000001","650.0211431702996","404.58000000000004","11","","","","","","",""
"","","","","","html-keyboard-response","80","321500","0.0-8.0-1.14","","","","","","","","","","","","","","","","634.9999997679062","305.0099999999973","2526.5","","","","","","","","","","","","","","",""
"","","","","","html-keyboard-response","80","321500","0.0-8.0-1.14","","","","","","","","","","reconstruct","","","","","","634.9999997679062","305.0099999999973","2526.5","","","","","","","","","6","625","350","46.087960416559596","60.04193539142985","100.69667148975586","false"
"","","","","","html-keyboard-response","81","324512","0.0-8.0-0.15","","","","null","","null","","","","fallScene","","","","","","","","","","","","true","500","479.92114317029973","330.87","6","","","","","","",""
"","","","","","html-keyboard-response","82","327430","0.0-8.0-1.15","","","","","","","","","","","","","","","","456.0005095188773","307.00305282074845","2917.800000190735","","","","","","","","","","","","","","",""
"","","","","","html-keyboard-response","82","327430","0.0-8.0-1.15","","","","","","","","","","reconstruct","","","","","","456.0005095188773","307.00305282074845","2917.800000190735","","","","","","","","","2","375","350","91.70507079247626","106.65084708600553","33.7909437859132","true"
"","","","","","html-keyboard-response","83","330444","0.0-8.0-0.16","","","","null","","null","","","","fallScene","","","","","","","","","","","","true","322.3","356.42114317029973","357.87","4","","","","","","",""
"","","","","","html-keyboard-response","84","332949","0.0-8.0-1.16","","","","","","","","","","","","","","","","623.999986199739","304.99000000952236","2503.7000002861023","","","","","","","","","","","","","","",""
"","","","","","html-keyboard-response","84","332949","0.0-8.0-1.16","","","","","","","","","","reconstruct","","","","","","623.999986199739","304.99000000952236","2503.7000002861023","","","","","","","","","6","625","350","45.02110756904487","268.69413695864046","272.75397638891764","false"
"","","","","","html-keyboard-response","85","335955","0.0-8.0-0.17","","","","null","","null","","","","fallScene","","","","","","","","","","","","true","500","453.67114317029973","210.33","5","","","","","","",""
"","","","","","html-keyboard-response","86","338724","0.0-8.0-1.17","","","","","","","","","","","","","","","","501.9900002440776","290.00006986767676","2768.199999809265","","","","","","","","","","","","","","",""
"","","","","","html-keyboard-response","86","338724","0.0-8.0-1.17","","","","","","","","","","reconstruct","","","","","","501.9900002440776","290.00006986767676","2768.199999809265","","","","","","","","","1","375","250","133.14077418811206","88.10708069004328","93.17742205940593","false"
"","","","","","html-button-response","87","341085","0.0-9.0","","","","2358","","0","","","","","<p><span style = ""font-size:40px;"">BREAK</span></p><p>You are halfway done! Click 'Next' when you are ready for the next set.</p>","","","","","","","","","","","","","","","","","","","","","",""
"","","","","","html-keyboard-response","88","344100","0.0-10.0-0.0","","","","null","","null","","","","fallScene","","","","","","","","","","","","false","322.3","308.07114317029976","253.89","2","","","","","","",""
"","","","","","html-keyboard-response","89","347388","0.0-10.0-1.0","","","","","","","","","","","","","","","","337.0000002462572","251.99992767825387","3288.300000190735","","","","","","","","","","","","","","",""
"","","","","","html-keyboard-response","89","347388","0.0-10.0-1.0","","","","","","","","","","reconstruct","","","","","","337.0000002462572","251.99992767825387","3288.300000190735","","","","","","","","","4","500","350","190.19204529839737","214.64812643942545","28.990535440081164","true"
"","","","","","html-keyboard-response","90","350392","0.0-10.0-0.1","","","","null","","null","","","","fallScene","","","","","","","","","","","","false","322.3","296.07114317029976","371.46","3","","","","","","",""
"","","","","","html-keyboard-response","91","353751","0.0-10.0-1.1","","","","","","","","","","","","","","","","308.00710683750214","273.0070351162548","3357.7000002861023","","","","","","","","","","","","","","",""
"","","","","","html-keyboard-response","91","353751","0.0-10.0-1.1","","","","","","","","","","reconstruct","","","","","","308.00710683750214","273.0070351162548","3357.7000002861023","","","","","","","","","4","500","350","206.855475311861","205.05489569349075","99.17385503783107","false"
"","","","","","html-keyboard-response","92","356755","0.0-10.0-0.2","","","","null","","null","","","","fallScene","","","","","","","","","","","","true","500","510.8711431702997","369.03","8","","","","","","",""
"","","","","","html-keyboard-response","93","359530","0.0-10.0-1.2","","","","","","","","","","","","","","","","516","252.99000000000004","2776.699999809265","","","","","","","","","","","","","","",""
"","","","","","html-keyboard-response","93","359530","0.0-10.0-1.2","","","","","","","","","","reconstruct","","","","","","516","252.99000000000004","2776.699999809265","","","","","","","","","4","500","350","98.3205985539144","21.91626459570958","116.15328997656307","false"
"","","","","","html-keyboard-response","94","362535","0.0-10.0-0.3","","","","null","","null","","","","fallScene","","","","","","","","","","","","false","322.3","379.3711431702997","245.25","1","","","","","","",""
"","","","","","html-keyboard-response","95","367133","0.0-10.0-1.3","","","","","","","","","","","","","","","","324.00007018859696","226.009999753675","4597","","","","","","","","","","","","","","",""
"","","","","","html-keyboard-response","95","367133","0.0-10.0-1.3","","","","","","","","","","reconstruct","","","","","","324.00007018859696","226.009999753675","4597","","","","","","","","","6","625","350","325.53721432050315","267.03201644646543","58.61854086058129","false"
"","","","","","html-keyboard-response","96","370141","0.0-10.0-0.4","","","","null","","null","","","","fallScene","","","","","","","","","","","","true","500","453.67114317029973","210.33","5","","","","","","",""
"","","","","","html-keyboard-response","97","373403","0.0-10.0-1.4","","","","","","","","","","","","","","","","496.990000000049","277.99999900996187","3261.5","","","","","","","","","","","","","","",""
"","","","","","html-keyboard-response","97","373403","0.0-10.0-1.4","","","","","","","","","","reconstruct","","","","","","496.990000000049","277.99999900996187","3261.5","","","","","","","","","5","625","250","131.03648363927246","175.86155373637507","80.34769519435237","true"
"","","","","","html-keyboard-response","98","376416","0.0-10.0-0.5","","","","null","","null","","","","fallScene","","","","","","","","","","","","true","322.3","356.42114317029973","357.87","4","","","","","","",""
"","","","","","html-keyboard-response","99","379700","0.0-10.0-1.5","","","","","","","","","","","","","","","","652.0000999851926","301.99000049986444","3282.5999999046326","","","","","","","","","","","","","","",""
"","","","","","html-keyboard-response","99","379700","0.0-10.0-1.5","","","","","","","","","","reconstruct","","","","","","652.0000999851926","301.99000049986444","3282.5999999046326","","","","","","","","","3","500","250","160.6455431920987","179.58514701534637","300.8147171531264","false"
"","","","","","html-keyboard-response","100","382706","0.0-10.0-0.6","","","","null","","null","","","","fallScene","","","","","","","","","","","","false","500","479.92114317029973","330.87","6","","","","","","",""
"","","","","","html-keyboard-response","101","386263","0.0-10.0-1.6","","","","","","","","","","","","","","","","500.9990143741733","287.9900486914564","3556.4000000953674","","","","","","","","","","","","","","",""
"","","","","","html-keyboard-response","101","386263","0.0-10.0-1.6","","","","","","","","","","reconstruct","","","","","","500.9990143741733","287.9900486914564","3556.4000000953674","","","","","","","","","4","500","350","62.017998121575566","27.732965791411512","47.78040266375067","false"
"","","","","","html-keyboard-response","102","389276","0.0-10.0-0.7","","","","null","","null","","","","fallScene","","","","","","","","","","","","true","322.3","356.42114317029973","357.87","4","","","","","","",""
"","","","","","html-keyboard-response","103","392646","0.0-10.0-1.7","","","","","","","","","","","","","","","","610.01","283","3369.5","","","","","","","","","","","","","","",""
"","","","","","html-keyboard-response","103","392646","0.0-10.0-1.7","","","","","","","","","","reconstruct","","","","","","610.01","283","3369.5","","","","","","","","","1","375","250","237.31561284500435","109.45826063435551","264.4103349118453","false"
"","","","","","html-keyboard-response","104","395652","0.0-10.0-0.8","","","","null","","null","","","","fallScene","","","","","","","","","","","","true","604.4000000000001","575.4211431702997","266.76","12","","","","","","",""
"","","","","","html-keyboard-response","105","398421","0.0-10.0-1.8","","","","","","","","","","","","","","","","364.01","299.99999998482144","2768.800000190735","","","","","","","","","","","","","","",""
"","","","","","html-keyboard-response","105","398421","0.0-10.0-1.8","","","","","","","","","","reconstruct","","","","","","364.01","299.99999998482144","2768.800000190735","","","","","","","","","3","500","250","144.89057974375748","77.26089850056657","214.00833875240446","false"
"","","","","","html-keyboard-response","106","401424","0.0-10.0-0.9","","","","null","","null","","","","fallScene","","","","","","","","","","","","true","604.4000000000001","596.8711431702998","394.5","10","","","","","","",""
"","","","","","html-keyboard-response","107","404422","0.0-10.0-1.9","","","","","","","","","","","","","","","","374","268.01","2996.800000190735","","","","","","","","","","","","","","",""
"","","","","","html-keyboard-response","107","404422","0.0-10.0-1.9","","","","","","","","","","reconstruct","","","","","","374","268.01","2996.800000190735","","","","","","","","","2","375","350","81.99609807789638","226.28975710733275","256.2640563130855","false"
"","","","","","html-keyboard-response","108","407428","0.0-10.0-0.10","","","","null","","null","","","","fallScene","","","","","","","","","","","","false","604.4000000000001","667.6211431702998","201.78","9","","","","","","",""
"","","","","","html-keyboard-response","109","410127","0.0-10.0-1.10","","","","","","","","","","","","","","","","618.0099995000354","269.99990000479","2698.4000000953674","","","","","","","","","","","","","","",""
"","","","","","html-keyboard-response","109","410127","0.0-10.0-1.10","","","","","","","","","","reconstruct","","","","","","618.0099995000354","269.99990000479","2698.4000000953674","","","","","","","","","5","625","250","21.186224467589877","64.35627588000405","84.35176544053573","false"
"","","","","","html-keyboard-response","110","413137","0.0-10.0-0.11","","","","null","","null","","","","fallScene","","","","","","","","","","","","true","500","553.4711431702997","282.51","7","","","","","","",""
"","","","","","html-keyboard-response","111","415950","0.0-10.0-1.11","","","","","","","","","","","","","","","","481.0000006305821","227.99000000001988","2812","","","","","","","","","","","","","","",""
"","","","","","html-keyboard-response","111","415950","0.0-10.0-1.11","","","","","","","","","","reconstruct","","","","","","481.0000006305821","227.99000000001988","2812","","","","","","","","","2","375","350","161.62438007206265","190.8057888129016","90.68901201915197","true"
"","","","","","html-keyboard-response","112","418963","0.0-10.0-0.12","","","","null","","null","","","","fallScene","","","","","","","","","","","","true","604.4000000000001","667.6211431702998","201.78","9","","","","","","",""
"","","","","","html-keyboard-response","113","422514","0.0-10.0-1.12","","","","","","","","","","","","","","","","360.99","244.99999999999997","3549.6000003814697","","","","","","","","","","","","","","",""
"","","","","","html-keyboard-response","113","422514","0.0-10.0-1.12","","","","","","","","","","reconstruct","","","","","","360.99","244.99999999999997","3549.6000003814697","","","","","","","","","4","500","350","174.20901268304118","223.75436540482988","309.6621164461757","false"
"","","","","","html-keyboard-response","114","425526","0.0-10.0-0.13","","","","null","","null","","","","fallScene","","","","","","","","","","","","false","322.3","296.07114317029976","371.46","3","","","","","","",""
"","","","","","html-keyboard-response","115","430138","0.0-10.0-1.13","","","","","","","","","","","","","","","","291.0199838881137","239.99934144795589","4610.599999904633","","","","","","","","","","","","","","",""
"","","","","","html-keyboard-response","115","430138","0.0-10.0-1.13","","","","","","","","","","reconstruct","","","","","","291.0199838881137","239.99934144795589","4610.599999904633","","","","","","","","","6","625","350","351.62877590433243","329.62816089541474","131.55766399959805","false"
"","","","","","html-keyboard-response","116","433141","0.0-10.0-0.14","","","","null","","null","","","","fallScene","","","","","","","","","","","","false","322.3","308.07114317029976","253.89","2","","","","","","",""
"","","","","","html-keyboard-response","117","436743","0.0-10.0-1.14","","","","","","","","","","","","","","","","292.9999798099654","199.0099999796181","3601.4000000953674","","","","","","","","","","","","","","",""
"","","","","","html-keyboard-response","117","436743","0.0-10.0-1.14","","","","","","","","","","reconstruct","","","","","","292.9999798099654","199.0099999796181","3601.4000000953674","","","","","","","","","2","375","350","171.81962465714156","117.11790630185682","56.91181219457874","false"
"","","","","","html-keyboard-response","118","439748","0.0-10.0-0.15","","","","null","","null","","","","fallScene","","","","","","","","","","","","true","322.3","379.3711431702997","245.25","1","","","","","","",""
"","","","","","html-keyboard-response","119","442680","0.0-10.0-1.15","","","","","","","","","","","","","","","","664","207.99","2932","","","","","","","","","","","","","","",""
"","","","","","html-keyboard-response","119","442680","0.0-10.0-1.15","","","","","","","","","","reconstruct","","","","","","664","207.99","2932","","","","","","","","","5","625","250","57.32224786241377","245.67478056867253","287.05730044745775","false"
"","","","","","html-keyboard-response","120","445695","0.0-10.0-0.16","","","","null","","null","","","","fallScene","","","","","","","","","","","","true","500","510.8711431702997","369.03","8","","","","","","",""
"","","","","","html-keyboard-response","121","451435","0.0-10.0-1.16","","","","","","","","","","","","","","","","481.99999999148434","199.9999869495761","5738.699999809265","","","","","","","","","","","","","","",""
"","","","","","html-keyboard-response","121","451435","0.0-10.0-1.16","","","","","","","","","","reconstruct","","","","","","481.99999999148434","199.9999869495761","5738.699999809265","","","","","","","","","6","625","350","207.24141458106973","115.70452394463331","171.47795257781135","false"
"","","","","","html-keyboard-response","122","454446","0.0-10.0-0.17","","","","null","","null","","","","fallScene","","","","","","","","","","","","true","322.3","296.07114317029976","371.46","3","","","","","","",""
"","","","","","html-keyboard-response","123","457964","0.0-10.0-1.17","","","","","","","","","","","","","","","","687.0099999999871","229.00000050702403","3516.9000000953674","","","","","","","","","","","","","","",""
"","","","","","html-keyboard-response","123","457964","0.0-10.0-1.17","","","","","","","","","","reconstruct","","","","","","687.0099999999871","229.00000050702403","3516.9000000953674","","","","","","","","","2","375","350","334.65092257050804","81.79422987254857","416.0865790131202","false"
"","","","","","html-button-response","124","465294","0.0-11.0","","","","7327","","0","","","","","<p><span style = ""font-size:40px;"">BREAK</span></p><p>You are almost done! Click 'Next' when you are ready for the next set.</p>","","","","","","","","","","","","","","","","","","","","","",""
"","","","","","html-keyboard-response","125","468299","0.0-12.0-0.0","","","","null","","null","","","","fallScene","","","","","","","","","","","","true","604.4000000000001","650.0211431702996","404.58000000000004","11","","","","","","",""
"","","","","","html-keyboard-response","126","473866","0.0-12.0-1.0","","","","","","","","","","","","","","","","378.0099995731261","275.0000923974897","5566.599999904633","","","","","","","","","","","","","","",""
"","","","","","html-keyboard-response","126","473866","0.0-12.0-1.0","","","","","","","","","","reconstruct","","","","","","378.0099995731261","275.0000923974897","5566.599999904633","","","","","","","","","3","500","250","124.52535815660889","215.40965576808193","301.2988793462685","false"
"","","","","","html-keyboard-response","127","476873","0.0-12.0-0.1","","","","null","","null","","","","fallScene","","","","","","","","","","","","true","604.4000000000001","650.0211431702996","404.58000000000004","11","","","","","","",""
"","","","","","html-keyboard-response","128","481357","0.0-12.0-1.1","","","","","","","","","","","","","","","","361.0000074034584","307.00999999725946","4481.900000095367","","","","","","","","","","","","","","",""
"","","","","","html-keyboard-response","128","481357","0.0-12.0-1.1","","","","","","","","","","reconstruct","","","","","","361.0000074034584","307.00999999725946","4481.900000095367","","","","","","","","","1","375","250","58.70383200772111","315.4863001632535","305.04609786143743","true"
"","","","","","html-keyboard-response","129","484362","0.0-12.0-0.2","","","","null","","null","","","","fallScene","","","","","","","","","","","","false","604.4000000000001","650.0211431702996","404.58000000000004","11","","","","","","",""
"","","","","","html-keyboard-response","130","487173","0.0-12.0-1.2","","","","","","","","","","","","","","","","636.9900000005396","292.9999967151429","2810.9000000953674","","","","","","","","","","","","","","",""
"","","","","","html-keyboard-response","130","487173","0.0-12.0-1.2","","","","","","","","","","reconstruct","","","","","","636.9900000005396","292.9999967151429","2810.9000000953674","","","","","","","","","4","500","350","148.37540387349094","159.6412221142257","112.33836310610687","true"
"","","","","","html-keyboard-response","131","490179","0.0-12.0-0.3","","","","null","","null","","","","fallScene","","","","","","","","","","","","true","604.4000000000001","667.6211431702998","201.78","9","","","","","","",""
"","","","","","html-keyboard-response","132","492505","0.0-12.0-1.3","","","","","","","","","","","","","","","","393.992480635829","260.0065923563666","2324.9000000953674","","","","","","","","","","","","","","",""
"","","","","","html-keyboard-response","132","492505","0.0-12.0-1.3","","","","","","","","","","reconstruct","","","","","","393.992480635829","260.0065923563666","2324.9000000953674","","","","","","","","","2","375","350","91.97569102765968","328.0187522540336","279.7552162477722","true"
"","","","","","html-keyboard-response","133","495514","0.0-12.0-0.4","","","","null","","null","","","","fallScene","","","","","","","","","","","","false","500","553.4711431702997","282.51","7","","","","","","",""
"","","","","","html-keyboard-response","134","499375","0.0-12.0-1.4","","","","","","","","","","","","","","","","509.9929289803496","300.9929288840271","3860.2999997138977","","","","","","","","","","","","","","",""
"","","","","","html-keyboard-response","134","499375","0.0-12.0-1.4","","","","","","","","","","reconstruct","","","","","","509.9929289803496","300.9929288840271","3860.2999997138977","","","","","","","","","5","625","250","125.80502843960714","78.57020719944529","47.243769634515644","false"
"","","","","","html-keyboard-response","135","502390","0.0-12.0-0.5","","","","null","","null","","","","fallScene","","","","","","","","","","","","false","604.4000000000001","596.8711431702998","394.5","10","","","","","","",""
"","","","","","html-keyboard-response","136","505247","0.0-12.0-1.5","","","","","","","","","","","","","","","","603.0000999949959","292.00999950003757","2856.199999809265","","","","","","","","","","","","","","",""
"","","","","","html-keyboard-response","136","505247","0.0-12.0-1.5","","","","","","","","","","reconstruct","","","","","","603.0000999949959","292.00999950003757","2856.199999809265","","","","","","","","","1","375","250","231.83805911825888","264.7773671817432","102.67309440277569","true"
"","","","","","html-keyboard-response","137","508252","0.0-12.0-0.6","","","","null","","null","","","","fallScene","","","","","","","","","","","","false","322.3","379.3711431702997","245.25","1","","","","","","",""
"","","","","","html-keyboard-response","138","512035","0.0-12.0-1.6","","","","","","","","","","","","","","","","335.00707142665493","267.00707070895055","3782.800000190735","","","","","","","","","","","","","","",""
"","","","","","html-keyboard-response","138","512036","0.0-12.0-1.6","","","","","","","","","","reconstruct","","","","","","335.00707142665493","267.00707070895055","3782.800000190735","","","","","","","","","2","375","350","92.12632983128013","104.84116268248488","49.411951869052245","true"
"","","","","","html-keyboard-response","139","515040","0.0-12.0-0.7","","","","null","","null","","","","fallScene","","","","","","","","","","","","true","604.4000000000001","596.8711431702998","394.5","10","","","","","","",""
"","","","","","html-keyboard-response","140","518289","0.0-12.0-1.7","","","","","","","","","","","","","","","","395.9992129150231","285.0099689767398","3248.5999999046326","","","","","","","","","","","","","","",""
"","","","","","html-keyboard-response","140","518289","0.0-12.0-1.7","","","","","","","","","","reconstruct","","","","","","395.9992129150231","285.0099689767398","3248.5999999046326","","","","","","","","","4","500","350","122.63713893718744","106.60332255197638","228.77412278917214","false"
"","","","","","html-keyboard-response","141","521294","0.0-12.0-0.8","","","","null","","null","","","","fallScene","","","","","","","","","","","","false","322.3","379.3711431702997","245.25","1","","","","","","",""
"","","","","","html-keyboard-response","142","524559","0.0-12.0-1.8","","","","","","","","","","","","","","","","335.99292894420313","275.99292892017314","3263.300000190735","","","","","","","","","","","","","","",""
"","","","","","html-keyboard-response","142","524559","0.0-12.0-1.8","","","","","","","","","","reconstruct","","","","","","335.99292894420313","275.99292892017314","3263.300000190735","","","","","","","","","3","500","250","166.0540626126033","120.7223409317444","53.16763252239041","false"
"","","","","","html-keyboard-response","143","527565","0.0-12.0-0.9","","","","null","","null","","","","fallScene","","","","","","","","","","","","true","500","453.67114317029973","210.33","5","","","","","","",""
"","","","","","html-keyboard-response","144","530950","0.0-12.0-1.9","","","","","","","","","","","","","","","","510.0070710684397","252.99292893281594","3383.5999999046326","","","","","","","","","","","","","","",""
"","","","","","html-keyboard-response","144","530950","0.0-12.0-1.9","","","","","","","","","","reconstruct","","","","","","510.0070710684397","252.99292893281594","3383.5999999046326","","","","","","","","","2","375","350","166.2446422460358","160.30239445411223","70.66726453790983","false"
"","","","","","html-keyboard-response","145","533955","0.0-12.0-0.10","","","","null","","null","","","","fallScene","","","","","","","","","","","","false","500","553.4711431702997","282.51","7","","","","","","",""
"","","","","","html-keyboard-response","146","536420","0.0-12.0-1.10","","","","","","","","","","","","","","","","509.99000000000007","294.0000000277114","2464.5","","","","","","","","","","","","","","",""
"","","","","","html-keyboard-response","146","536420","0.0-12.0-1.10","","","","","","","","","","reconstruct","","","","","","509.99000000000007","294.0000000277114","2464.5","","","","","","","","","1","375","250","141.9799285196278","181.4079630129659","44.97365797923159","true"
"","","","","","html-keyboard-response","147","539417","0.0-12.0-0.11","","","","null","","null","","","","fallScene","","","","","","","","","","","","false","604.4000000000001","667.6211431702998","201.78","9","","","","","","",""
"","","","","","html-keyboard-response","148","542738","0.0-12.0-1.11","","","","","","","","","","","","","","","","659.9929284970988","244.00707063269576","3320.3999996185303","","","","","","","","","","","","","","",""
"","","","","","html-keyboard-response","148","542738","0.0-12.0-1.11","","","","","","","","","","reconstruct","","","","","","659.9929284970988","244.00707063269576","3320.3999996185303","","","","","","","","","1","375","250","285.05593222340406","296.56753333818097","42.910548275675936","true"
"","","","","","html-keyboard-response","149","545751","0.0-12.0-0.12","","","","null","","null","","","","fallScene","","","","","","","","","","","","false","322.3","308.07114317029976","253.89","2","","","","","","",""
"","","","","","html-keyboard-response","150","548547","0.0-12.0-1.12","","","","","","","","","","","","","","","","324.009999553361","230.00009451232978","2795.4000000953674","","","","","","","","","","","","","","",""
"","","","","","html-keyboard-response","150","548547","0.0-12.0-1.12","","","","","","","","","","reconstruct","","","","","","324.009999553361","230.00009451232978","2795.4000000953674","","","","","","","","","3","500","250","177.1227723267783","191.96827389950553","28.7188914655435","true"
"","","","","","html-keyboard-response","151","551551","0.0-12.0-0.13","","","","null","","null","","","","fallScene","","","","","","","","","","","","true","500","479.92114317029973","330.87","6","","","","","","",""
"","","","","","html-keyboard-response","152","554318","0.0-12.0-1.13","","","","","","","","","","","","","","","","507.99300225202853","333.992856364838","2765.5999999046326","","","","","","","","","","","","","","",""
"","","","","","html-keyboard-response","152","554318","0.0-12.0-1.13","","","","","","","","","","reconstruct","","","","","","507.99300225202853","333.992856364838","2765.5999999046326","","","","","","","","","6","625","350","118.09685080200279","146.33465617895396","28.245026184796664","true"
"","","","","","html-keyboard-response","153","557333","0.0-12.0-0.14","","","","null","","null","","","","fallScene","","","","","","","","","","","","true","604.4000000000001","667.6211431702998","201.78","9","","","","","","",""
"","","","","","html-keyboard-response","154","560005","0.0-12.0-1.14","","","","","","","","","","","","","","","","409.9900001174881","249.9999515257976","2671.7000002861023","","","","","","","","","","","","","","",""
"","","","","","html-keyboard-response","154","560005","0.0-12.0-1.14","","","","","","","","","","reconstruct","","","","","","409.9900001174881","249.9999515257976","2671.7000002861023","","","","","","","","","3","500","250","90.00999988252498","174.4190816330545","262.10488281573197","false"
"","","","","","html-keyboard-response","155","563009","0.0-12.0-0.15","","","","null","","null","","","","fallScene","","","","","","","","","","","","true","500","510.8711431702997","369.03","8","","","","","","",""
"","","","","","html-keyboard-response","156","565743","0.0-12.0-1.15","","","","","","","","","","","","","","","","501.9995077501533","281.0099878771563","2734.199999809265","","","","","","","","","","","","","","",""
"","","","","","html-keyboard-response","156","565744","0.0-12.0-1.15","","","","","","","","","","reconstruct","","","","","","501.9995077501533","281.0099878771563","2734.199999809265","","","","","","","","","1","375","250","130.73061736610376","180.6352912539631","88.46597339730992","true"
"","","","","","html-keyboard-response","157","568761","0.0-12.0-0.16","","","","null","","null","","","","fallScene","","","","","","","","","","","","false","322.3","308.07114317029976","253.89","2","","","","","","",""
"","","","","","html-keyboard-response","158","571766","0.0-12.0-1.16","","","","","","","","","","","","","","","","329.9999982540588","238.9900000001524","3004.300000190735","","","","","","","","","","","","","","",""
"","","","","","html-keyboard-response","158","571766","0.0-12.0-1.16","","","","","","","","","","reconstruct","","","","","","329.9999982540588","238.9900000001524","3004.300000190735","","","","","","","","","5","625","250","295.2053880438193","316.9527289539887","26.511972489423783","true"
"","","","","","html-keyboard-response","159","574775","0.0-12.0-0.17","","","","null","","null","","","","fallScene","","","","","","","","","","","","false","604.4000000000001","596.8711431702998","394.5","10","","","","","","",""
"","","","","","html-keyboard-response","160","577248","0.0-12.0-1.17","","","","","","","","","","","","","","","","597.0099958436434","289.00028828780034","2471.800000190735","","","","","","","","","","","","","","",""
"","","","","","html-keyboard-response","160","577248","0.0-12.0-1.17","","","","","","","","","","reconstruct","","","","","","597.0099958436434","289.00028828780034","2471.800000190735","","","","","","","","","5","625","250","48.00482079129549","147.21237239629613","105.49980308712492","true"
"","","","","","survey-text","161","604525","0.0-13.0","","","","27258","","{""Summary"":""Estimate triangle location based on change in falling ball's trajectory.""}","","","","","","","","","","","","","","","","","","","","","","","","","","",""
