"success","timeout","failed_images","failed_audio","failed_video","trial_type","trial_index","time_elapsed","internal_node_id","subject_id","study_id","session_id","rt","url","response","view_history","triangle_prac_final_x","triangle_prac_final_y","trial_name","stimulus","ball_X_prac_occ","ball_Y_prac_occ","obstacle_X_prac_occ","obstacle_Y_prac_occ","triangle_final_x","triangle_final_y","response_time","obstacle_X_prac_occ_init","obstacle_Y_prac_occ_init","question_order","flipped","ball_X","obstacle_groundTruth_x","obstacle_groundTruth_y","stimulus_idx","obstacle_idx","obstacle_initial_x","obstacle_initial_y","final_to_initial_distance","initial_to_groundTruth_distance","final_to_groundTruth_distance","finalInBetweenInitGround"
"true","false","[]","[]","[]","preload","0","88","0.0-0.0","","","","","","","","","","","","","","","","","","","","","","","","","","","","","","","","",""
"","","","","","external-html","1","3553","0.0-1.0","","","","3385","consent.html","","","","","","","","","","","","","","","","","","","","","","","","","","","",""
"true","","","","","fullscreen","2","6520","0.0-2.0","","","","2458","","","","","","","","","","","","","","","","","","","","","","","","","","","","",""
"","","","","","survey-text","3","11142","0.0-3.0","","","","4615","","{""prolificID"":""ZZ""}","","","","","","","","","","","","","","","","","","","","","","","","","","",""
"","","","","","instructions","4","68836","0.0-4.0-0.0-0.0","","","","57692","","","[{""page_index"":0,""viewing_time"":24427},{""page_index"":1,""viewing_time"":12327},{""page_index"":2,""viewing_time"":10885},{""page_index"":3,""viewing_time"":10052}]","","","","","","","","","","","","","","","","","","","","","","","","","",""
"","","","","","html-keyboard-response","5","78824","0.0-4.0-0.0-1.0","","","","","","","","562.990000000028","297.9999992514791","","","","","","","","","","","","","","","","","","","","","","","",""
"","","","","","html-keyboard-response","5","78825","0.0-4.0-0.0-1.0","","","","","","","","","","practiceTrial_move","","","","","","","","","","","","","","","","","","","","","","",""
"","","","","","html-button-response","6","81550","0.0-4.0-0.0-2.0","","","","2724","","0","","","","","<p>To help you get more comfortable with the task, let's begin with a practice trial first!</p><p>As described previously, you will first see a video of a ball falling, some of it behind a gray screen.</p><p>After the video, you will drag a triangle to the spot you think the ball hit the triangle behind the screen.</p><p>Click 'Next' to start your practice trial.</p>","","","","","","","","","","","","","","","","","","","","","",""
"","","","","","html-keyboard-response","7","84556","0.0-4.0-0.0-3.0","","","","null","","null","","","","fallScene_practiceTrial_withOccluder","","400","50","420","415","","","","","","","","","","","","","","","","","",""
"","","","","","html-keyboard-response","8","88383","0.0-4.0-0.0-4.0","","","","","","","","","","","","","","","","455.00000099009685","320.990000000049","3826.699999988079","","","","","","","","","","","","","","",""
"","","","","","html-keyboard-response","8","88384","0.0-4.0-0.0-4.0","","","","","","","","","","reconstruct_practiceTrial_withOccluder","","","","","","455.00000099009685","320.990000000049","3826.699999988079","500","300","","","","","","","","","","","","",""
"","","","","","html-button-response","9","90759","0.0-4.0-0.0-5.0","","","","2374","","1","","","","","<p>Ok! We're almost ready to get started.</p><p>We just have a <b>brief quiz</b>, to make sure you understood the task.</p><p>If you need to review the instructions, click 'Previous'.</p><p>It's important to understand the task to do the study, so you have to pass the quiz to move to the study.</p>","","","","","","","","","","","","","","","","","","","","","",""
"","","","","","survey-multi-choice","10","102317","0.0-4.0-1.0-0.0","","","","11556","","{""generalProcedure"":""Watch a video of a ball falling, some of it behind a gray screen. After each video, drag a triangle to where I think the ball hit the triangle behind the screen.""}","","","","","","","","","","","","","","","[0]","","","","","","","","","","","",""
"","","","","","survey-multi-choice","11","109090","0.0-4.0-1.0-1.0","","","","6769","","{""checkBallHitObstacle"":""Yes.""}","","","","","","","","","","","","","","","[0]","","","","","","","","","","","",""
"","","","","","survey-multi-choice","12","114239","0.0-4.0-1.0-2.0","","","","5147","","{""checkTriangleVisibility"":""No, the triangle is hidden behind the gray screen.""}","","","","","","","","","","","","","","","[0]","","","","","","","","","","","",""
"","","","","","instructions","13","116630","0.0-5.0","","","","2386","","","[{""page_index"":0,""viewing_time"":2386}]","","","","","","","","","","","","","","","","","","","","","","","","","",""
"","","","","","html-keyboard-response","14","119634","0.0-6.0-0.0","","","","null","","null","","","","fallScene","","","","","","","","","","","","false","604.4000000000001","575.4211431702997","266.76","12","","","","","","",""
"","","","","","html-keyboard-response","15","123098","0.0-6.0-1.0","","","","","","","","","","","","","","","","604.000099980008","225.0099995001874","3463.2999999821186","","","","","","","","","","","","","","",""
"","","","","","html-keyboard-response","15","123098","0.0-6.0-1.0","","","","","","","","","","reconstruct","","","","","","604.000099980008","225.0099995001874","3463.2999999821186","","","","","","","","","1","375","250","230.35960131028685","201.1206907050833","50.594656971517495","false"
"","","","","","html-keyboard-response","16","126106","0.0-6.0-0.1","","","","null","","null","","","","fallScene","","","","","","","","","","","","true","500","453.67114317029973","210.33","5","","","","","","",""
"","","","","","html-keyboard-response","17","128881","0.0-6.0-1.1","","","","","","","","","","","","","","","","577.01","305","2774.5","","","","","","","","","","","","","","",""
"","","","","","html-keyboard-response","17","128881","0.0-6.0-1.1","","","","","","","","","","reconstruct","","","","","","577.01","305","2774.5","","","","","","","","","1","375","250","209.36341633628354","88.10708069004328","155.4827402127236","false"
"","","","","","html-keyboard-response","18","131883","0.0-6.0-0.2","","","","null","","null","","","","fallScene","","","","","","","","","","","","false","322.3","356.42114317029973","357.87","4","","","","","","",""
"","","","","","html-keyboard-response","19","148848","0.0-6.0-1.2","","","","","","","","","","","","","","","","426.01","250.99999999996422","16963.79999998212","","","","","","","","","","","","","","",""
"","","","","","html-keyboard-response","19","148848","0.0-6.0-1.2","","","","","","","","","","reconstruct","","","","","","426.01","250.99999999996422","16963.79999998212","","","","","","","","","5","625","250","198.99251267321574","289.4314067891538","127.52962751797","true"
"","","","","","html-keyboard-response","20","151851","0.0-6.0-0.3","","","","null","","null","","","","fallScene","","","","","","","","","","","","true","604.4000000000001","650.0211431702996","404.58000000000004","11","","","","","","",""
"","","","","","html-keyboard-response","21","154581","0.0-6.0-1.3","","","","","","","","","","","","","","","","379.00999977373687","282.00006726969445","2729.4000000059605","","","","","","","","","","","","","","",""
"","","","","","html-keyboard-response","21","154581","0.0-6.0-1.3","","","","","","","","","","reconstruct","","","","","","379.00999977373687","282.00006726969445","2729.4000000059605","","","","","","","","","6","625","350","255.2157343555507","60.04193539142985","297.44391026423546","false"
"","","","","","html-keyboard-response","22","157584","0.0-6.0-0.4","","","","null","","null","","","","fallScene","","","","","","","","","","","","true","604.4000000000001","575.4211431702997","266.76","12","","","","","","",""
"","","","","","html-keyboard-response","23","160065","0.0-6.0-1.4","","","","","","","","","","","","","","","","473.0000009900507","279.990000000049","2479.5999999940395","","","","","","","","","","","","","","",""
"","","","","","html-keyboard-response","23","160065","0.0-6.0-1.4","","","","","","","","","","reconstruct","","","","","","473.0000009900507","279.990000000049","2479.5999999940395","","","","","","","","","4","500","350","75.0359916741986","112.32651707016848","103.27208366982863","true"
"","","","","","html-keyboard-response","24","163075","0.0-6.0-0.5","","","","null","","null","","","","fallScene","","","","","","","","","","","","false","500","510.8711431702997","369.03","8","","","","","","",""
"","","","","","html-keyboard-response","25","165816","0.0-6.0-1.5","","","","","","","","","","","","","","","","455.0000999855163","313.0099995001323","2740.300000011921","","","","","","","","","","","","","","",""
"","","","","","html-keyboard-response","25","165816","0.0-6.0-1.5","","","","","","","","","","reconstruct","","","","","","455.0000999855163","313.0099995001323","2740.300000011921","","","","","","","","","6","625","350","173.97765989320203","115.70452394463331","79.11898585397255","false"
"","","","","","html-keyboard-response","26","168819","0.0-6.0-0.6","","","","null","","null","","","","fallScene","","","","","","","","","","","","true","604.4000000000001","650.0211431702996","404.58000000000004","11","","","","","","",""
"","","","","","html-keyboard-response","27","172782","0.0-6.0-1.6","","","","","","","","","","","","","","","","369.00999950003774","302.9999000050207","3961.5","","","","","","","","","","","","","","",""
"","","","","","html-keyboard-response","27","172782","0.0-6.0-1.6","","","","","","","","","","reconstruct","","","","","","369.00999950003774","302.9999000050207","3961.5","","","","","","","","","5","625","250","261.4189544706215","156.59193467592334","298.80726159492605","false"
"","","","","","html-keyboard-response","28","175788","0.0-6.0-0.7","","","","null","","null","","","","fallScene","","","","","","","","","","","","true","604.4000000000001","667.6211431702998","201.78","9","","","","","","",""
"","","","","","html-keyboard-response","29","180565","0.0-6.0-1.7","","","","","","","","","","","","","","","","468.01","301","4776.100000023842","","","","","","","","","","","","","","",""
"","","","","","html-keyboard-response","29","180565","0.0-6.0-1.7","","","","","","","","","","reconstruct","","","","","","468.01","301","4776.100000023842","","","","","","","","","5","625","250","165.06622943533907","64.35627588000405","222.91078232726633","false"
"","","","","","html-keyboard-response","30","183572","0.0-6.0-0.8","","","","null","","null","","","","fallScene","","","","","","","","","","","","false","604.4000000000001","575.4211431702997","266.76","12","","","","","","",""
"","","","","","html-keyboard-response","31","187565","0.0-6.0-1.8","","","","","","","","","","","","","","","","546.0071061552433","296.00703580540227","3992.0999999940395","","","","","","","","","","","","","","",""
"","","","","","html-keyboard-response","31","187565","0.0-6.0-1.8","","","","","","","","","","reconstruct","","","","","","546.0071061552433","296.00703580540227","3992.0999999940395","","","","","","","","","2","375","350","179.32838742962517","217.0196586249499","41.479810473597816","true"
"","","","","","html-keyboard-response","32","190569","0.0-6.0-0.9","","","","null","","null","","","","fallScene","","","","","","","","","","","","true","322.3","296.07114317029976","371.46","3","","","","","","",""
"","","","","","html-keyboard-response","33","195065","0.0-6.0-1.9","","","","","","","","","","","","","","","","742.999900005","271.9900004999625","4495.700000017881","","","","","","","","","","","","","","",""
"","","","","","html-keyboard-response","33","195065","0.0-6.0-1.9","","","","","","","","","","reconstruct","","","","","","742.999900005","271.9900004999625","4495.700000017881","","","","","","","","","5","625","250","120.03139807224751","350.6375970361613","457.8641659775834","false"
"","","","","","html-keyboard-response","34","198076","0.0-6.0-0.10","","","","null","","null","","","","fallScene","","","","","","","","","","","","true","604.4000000000001","596.8711431702998","394.5","10","","","","","","",""
"","","","","","html-keyboard-response","35","201116","0.0-6.0-1.10","","","","","","","","","","","","","","","","437.01","262.99999999999994","3039.0999999940395","","","","","","","","","","","","","","",""
"","","","","","html-keyboard-response","35","201116","0.0-6.0-1.10","","","","","","","","","","reconstruct","","","","","","437.01","262.99999999999994","3039.0999999940395","","","","","","","","","4","500","350","107.40921794706455","106.60332255197638","206.99718620240975","false"
"","","","","","html-keyboard-response","36","204123","0.0-6.0-0.11","","","","null","","null","","","","fallScene","","","","","","","","","","","","true","500","553.4711431702997","282.51","7","","","","","","",""
"","","","","","html-keyboard-response","37","210382","0.0-6.0-1.11","","","","","","","","","","","","","","","","497","273.01","6258.700000017881","","","","","","","","","","","","","","",""
"","","","","","html-keyboard-response","37","210382","0.0-6.0-1.11","","","","","","","","","","reconstruct","","","","","","497","273.01","6258.700000017881","","","","","","","","","2","375","350","144.2617762957326","190.8057888129016","57.26464887660174","true"
"","","","","","html-keyboard-response","38","213392","0.0-6.0-0.12","","","","null","","null","","","","fallScene","","","","","","","","","","","","false","604.4000000000001","575.4211431702997","266.76","12","","","","","","",""
"","","","","","html-keyboard-response","39","216165","0.0-6.0-1.12","","","","","","","","","","","","","","","","517.9900002678578","302.99992680790103","2772.2999999821186","","","","","","","","","","","","","","",""
"","","","","","html-keyboard-response","39","216165","0.0-6.0-1.12","","","","","","","","","","reconstruct","","","","","","517.9900002678578","302.99992680790103","2772.2999999821186","","","","","","","","","3","500","250","55.969923631182404","77.26089850056657","67.90926645254484","true"
"","","","","","html-keyboard-response","40","219173","0.0-6.0-0.13","","","","null","","null","","","","fallScene","","","","","","","","","","","","true","322.3","356.42114317029973","357.87","4","","","","","","",""
"","","","","","html-keyboard-response","41","222199","0.0-6.0-1.13","","","","","","","","","","","","","","","","638.0000000000025","263.99","3025.5","","","","","","","","","","","","","","",""
"","","","","","html-keyboard-response","41","222199","0.0-6.0-1.13","","","","","","","","","","reconstruct","","","","","","638.0000000000025","263.99","3025.5","","","","","","","","","6","625","350","86.98689613959142","268.69413695864046","296.8166218619204","false"
"","","","","","html-keyboard-response","42","225205","0.0-6.0-0.14","","","","null","","null","","","","fallScene","","","","","","","","","","","","false","500","479.92114317029973","330.87","6","","","","","","",""
"","","","","","html-keyboard-response","43","227865","0.0-6.0-1.14","","","","","","","","","","","","","","","","493.01","273.0000000050198","2659.9000000059605","","","","","","","","","","","","","","",""
"","","","","","html-keyboard-response","43","227865","0.0-6.0-1.14","","","","","","","","","","reconstruct","","","","","","493.01","273.0000000050198","2659.9000000059605","","","","","","","","","4","500","350","77.3166223992419","27.732965791411512","59.33173748111041","false"
"","","","","","html-keyboard-response","44","230868","0.0-6.0-0.15","","","","null","","null","","","","fallScene","","","","","","","","","","","","false","500","510.8711431702997","369.03","8","","","","","","",""
"","","","","","html-keyboard-response","45","234349","0.0-6.0-1.15","","","","","","","","","","","","","","","","459.00448513272084","286.0089377617151","3480.7000000178814","","","","","","","","","","","","","","",""
"","","","","","html-keyboard-response","45","234349","0.0-6.0-1.15","","","","","","","","","","reconstruct","","","","","","459.00448513272084","286.0089377617151","3480.7000000178814","","","","","","","","","2","375","350","105.60118166383161","137.19733396245016","97.89099545494628","true"
"","","","","","html-keyboard-response","46","237352","0.0-6.0-0.16","","","","null","","null","","","","fallScene","","","","","","","","","","","","true","500","453.67114317029973","210.33","5","","","","","","",""
"","","","","","html-keyboard-response","47","240299","0.0-6.0-1.16","","","","","","","","","","","","","","","","514.0000702006739","290.00999975359025","2946.5","","","","","","","","","","","","","","",""
"","","","","","html-keyboard-response","47","240299","0.0-6.0-1.16","","","","","","","","","","reconstruct","","","","","","514.0000702006739","290.00999975359025","2946.5","","","","","","","","","2","375","350","151.39293129256902","160.30239445411223","99.94239239366023","true"
"","","","","","html-keyboard-response","48","243310","0.0-6.0-0.17","","","","null","","null","","","","fallScene","","","","","","","","","","","","true","500","510.8711431702997","369.03","8","","","","","","",""
"","","","","","html-keyboard-response","49","246699","0.0-6.0-1.17","","","","","","","","","","","","","","","","468.00688471540656","300.0072526335748","3388.199999988079","","","","","","","","","","","","","","",""
"","","","","","html-keyboard-response","49","246699","0.0-6.0-1.17","","","","","","","","","","reconstruct","","","","","","468.00688471540656","300.0072526335748","3388.199999988079","","","","","","","","","1","375","250","105.59832347354337","180.6352912539631","81.2495188102504","true"
"","","","","","html-button-response","50","248670","0.0-7.0","","","","1969","","0","","","","","<p><span style = ""font-size:40px;"">BREAK</span></p><p>You are doing great! Click 'Next' when you are ready for the next set.</p>","","","","","","","","","","","","","","","","","","","","","",""
"","","","","","html-keyboard-response","51","251675","0.0-8.0-0.0","","","","null","","null","","","","fallScene","","","","","","","","","","","","false","500","510.8711431702997","369.03","8","","","","","","",""
"","","","","","html-keyboard-response","52","255391","0.0-8.0-1.0","","","","","","","","","","","","","","","","502.0000999955053","257.99000049996755","3715.0999999940395","","","","","","","","","","","","","","",""
"","","","","","html-keyboard-response","52","255391","0.0-8.0-1.0","","","","","","","","","","reconstruct","","","","","","502.0000999955053","257.99000049996755","3715.0999999940395","","","","","","","","","5","625","250","123.25913965749223","164.90462959315064","111.39379199926837","true"
"","","","","","html-keyboard-response","53","258398","0.0-8.0-0.1","","","","null","","null","","","","fallScene","","","","","","","","","","","","false","500","479.92114317029973","330.87","6","","","","","","",""
"","","","","","html-keyboard-response","54","261881","0.0-8.0-1.1","","","","","","","","","","","","","","","","490.00011216674346","294.9900006290887","3482.9000000059605","","","","","","","","","","","","","","",""
"","","","","","html-keyboard-response","54","261881","0.0-8.0-1.1","","","","","","","","","","reconstruct","","","","","","490.00011216674346","294.9900006290887","3482.9000000059605","","","","","","","","","5","625","250","142.29922653197116","166.09585063755407","37.26875327788509","true"
"","","","","","html-keyboard-response","55","264884","0.0-8.0-0.2","","","","null","","null","","","","fallScene","","","","","","","","","","","","true","604.4000000000001","596.8711431702998","394.5","10","","","","","","",""
"","","","","","html-keyboard-response","56","267765","0.0-8.0-1.2","","","","","","","","","","","","","","","","425.00710709564765","288.00703485546796","2879.7000000178814","","","","","","","","","","","","","","",""
"","","","","","html-keyboard-response","56","267765","0.0-8.0-1.2","","","","","","","","","","reconstruct","","","","","","425.00710709564765","288.00703485546796","2879.7000000178814","","","","","","","","","2","375","350","79.6482171017452","226.28975710733275","202.18308168871064","true"
"","","","","","html-keyboard-response","57","270768","0.0-8.0-0.3","","","","null","","null","","","","fallScene","","","","","","","","","","","","true","322.3","296.07114317029976","371.46","3","","","","","","",""
"","","","","","html-keyboard-response","58","273981","0.0-8.0-1.3","","","","","","","","","","","","","","","","615.9911324034863","281.995377691911","3212.600000023842","","","","","","","","","","","","","","",""
"","","","","","html-keyboard-response","58","273981","0.0-8.0-1.3","","","","","","","","","","reconstruct","","","","","","615.9911324034863","281.995377691911","3212.600000023842","","","","","","","","","2","375","350","250.4023852769388","81.79422987254857","332.19379608248437","false"
"","","","","","html-keyboard-response","59","276985","0.0-8.0-0.4","","","","null","","null","","","","fallScene","","","","","","","","","","","","true","500","453.67114317029973","210.33","5","","","","","","",""
"","","","","","html-keyboard-response","60","280064","0.0-8.0-1.4","","","","","","","","","","","","","","","","527.0071061592259","300.0070358013798","3078.4000000059605","","","","","","","","","","","","","","",""
"","","","","","html-keyboard-response","60","280064","0.0-8.0-1.4","","","","","","","","","","reconstruct","","","","","","527.0071061592259","300.0070358013798","3078.4000000059605","","","","","","","","","6","625","350","110.00865289900489","221.04589134967412","115.84530295888179","true"
"","","","","","html-keyboard-response","61","283070","0.0-8.0-0.5","","","","null","","null","","","","fallScene","","","","","","","","","","","","false","604.4000000000001","667.6211431702998","201.78","9","","","","","","",""
"","","","","","html-keyboard-response","62","286214","0.0-8.0-1.5","","","","","","","","","","","","","","","","506.0004259279226","321.0099909251526","3143.2999999821186","","","","","","","","","","","","","","",""
"","","","","","html-keyboard-response","62","286214","0.0-8.0-1.5","","","","","","","","","","reconstruct","","","","","","506.0004259279226","321.0099909251526","3143.2999999821186","","","","","","","","","2","375","350","134.16978877324385","328.0187522540336","200.84084987360615","true"
"","","","","","html-keyboard-response","63","289223","0.0-8.0-0.6","","","","null","","null","","","","fallScene","","","","","","","","","","","","false","322.3","379.3711431702997","245.25","1","","","","","","",""
"","","","","","html-keyboard-response","64","292049","0.0-8.0-1.6","","","","","","","","","","","","","","","","357.0099999406836","292.00003444306884","2824.7000000178814","","","","","","","","","","","","","","",""
"","","","","","html-keyboard-response","64","292049","0.0-8.0-1.6","","","","","","","","","","reconstruct","","","","","","357.0099999406836","292.00003444306884","2824.7000000178814","","","","","","","","","2","375","350","60.72590968227158","104.84116268248488","51.822644152566454","true"
"","","","","","html-keyboard-response","65","295053","0.0-8.0-0.7","","","","null","","null","","","","fallScene","","","","","","","","","","","","false","322.3","308.07114317029976","253.89","2","","","","","","",""
"","","","","","html-keyboard-response","66","298332","0.0-8.0-1.7","","","","","","","","","","","","","","","","306.9900002554103","296.000071471256","3278.9000000059605","","","","","","","","","","","","","","",""
"","","","","","html-keyboard-response","66","298333","0.0-8.0-1.7","","","","","","","","","","reconstruct","","","","","","306.9900002554103","296.000071471256","3278.9000000059605","","","","","","","","","4","500","350","200.42168615824983","214.64812643942545","42.123947931274245","true"
"","","","","","html-keyboard-response","67","301335","0.0-8.0-0.8","","","","null","","null","","","","fallScene","","","","","","","","","","","","false","322.3","379.3711431702997","245.25","1","","","","","","",""
"","","","","","html-keyboard-response","68","307631","0.0-8.0-1.8","","","","","","","","","","","","","","","","337.00999999998714","293.0000005069987","6295.799999982119","","","","","","","","","","","","","","",""
"","","","","","html-keyboard-response","68","307631","0.0-8.0-1.8","","","","","","","","","","reconstruct","","","","","","337.00999999998714","293.0000005069987","6295.799999982119","","","","","","","","","5","625","250","291.18248598363414","245.67478056867253","63.83203740375278","false"
"","","","","","html-keyboard-response","69","310638","0.0-8.0-0.9","","","","null","","null","","","","fallScene","","","","","","","","","","","","false","500","479.92114317029973","330.87","6","","","","","","",""
"","","","","","html-keyboard-response","70","313649","0.0-8.0-1.9","","","","","","","","","","","","","","","","509.01","296.00000000207115","3009.9000000059605","","","","","","","","","","","","","","",""
"","","","","","html-keyboard-response","70","313649","0.0-8.0-1.9","","","","","","","","","","reconstruct","","","","","","509.01","296.00000000207115","3009.9000000059605","","","","","","","","","2","375","350","144.4807257033834","106.65084708600553","45.410114418644206","false"
"","","","","","html-keyboard-response","71","316657","0.0-8.0-0.10","","","","null","","null","","","","fallScene","","","","","","","","","","","","true","604.4000000000001","650.0211431702996","404.58000000000004","11","","","","","","",""
"","","","","","html-keyboard-response","72","319049","0.0-8.0-1.10","","","","","","","","","","","","","","","","340.0001","295.9900005000125","2391.699999988079","","","","","","","","","","","","","","",""
"","","","","","html-keyboard-response","72","319049","0.0-8.0-1.10","","","","","","","","","","reconstruct","","","","","","340.0001","295.9900005000125","2391.699999988079","","","","","","","","","2","375","350","64.35893913046307","280.384745645512","328.48871396108586","false"
"","","","","","html-keyboard-response","73","322056","0.0-8.0-0.11","","","","null","","null","","","","fallScene","","","","","","","","","","","","true","604.4000000000001","596.8711431702998","394.5","10","","","","","","",""
"","","","","","html-keyboard-response","74","325883","0.0-8.0-1.11","","","","","","","","","","","","","","","","445.0000000023269","305.01","3825.5999999940395","","","","","","","","","","","","","","",""
"","","","","","html-keyboard-response","74","325883","0.0-8.0-1.11","","","","","","","","","","reconstruct","","","","","","445.0000000023269","305.01","3825.5999999940395","","","","","","","","","3","500","250","77.78881731806985","173.96628517940113","176.27621571598058","false"
"","","","","","html-keyboard-response","75","328888","0.0-8.0-0.12","","","","null","","null","","","","fallScene","","","","","","","","","","","","true","500","479.92114317029973","330.87","6","","","","","","",""
"","","","","","html-keyboard-response","76","333149","0.0-8.0-1.12","","","","","","","","","","","","","","","","549.0099994613407","295.0001037925542","4260.800000011921","","","","","","","","","","","","","","",""
"","","","","","html-keyboard-response","76","333149","0.0-8.0-1.12","","","","","","","","","","reconstruct","","","","","","549.0099994613407","295.0001037925542","4260.800000011921","","","","","","","","","6","625","350","93.80548366004646","146.33465617895396","77.845484888573","true"
"","","","","","html-keyboard-response","77","336153","0.0-8.0-0.13","","","","null","","null","","","","fallScene","","","","","","","","","","","","true","322.3","379.3711431702997","245.25","1","","","","","","",""
"","","","","","html-keyboard-response","78","339115","0.0-8.0-1.13","","","","","","","","","","","","","","","","650.9999297864097","294.9900002465005","2961.5","","","","","","","","","","","","","","",""
"","","","","","html-keyboard-response","78","339115","0.0-8.0-1.13","","","","","","","","","","reconstruct","","","","","","650.9999297864097","294.9900002465005","2961.5","","","","","","","","","6","625","350","60.84485534355596","267.03201644646543","276.1453699468127","false"
"","","","","","html-keyboard-response","79","342121","0.0-8.0-0.14","","","","null","","null","","","","fallScene","","","","","","","","","","","","false","500","453.67114317029973","210.33","5","","","","","","",""
"","","","","","html-keyboard-response","80","344766","0.0-8.0-1.14","","","","","","","","","","","","","","","","499.0000000037703","283.99","2644.0999999940395","","","","","","","","","","","","","","",""
"","","","","","html-keyboard-response","80","344766","0.0-8.0-1.14","","","","","","","","","","reconstruct","","","","","","499.0000000037703","283.99","2644.0999999940395","","","","","","","","","4","500","350","66.01757417530925","147.15322584009792","86.48988878377213","true"
"","","","","","html-keyboard-response","81","347769","0.0-8.0-0.15","","","","null","","null","","","","fallScene","","","","","","","","","","","","true","604.4000000000001","667.6211431702998","201.78","9","","","","","","",""
"","","","","","html-keyboard-response","82","352649","0.0-8.0-1.15","","","","","","","","","","","","","","","","383.9928771300446","328.00701888335834","4879.399999976158","","","","","","","","","","","","","","",""
"","","","","","html-keyboard-response","82","352650","0.0-8.0-1.15","","","","","","","","","","reconstruct","","","","","","383.9928771300446","328.00701888335834","4879.399999976158","","","","","","","","","3","500","250","139.7953774329951","174.4190816330545","310.4484717198355","false"
"","","","","","html-keyboard-response","83","355657","0.0-8.0-0.16","","","","null","","null","","","","fallScene","","","","","","","","","","","","true","500","510.8711431702997","369.03","8","","","","","","",""
"","","","","","html-keyboard-response","84","358416","0.0-8.0-1.16","","","","","","","","","","","","","","","","505.9943993255701","287.00828447016596","2757.899999976158","","","","","","","","","","","","","","",""
"","","","","","html-keyboard-response","84","358416","0.0-8.0-1.16","","","","","","","","","","reconstruct","","","","","","505.9943993255701","287.00828447016596","2757.899999976158","","","","","","","","","4","500","350","63.27629136308425","21.91626459570958","82.16656527435063","false"
"","","","","","html-keyboard-response","85","361426","0.0-8.0-0.17","","","","null","","null","","","","fallScene","","","","","","","","","","","","false","322.3","356.42114317029973","357.87","4","","","","","","",""
"","","","","","html-keyboard-response","86","364633","0.0-8.0-1.17","","","","","","","","","","","","","","","","383.9998105897145","316.9900017939737","3206.5","","","","","","","","","","","","","","",""
"","","","","","html-keyboard-response","86","364633","0.0-8.0-1.17","","","","","","","","","","reconstruct","","","","","","383.9998105897145","316.9900017939737","3206.5","","","","","","","","","3","500","250","133.95411260420005","179.58514701534637","49.31284974482213","true"
"","","","","","html-button-response","87","367849","0.0-9.0","","","","3214","","0","","","","","<p><span style = ""font-size:40px;"">BREAK</span></p><p>You are halfway done! Click 'Next' when you are ready for the next set.</p>","","","","","","","","","","","","","","","","","","","","","",""
"","","","","","html-keyboard-response","88","370857","0.0-10.0-0.0","","","","null","","null","","","","fallScene","","","","","","","","","","","","true","322.3","296.07114317029976","371.46","3","","","","","","",""
"","","","","","html-keyboard-response","89","378296","0.0-10.0-1.0","","","","","","","","","","","","","","","","668.0070687481785","310.01703573131607","7438.199999988079","","","","","","","","","","","","","","",""
"","","","","","html-keyboard-response","89","378296","0.0-10.0-1.0","","","","","","","","","","reconstruct","","","","","","668.0070687481785","310.01703573131607","7438.199999988079","","","","","","","","","6","625","350","58.72176252482048","329.62816089541474","376.9768833676624","false"
"","","","","","html-keyboard-response","90","381303","0.0-10.0-0.1","","","","null","","null","","","","fallScene","","","","","","","","","","","","false","604.4000000000001","667.6211431702998","201.78","9","","","","","","",""
"","","","","","html-keyboard-response","91","384980","0.0-10.0-1.1","","","","","","","","","","","","","","","","607.0099995803976","392.99990839283186","3676","","","","","","","","","","","","","","",""
"","","","","","html-keyboard-response","91","384980","0.0-10.0-1.1","","","","","","","","","","reconstruct","","","","","","607.0099995803976","392.99990839283186","3676","","","","","","","","","6","625","350","46.61150326785468","154.2262307298703","200.5960221266582","false"
"","","","","","html-keyboard-response","92","387986","0.0-10.0-0.2","","","","null","","null","","","","fallScene","","","","","","","","","","","","true","322.3","356.42114317029973","357.87","4","","","","","","",""
"","","","","","html-keyboard-response","93","392196","0.0-10.0-1.2","","","","","","","","","","","","","","","","597.0089368234279","371.00448700200775","4209","","","","","","","","","","","","","","",""
"","","","","","html-keyboard-response","93","392196","0.0-10.0-1.2","","","","","","","","","","reconstruct","","","","","","597.0089368234279","371.00448700200775","4209","","","","","","","","","4","500","350","99.25685013050403","143.79438455142665","240.94605455098468","false"
"","","","","","html-keyboard-response","94","395202","0.0-10.0-0.3","","","","null","","null","","","","fallScene","","","","","","","","","","","","true","322.3","296.07114317029976","371.46","3","","","","","","",""
"","","","","","html-keyboard-response","95","398845","0.0-10.0-1.3","","","","","","","","","","","","","","","","657.009864538496","399.998359609723","3642.0999999940395","","","","","","","","","","","","","","",""
"","","","","","html-keyboard-response","95","398845","0.0-10.0-1.3","","","","","","","","","","reconstruct","","","","","","657.009864538496","399.998359609723","3642.0999999940395","","","","","","","","","3","500","250","217.14420426989219","237.3594536728385","362.0651855013435","false"
"","","","","","html-keyboard-response","96","401850","0.0-10.0-0.4","","","","null","","null","","","","fallScene","","","","","","","","","","","","true","604.4000000000001","596.8711431702998","394.5","10","","","","","","",""
"","","","","","html-keyboard-response","97","405666","0.0-10.0-1.4","","","","","","","","","","","","","","","","399.0070443627708","279.0070976723758","3814.800000011921","","","","","","","","","","","","","","",""
"","","","","","html-keyboard-response","97","405666","0.0-10.0-1.4","","","","","","","","","","reconstruct","","","","","","399.0070443627708","279.0070976723758","3814.800000011921","","","","","","","","","6","625","350","236.88142218956352","52.64487236707649","229.10436941484497","false"
"","","","","","html-keyboard-response","98","408675","0.0-10.0-0.5","","","","null","","null","","","","fallScene","","","","","","","","","","","","false","604.4000000000001","650.0211431702996","404.58000000000004","11","","","","","","",""
"","","","","","html-keyboard-response","99","412776","0.0-10.0-1.5","","","","","","","","","","","","","","","","577.0071061561904","317.00703580444565","4100.300000011921","","","","","","","","","","","","","","",""
"","","","","","html-keyboard-response","99","412776","0.0-10.0-1.5","","","","","","","","","","reconstruct","","","","","","577.0071061561904","317.00703580444565","4100.300000011921","","","","","","","","","4","500","350","83.77726472593807","159.6412221142257","114.01786552594977","true"
"","","","","","html-keyboard-response","100","415787","0.0-10.0-0.6","","","","null","","null","","","","fallScene","","","","","","","","","","","","true","500","510.8711431702997","369.03","8","","","","","","",""
"","","","","","html-keyboard-response","101","419251","0.0-10.0-1.6","","","","","","","","","","","","","","","","493.9900000000346","314.99999916785544","3463.2000000178814","","","","","","","","","","","","","","",""
"","","","","","html-keyboard-response","101","419251","0.0-10.0-1.6","","","","","","","","","","reconstruct","","","","","","493.9900000000346","314.99999916785544","3463.2000000178814","","","","","","","","","3","500","250","65.27725478159135","119.5254058927605","56.60577695479965","true"
"","","","","","html-keyboard-response","102","422259","0.0-10.0-0.7","","","","null","","null","","","","fallScene","","","","","","","","","","","","true","604.4000000000001","575.4211431702997","266.76","12","","","","","","",""
"","","","","","html-keyboard-response","103","426030","0.0-10.0-1.7","","","","","","","","","","","","","","","","400.99296445882777","284.99289358315224","3769.699999988079","","","","","","","","","","","","","","",""
"","","","","","html-keyboard-response","103","426030","0.0-10.0-1.7","","","","","","","","","","reconstruct","","","","","","400.99296445882777","284.99289358315224","3769.699999988079","","","","","","","","","6","625","350","233.24895681789312","96.88632847073895","175.37852758252862","false"
"","","","","","html-keyboard-response","104","429036","0.0-10.0-0.8","","","","null","","null","","","","fallScene","","","","","","","","","","","","true","604.4000000000001","650.0211431702996","404.58000000000004","11","","","","","","",""
"","","","","","html-keyboard-response","105","433184","0.0-10.0-1.8","","","","","","","","","","","","","","","","368.99000000000007","300.0000000363043","4148","","","","","","","","","","","","","","",""
"","","","","","html-keyboard-response","105","433184","0.0-10.0-1.8","","","","","","","","","","reconstruct","","","","","","368.99000000000007","300.0000000363043","4148","","","","","","","","","3","500","250","140.22703057410297","215.40965576808193","299.85909995198085","false"
"","","","","","html-keyboard-response","106","436189","0.0-10.0-0.9","","","","null","","null","","","","fallScene","","","","","","","","","","","","false","322.3","308.07114317029976","253.89","2","","","","","","",""
"","","","","","html-keyboard-response","107","440658","0.0-10.0-1.9","","","","","","","","","","","","","","","","357.00999999999516","281.00000031133675","4467.5999999940395","","","","","","","","","","","","","","",""
"","","","","","html-keyboard-response","107","440658","0.0-10.0-1.9","","","","","","","","","","reconstruct","","","","","","357.00999999999516","281.00000031133675","4467.5999999940395","","","","","","","","","6","625","350","276.73026588546134","331.1812681770825","55.94607961848715","true"
"","","","","","html-keyboard-response","108","443668","0.0-10.0-0.10","","","","null","","null","","","","fallScene","","","","","","","","","","","","true","604.4000000000001","575.4211431702997","266.76","12","","","","","","",""
"","","","","","html-keyboard-response","109","450032","0.0-10.0-1.10","","","","","","","","","","","","","","","","384.99000000001973","324.00000062798216","6363.9000000059605","","","","","","","","","","","","","","",""
"","","","","","html-keyboard-response","109","450032","0.0-10.0-1.10","","","","","","","","","","reconstruct","","","","","","384.99000000001973","324.00000062798216","6363.9000000059605","","","","","","","","","5","625","250","251.1589142215181","52.33508043884061","198.8477758513559","false"
"","","","","","html-keyboard-response","110","453036","0.0-10.0-0.11","","","","null","","null","","","","fallScene","","","","","","","","","","","","false","500","479.92114317029973","330.87","6","","","","","","",""
"","","","","","html-keyboard-response","111","456316","0.0-10.0-1.11","","","","","","","","","","","","","","","","531.009999547405","332.9999048595978","3278.7000000178814","","","","","","","","","","","","","","",""
"","","","","","html-keyboard-response","111","456316","0.0-10.0-1.11","","","","","","","","","","reconstruct","","","","","","531.009999547405","332.9999048595978","3278.7000000178814","","","","","","","","","3","500","250","88.60363580932975","83.32537063576497","51.133235186436465","false"
"","","","","","html-keyboard-response","112","459324","0.0-10.0-0.12","","","","null","","null","","","","fallScene","","","","","","","","","","","","true","500","553.4711431702997","282.51","7","","","","","","",""
"","","","","","html-keyboard-response","113","463419","0.0-10.0-1.12","","","","","","","","","","","","","","","","515.998421983893","326.99012529164145","4094.199999988079","","","","","","","","","","","","","","",""
"","","","","","html-keyboard-response","113","463419","0.0-10.0-1.12","","","","","","","","","","reconstruct","","","","","","515.998421983893","326.99012529164145","4094.199999988079","","","","","","","","","5","625","250","133.4497036430734","78.57020719944529","58.16086638861475","false"
"","","","","","html-keyboard-response","114","466429","0.0-10.0-0.13","","","","null","","null","","","","fallScene","","","","","","","","","","","","true","500","553.4711431702997","282.51","7","","","","","","",""
"","","","","","html-keyboard-response","115","470184","0.0-10.0-1.13","","","","","","","","","","","","","","","","484.9999689818238","353.9900000481065","3754.4000000059605","","","","","","","","","","","","","","",""
"","","","","","html-keyboard-response","115","470184","0.0-10.0-1.13","","","","","","","","","","reconstruct","","","","","","484.9999689818238","353.9900000481065","3754.4000000059605","","","","","","","","","4","500","350","15.52163106539184","86.1049548628805","98.98329203267542","false"
"","","","","","html-keyboard-response","116","473188","0.0-10.0-0.14","","","","null","","null","","","","fallScene","","","","","","","","","","","","true","322.3","308.07114317029976","253.89","2","","","","","","",""
"","","","","","html-keyboard-response","117","479193","0.0-10.0-1.14","","","","","","","","","","","","","","","","626.0170710674803","345.00712094277094","6004.0999999940395","","","","","","","","","","","","","","",""
"","","","","","html-keyboard-response","117","479193","0.0-10.0-1.14","","","","","","","","","","reconstruct","","","","","","626.0170710674803","345.00712094277094","6004.0999999940395","","","","","","","","","2","375","350","251.06672182624396","117.11790630185682","330.7445279899558","false"
"","","","","","html-keyboard-response","118","482196","0.0-10.0-0.15","","","","null","","null","","","","fallScene","","","","","","","","","","","","false","322.3","308.07114317029976","253.89","2","","","","","","",""
"","","","","","html-keyboard-response","119","488398","0.0-10.0-1.15","","","","","","","","","","","","","","","","327.9929288185691","336.992929045809","6201.9000000059605","","","","","","","","","","","","","","",""
"","","","","","html-keyboard-response","119","488398","0.0-10.0-1.15","","","","","","","","","","reconstruct","","","","","","327.9929288185691","336.992929045809","6201.9000000059605","","","","","","","","","5","625","250","309.48500777217095","316.9527289539887","85.45744180238695","true"
"","","","","","html-keyboard-response","120","491405","0.0-10.0-0.16","","","","null","","null","","","","fallScene","","","","","","","","","","","","false","604.4000000000001","667.6211431702998","201.78","9","","","","","","",""
"","","","","","html-keyboard-response","121","495743","0.0-10.0-1.16","","","","","","","","","","","","","","","","635.0096988295967","344.99756428563757","4337.5999999940395","","","","","","","","","","","","","","",""
"","","","","","html-keyboard-response","121","495743","0.0-10.0-1.16","","","","","","","","","","reconstruct","","","","","","635.0096988295967","344.99756428563757","4337.5999999940395","","","","","","","","","4","500","350","135.10234321111804","223.75436540482988","146.88354918743454","true"
"","","","","","html-keyboard-response","122","498750","0.0-10.0-0.17","","","","null","","null","","","","fallScene","","","","","","","","","","","","true","322.3","308.07114317029976","253.89","2","","","","","","",""
"","","","","","html-keyboard-response","123","502786","0.0-10.0-1.17","","","","","","","","","","","","","","","","607.9900000495917","383.9999685066436","4035.5999999940395","","","","","","","","","","","","","","",""
"","","","","","html-keyboard-response","123","502786","0.0-10.0-1.17","","","","","","","","","","reconstruct","","","","","","607.9900000495917","383.9999685066436","4035.5999999940395","","","","","","","","","3","500","250","172.0983197782369","191.96827389950553","326.9249525756347","false"
"","","","","","html-button-response","124","504166","0.0-11.0","","","","1378","","0","","","","","<p><span style = ""font-size:40px;"">BREAK</span></p><p>You are almost done! Click 'Next' when you are ready for the next set.</p>","","","","","","","","","","","","","","","","","","","","","",""
"","","","","","html-keyboard-response","125","507174","0.0-12.0-0.0","","","","null","","null","","","","fallScene","","","","","","","","","","","","true","322.3","296.07114317029976","371.46","3","","","","","","",""
"","","","","","html-keyboard-response","126","511241","0.0-12.0-1.0","","","","","","","","","","","","","","","","667.99","234.00000000022268","4067.199999988079","","","","","","","","","","","","","","",""
"","","","","","html-keyboard-response","126","511241","0.0-12.0-1.0","","","","","","","","","","reconstruct","","","","","","667.99","234.00000000022268","4067.199999988079","","","","","","","","","1","375","250","293.4265497530734","144.8526701184459","396.5083702337819","false"
"","","","","","html-keyboard-response","127","514246","0.0-12.0-0.1","","","","null","","null","","","","fallScene","","","","","","","","","","","","true","500","553.4711431702997","282.51","7","","","","","","",""
"","","","","","html-keyboard-response","128","518085","0.0-12.0-1.1","","","","","","","","","","","","","","","","479.9910557276551","304.9955278649147","3839.199999988079","","","","","","","","","","","","","","",""
"","","","","","html-keyboard-response","128","518085","0.0-12.0-1.1","","","","","","","","","","reconstruct","","","","","","479.9910557276551","304.9955278649147","3839.199999988079","","","","","","","","","1","375","250","118.52269769098321","181.4079630129659","76.84349168239655","true"
"","","","","","html-keyboard-response","129","521094","0.0-12.0-0.2","","","","null","","null","","","","fallScene","","","","","","","","","","","","true","604.4000000000001","650.0211431702996","404.58000000000004","11","","","","","","",""
"","","","","","html-keyboard-response","130","525407","0.0-12.0-1.2","","","","","","","","","","","","","","","","328.99280550153554","291.9930545560369","4313.0999999940395","","","","","","","","","","","","","","",""
"","","","","","html-keyboard-response","130","525407","0.0-12.0-1.2","","","","","","","","","","reconstruct","","","","","","328.99280550153554","291.9930545560369","4313.0999999940395","","","","","","","","","1","375","250","62.290276741766284","315.4863001632535","340.19849187021975","false"
"","","","","","html-keyboard-response","131","528414","0.0-12.0-0.3","","","","null","","null","","","","fallScene","","","","","","","","","","","","true","322.3","379.3711431702997","245.25","1","","","","","","",""
"","","","","","html-keyboard-response","132","533620","0.0-12.0-1.3","","","","","","","","","","","","","","","","655.0063732135196","263.0189573748299","5205.4000000059605","","","","","","","","","","","","","","",""
"","","","","","html-keyboard-response","132","533620","0.0-12.0-1.3","","","","","","","","","","reconstruct","","","","","","655.0063732135196","263.0189573748299","5205.4000000059605","","","","","","","","","4","500","350","177.74329104911553","159.76195917689645","276.20737840826644","false"
"","","","","","html-keyboard-response","133","536623","0.0-12.0-0.4","","","","null","","null","","","","fallScene","","","","","","","","","","","","true","500","479.92114317029973","330.87","6","","","","","","",""
"","","","","","html-keyboard-response","134","541219","0.0-12.0-1.4","","","","","","","","","","","","","","","","499.00999992353746","338.99996089444323","4596.0999999940395","","","","","","","","","","","","","","",""
"","","","","","html-keyboard-response","134","541219","0.0-12.0-1.4","","","","","","","","","","reconstruct","","","","","","499.00999992353746","338.99996089444323","4596.0999999940395","","","","","","","","","1","375","250","152.641649362971","132.47038606482027","20.748029214621955","false"
"","","","","","html-keyboard-response","135","544223","0.0-12.0-0.5","","","","null","","null","","","","fallScene","","","","","","","","","","","","false","322.3","308.07114317029976","253.89","2","","","","","","",""
"","","","","","html-keyboard-response","136","548476","0.0-12.0-1.5","","","","","","","","","","","","","","","","375.9810192809169","313.9936966437154","4252.4000000059605","","","","","","","","","","","","","","",""
"","","","","","html-keyboard-response","136","548476","0.0-12.0-1.5","","","","","","","","","","reconstruct","","","","","","375.9810192809169","313.9936966437154","4252.4000000059605","","","","","","","","","1","375","250","64.00121568343371","67.04180767648283","90.68740609146968","false"
"","","","","","html-keyboard-response","137","551487","0.0-12.0-0.6","","","","null","","null","","","","fallScene","","","","","","","","","","","","false","500","553.4711431702997","282.51","7","","","","","","",""
"","","","","","html-keyboard-response","138","555164","0.0-12.0-1.6","","","","","","","","","","","","","","","","545.0099994614703","328.9998962199251","3677.100000023842","","","","","","","","","","","","","","",""
"","","","","","html-keyboard-response","138","555165","0.0-12.0-1.6","","","","","","","","","","reconstruct","","","","","","545.0099994614703","328.9998962199251","3677.100000023842","","","","","","","","","3","500","250","90.92240457819238","62.57845677178917","47.25358614328516","false"
"","","","","","html-keyboard-response","139","558175","0.0-12.0-0.7","","","","null","","null","","","","fallScene","","","","","","","","","","","","true","604.4000000000001","596.8711431702998","394.5","10","","","","","","",""
"","","","","","html-keyboard-response","140","563506","0.0-12.0-1.7","","","","","","","","","","","","","","","","427.9900024651019","355.00022202693896","5329.5","","","","","","","","","","","","","","",""
"","","","","","html-keyboard-response","140","563506","0.0-12.0-1.7","","","","","","","","","","reconstruct","","","","","","427.9900024651019","355.00022202693896","5329.5","","","","","","","","","5","625","250","223.24422893863803","147.21237239629613","173.43895798179244","false"
"","","","","","html-keyboard-response","141","566512","0.0-12.0-0.8","","","","null","","null","","","","fallScene","","","","","","","","","","","","true","322.3","356.42114317029973","357.87","4","","","","","","",""
"","","","","","html-keyboard-response","142","571799","0.0-12.0-1.8","","","","","","","","","","","","","","","","659.0099999995961","391.0000028421851","5286","","","","","","","","","","","","","","",""
"","","","","","html-keyboard-response","142","571799","0.0-12.0-1.8","","","","","","","","","","reconstruct","","","","","","659.0099999995961","391.0000028421851","5286","","","","","","","","","1","375","250","317.08465888665563","109.45826063435551","304.39713100747775","false"
"","","","","","html-keyboard-response","143","574808","0.0-12.0-0.9","","","","null","","null","","","","fallScene","","","","","","","","","","","","false","500","553.4711431702997","282.51","7","","","","","","",""
"","","","","","html-keyboard-response","144","579738","0.0-12.0-1.9","","","","","","","","","","","","","","","","449.00999464853817","421.99967289054104","4930.300000011921","","","","","","","","","","","","","","",""
"","","","","","html-keyboard-response","144","579738","0.0-12.0-1.9","","","","","","","","","","reconstruct","","","","","","449.00999464853817","421.99967289054104","4930.300000011921","","","","","","","","","6","625","350","190.14845484503016","98.34265330650666","174.26847217324095","false"
"","","","","","html-keyboard-response","145","582744","0.0-12.0-0.10","","","","null","","null","","","","fallScene","","","","","","","","","","","","true","500","453.67114317029973","210.33","5","","","","","","",""
"","","","","","html-keyboard-response","146","586922","0.0-12.0-1.10","","","","","","","","","","","","","","","","564.9900775677321","344.0012431162006","4177.699999988079","","","","","","","","","","","","","","",""
"","","","","","html-keyboard-response","146","586922","0.0-12.0-1.10","","","","","","","","","","reconstruct","","","","","","564.9900775677321","344.0012431162006","4177.699999988079","","","","","","","","","3","500","250","114.28011152274435","60.992391944789844","173.95374785157767","false"
"","","","","","html-keyboard-response","147","589928","0.0-12.0-0.11","","","","null","","null","","","","fallScene","","","","","","","","","","","","false","322.3","379.3711431702997","245.25","1","","","","","","",""
"","","","","","html-keyboard-response","148","593890","0.0-12.0-1.11","","","","","","","","","","","","","","","","370.01","322.99999999622906","3960.5","","","","","","","","","","","","","","",""
"","","","","","html-keyboard-response","148","593890","0.0-12.0-1.11","","","","","","","","","","reconstruct","","","","","","370.01","322.99999999622906","3960.5","","","","","","","","","1","375","250","73.17034986556675","6.455183391295546","78.31151576153069","false"
"","","","","","html-keyboard-response","149","596903","0.0-12.0-0.12","","","","null","","null","","","","fallScene","","","","","","","","","","","","true","322.3","296.07114317029976","371.46","3","","","","","","",""
"","","","","","html-keyboard-response","150","600673","0.0-12.0-1.12","","","","","","","","","","","","","","","","666.0099997349223","350.9999271887154","3768.800000011921","","","","","","","","","","","","","","",""
"","","","","","html-keyboard-response","150","600673","0.0-12.0-1.12","","","","","","","","","","reconstruct","","","","","","666.0099997349223","350.9999271887154","3768.800000011921","","","","","","","","","4","500","350","166.0130111357891","205.05489569349075","370.50421343863746","false"
"","","","","","html-keyboard-response","151","603680","0.0-12.0-0.13","","","","null","","null","","","","fallScene","","","","","","","","","","","","true","604.4000000000001","596.8711431702998","394.5","10","","","","","","",""
"","","","","","html-keyboard-response","152","607483","0.0-12.0-1.13","","","","","","","","","","","","","","","","398.9929289519292","365.99292891244716","3801.600000023842","","","","","","","","","","","","","","",""
"","","","","","html-keyboard-response","152","607483","0.0-12.0-1.13","","","","","","","","","","reconstruct","","","","","","398.9929289519292","365.99292891244716","3801.600000023842","","","","","","","","","1","375","250","118.44838621686807","264.7773671817432","199.92108634219193","true"
"","","","","","html-keyboard-response","153","610485","0.0-12.0-0.14","","","","null","","null","","","","fallScene","","","","","","","","","","","","false","500","453.67114317029973","210.33","5","","","","","","",""
"","","","","","html-keyboard-response","154","614404","0.0-12.0-1.14","","","","","","","","","","","","","","","","633.9900003953891","401.9999110751717","3918.300000011921","","","","","","","","","","","","","","",""
"","","","","","html-keyboard-response","154","614404","0.0-12.0-1.14","","","","","","","","","","reconstruct","","","","","","633.9900003953891","401.9999110751717","3918.300000011921","","","","","","","","","5","625","250","152.2655347541564","175.86155373637507","263.1582130250287","false"
"","","","","","html-keyboard-response","155","617409","0.0-12.0-0.15","","","","null","","null","","","","fallScene","","","","","","","","","","","","false","322.3","379.3711431702997","245.25","1","","","","","","",""
"","","","","","html-keyboard-response","156","624121","0.0-12.0-1.15","","","","","","","","","","","","","","","","367.00215420561426","309.988951291212","6711.4000000059605","","","","","","","","","","","","","","",""
"","","","","","html-keyboard-response","156","624121","0.0-12.0-1.15","","","","","","","","","","reconstruct","","","","","","367.00215420561426","309.988951291212","6711.4000000059605","","","","","","","","","3","500","250","145.90099815616963","120.7223409317444","65.90996663854739","false"
"","","","","","html-keyboard-response","157","627129","0.0-12.0-0.16","","","","null","","null","","","","fallScene","","","","","","","","","","","","false","322.3","356.42114317029973","357.87","4","","","","","","",""
"","","","","","html-keyboard-response","158","630471","0.0-12.0-1.16","","","","","","","","","","","","","","","","353.0094837157646","418.0031716139892","3341","","","","","","","","","","","","","","",""
"","","","","","html-keyboard-response","158","630471","0.0-12.0-1.16","","","","","","","","","","reconstruct","","","","","","353.0094837157646","418.0031716139892","3341","","","","","","","","","2","375","350","71.47037257499704","20.176987413846014","60.2298742202837","false"
"","","","","","html-keyboard-response","159","633481","0.0-12.0-0.17","","","","null","","null","","","","fallScene","","","","","","","","","","","","false","604.4000000000001","667.6211431702998","201.78","9","","","","","","",""
"","","","","","html-keyboard-response","160","638274","0.0-12.0-1.17","","","","","","","","","","","","","","","","615.0070304258887","407.0071114774712","4792.199999988079","","","","","","","","","","","","","","",""
"","","","","","html-keyboard-response","160","638274","0.0-12.0-1.17","","","","","","","","","","reconstruct","","","","","","615.0070304258887","407.0071114774712","4792.199999988079","","","","","","","","","1","375","250","286.80064105289676","296.56753333818097","211.86413605248998","true"
"","","","","","survey-text","161","774633","0.0-13.0","","","","136351","","{""Summary"":""Guess where the triangle would be when the ball falls in different direction""}","","","","","","","","","","","","","","","","","","","","","","","","","","",""
