"success","timeout","failed_images","failed_audio","failed_video","trial_type","trial_index","time_elapsed","internal_node_id","subject_id","study_id","session_id","rt","url","response","view_history","triangle_prac_final_x","triangle_prac_final_y","stimulus","ball_X_prac_occ","ball_Y_prac_occ","obstacle_X_prac_occ","obstacle_Y_prac_occ","trial_cate","triangle_final_x","triangle_final_y","response_time","obstacle_X_prac_occ_init","obstacle_Y_prac_occ_init","question_order","flipped","ball_X","obstacle_groundTruth_x","obstacle_groundTruth_y","stimulus_idx","obstacle_idx","obstacle_initial_x","obstacle_initial_y","final_to_initial_distance","initial_to_groundTruth_distance","final_to_groundTruth_distance","finalInBetweenInitGround"
"true","false","[]","[]","[]","preload","0","4","0.0-0.0","","","","","","","","","","","","","","","","","","","","","","","","","","","","","","","","",""
"","","","","","external-html","1","6935","0.0-1.0","","","","6897","consent.html","","","","","","","","","","","","","","","","","","","","","","","","","","","",""
"true","","","","","fullscreen","2","9004","0.0-2.0","","","","1566","","","","","","","","","","","","","","","","","","","","","","","","","","","","",""
"","","","","","survey-text","3","12537","0.0-3.0","","","","3527","","{""prolificID"":""cindytest""}","","","","","","","","","","","","","","","","","","","","","","","","","","",""
"","","","","","instructions","4","19349","0.0-4.0-0.0-0.0","","","","6812","","","[{""page_index"":0,""viewing_time"":2731},{""page_index"":1,""viewing_time"":968},{""page_index"":2,""viewing_time"":1921},{""page_index"":3,""viewing_time"":1192}]","","","","","","","","","","","","","","","","","","","","","","","","","",""
"","","","","","html-keyboard-response","5","24005","0.0-4.0-0.0-1.0","","","","","","","","417.01","401","","","","","","","","","","","","","","","","","","","","","","","",""
"","","","","","html-keyboard-response","5","24005","0.0-4.0-0.0-1.0","","","","","","","","","","","","","","","","","","","","","","","","","","","","","","","","",""
"","","","","","html-button-response","6","25435","0.0-4.0-0.0-2.0","","","","1429","","0","","","","<p>To help you get comfortable with the task, let's start with a practice trial first!</p><p>As described previously, you will first see a video of a ball falling, some of it behind a gray screen.</p><p>After the video, you will drag a triangle to where you think the ball hit the triangle behind the screen.</p><p>Click 'Next' to start the practice trial.</p>","","","","","","","","","","","","","","","","","","","","","","",""
"","","","","","html-keyboard-response","7","28436","0.0-4.0-0.0-3.0","","","","null","","null","","","","","400","50","420","415","fallScene_practiceTrial_withOccluder","","","","","","","","","","","","","","","","","",""
"","","","","","html-keyboard-response","8","37266","0.0-4.0-0.0-4.0","","","","","","","","","","","","","","","","306.9900009500094","380.0100702126787","8828.5","","","","","","","","","","","","","","",""
"","","","","","html-keyboard-response","8","37266","0.0-4.0-0.0-4.0","","","","","","","","","","","","","","","reconstruct_practiceTrial_withOccluder","","","","500","300","","","","","","","","","","","","",""
"","","","","","html-button-response","9","38583","0.0-4.0-0.0-5.0","","","","1316","","1","","","","<p>Ok! We're almost ready to get started.</p><p>We just have a <b>brief quiz</b>, to make sure you understood the task.</p><p>If you need to review the instructions, click 'Previous'.</p><p>It's important to understand the task to do the study, so you have to pass the quiz to move to the study.</p>","","","","","","","","","","","","","","","","","","","","","","",""
"","","","","","survey-multi-choice","10","41416","0.0-4.0-1.0-0.0","","","","2833","","{""generalProcedure"":""Watch a video of a ball falling, some of it behind a gray screen. After each video, drag a triangle to where I think the ball hit the triangle behind the screen.""}","","","","","","","","","","","","","","","[0]","","","","","","","","","","","",""
"","","","","","survey-multi-choice","11","44500","0.0-4.0-1.0-1.0","","","","3081","","{""checkBallHitObstacle"":""Yes.""}","","","","","","","","","","","","","","","[0]","","","","","","","","","","","",""
"","","","","","survey-multi-choice","12","46233","0.0-4.0-1.0-2.0","","","","1732","","{""checkTriangleVisibility"":""No, the triangle is hidden behind the gray screen.""}","","","","","","","","","","","","","","","[0]","","","","","","","","","","","",""
"","","","","","instructions","13","47603","0.0-5.0","","","","1367","","","[{""page_index"":0,""viewing_time"":1366}]","","","","","","","","","","","","","","","","","","","","","","","","","",""
"","","","","","html-keyboard-response","14","50606","0.0-6.0-0.0","","","","null","","null","","","","","","","","","fallScene","","","","","","","true","322.3","379.3711431702997","245.25","1","","","","","","",""
"","","","","","html-keyboard-response","15","53419","0.0-6.0-1.0","","","","","","","","","","","","","","","","615.0000999800183","267.0099995001873","2812.2000000476837","","","","","","","","","","","","","","",""
"","","","","","html-keyboard-response","15","53419","0.0-6.0-1.0","","","","","","","","","","","","","","","reconstruct","615.0000999800183","267.0099995001873","2812.2000000476837","","","","","","","","","2","375","350","253.94367126072993","104.84116268248488","236.63157622237222","false"
"","","","","","html-button-response","16","54584","0.0-7.0","","","","1164","","0","","","","<p><span style = ""font-size:40px;"">BREAK</span></p><p>You are doing great! Click 'Next' when you are ready for the next set.</p>","","","","","","","","","","","","","","","","","","","","","","",""
"","","","","","html-keyboard-response","17","57588","0.0-8.0-0.0","","","","null","","null","","","","","","","","","fallScene","","","","","","","false","500","510.8711431702997","369.03","8","","","","","","",""
"","","","","","html-keyboard-response","18","60636","0.0-8.0-1.0","","","","","","","","","","","","","","","","525.0000999948988","275.00999950003853","3047.699999988079","","","","","","","","","","","","","","",""
"","","","","","html-keyboard-response","18","60636","0.0-8.0-1.0","","","","","","","","","","","","","","","reconstruct","525.0000999948988","275.00999950003853","3047.699999988079","","","","","","","","","4","500","350","79.04748683379607","21.91626459570958","95.07569571117602","false"
"","","","","","html-button-response","19","61683","0.0-9.0","","","","1047","","0","","","","<p><span style = ""font-size:40px;"">BREAK</span></p><p>You are halfway done! Click 'Next' when you are ready for the next set.</p>","","","","","","","","","","","","","","","","","","","","","","",""
"","","","","","html-keyboard-response","20","64688","0.0-10.0-0.0","","","","null","","null","","","","","","","","","fallScene","","","","","","","false","604.4000000000001","650.0211431702996","404.58000000000004","11","","","","","","",""
"","","","","","html-keyboard-response","21","67467","0.0-10.0-1.0","","","","","","","","","","","","","","","","641.9900002489375","387.9999294401807","2778.5","","","","","","","","","","","","","","",""
"","","","","","html-keyboard-response","21","67467","0.0-10.0-1.0","","","","","","","","","","","","","","","reconstruct","641.9900002489375","387.9999294401807","2778.5","","","","","","","","","3","500","250","198.0028805249765","215.40965576808193","18.42275756752862","true"
"","","","","","html-button-response","22","68583","0.0-11.0","","","","1116","","0","","","","<p><span style = ""font-size:40px;"">BREAK</span></p><p>You are almost done! Click 'Next' when you are ready for the next set.</p>","","","","","","","","","","","","","","","","","","","","","","",""
"","","","","","html-keyboard-response","23","71588","0.0-12.0-0.0","","","","null","","null","","","","","","","","","fallScene","","","","","","","true","322.3","296.07114317029976","371.46","3","","","","","","",""
"","","","","","html-keyboard-response","24","74750","0.0-12.0-1.0","","","","","","","","","","","","","","","","690","273.99","3161.300000011921","","","","","","","","","","","","","","",""
"","","","","","html-keyboard-response","24","74750","0.0-12.0-1.0","","","","","","","","","","","","","","","reconstruct","690","273.99","3161.300000011921","","","","","","","","","4","500","350","204.63997678850532","205.05489569349075","405.8082615511351","false"
"","","","","","html-keyboard-response","25","77755","0.0-13.0-0.0","","","","null","","null","","","","","","","","","fallScene","","","","","","","true","322.3","308.07114317029976","253.89","2","","","","","","",""
"","","","","","html-keyboard-response","26","80801","0.0-13.0-1.0","","","","","","","","","","","","","","","","674.0000999999993","193.00999949998752","3045.5","","","","","","","","","","","","","","",""
"","","","","","html-keyboard-response","26","80801","0.0-13.0-1.0","","","","","","","","","","","","","","","reconstruct","674.0000999999993","193.00999949998752","3045.5","","","","","","","","","3","500","250","183.095316589478","191.96827389950553","370.9587253419895","false"
"","","","","","survey-text","27","85949","0.0-14.0","","","","5147","","{""Summary"":""cindyyyyyy""}","","","","","","","","","","","","","","","","","","","","","","","","","","",""
