"success","timeout","failed_images","failed_audio","failed_video","trial_type","trial_index","time_elapsed","internal_node_id","subject_id","study_id","session_id","rt","url","response","view_history","triangle_prac_final_x","triangle_prac_final_y","stimulus","question_order","flipped","ball_X","obstacle_groundTruth_x","obstacle_groundTruth_y","stimulus_idx","trial_cate","triangle_final_x","triangle_final_y","response_time","obstacle_idx","obstacle_initial_x","obstacle_initial_y","final_to_initial_distance","initial_to_groundTruth_distance","final_to_groundTruth_distance","finalInBetweenInitGround"
"true","false","[]","[]","[]","preload","0","752","0.0-0.0","","","","","","","","","","","","","","","","","","","","","","","","","","",""
"","","","","","external-html","1","25167","0.0-1.0","","","","24378","consent.html","","","","","","","","","","","","","","","","","","","","","",""
"true","","","","","fullscreen","2","26872","0.0-2.0","","","","1199","","","","","","","","","","","","","","","","","","","","","","",""
"","","","","","survey-text","3","30577","0.0-3.0","","","","3696","","{""prolificID"":""ccc""}","","","","","","","","","","","","","","","","","","","","",""
"","","","","","instructions","4","34982","0.0-4.0-0.0-0.0","","","","4404","","","[{""page_index"":0,""viewing_time"":851},{""page_index"":1,""viewing_time"":925},{""page_index"":2,""viewing_time"":1907},{""page_index"":3,""viewing_time"":720}]","","","","","","","","","","","","","","","","","","","",""
"","","","","","html-keyboard-response","5","37834","0.0-4.0-0.0-1.0","","","","","","","","351.009486051165","293.00316462214096","","","","","","","","","","","","","","","","","",""
"","","","","","html-keyboard-response","5","37834","0.0-4.0-0.0-1.0","","","","","","","","","","","","","","","","","","","","","","","","","","",""
"","","","","","html-button-response","6","38691","0.0-4.0-0.0-2.0","","","","855","","1","","","","<p>Ok! We're almost ready to get started.</p><p>We just have a <b>brief quiz</b>, to make sure you understood the task.</p><p>If you need to review the instructions, click 'Previous'.</p><p>It's important to understand the task to do the study, so you have to pass the quiz to move to the study.</p>","","","","","","","","","","","","","","","","",""
"","","","","","survey-multi-choice","7","39986","0.0-4.0-1.0-0.0","","","","1292","","{""generalProcedure"":""Watch a video of a ball falling, some of it behind a gray screen. After each video, drag a triangle to where I think the ball hit the triangle behind the screen.""}","","","","","[0]","","","","","","","","","","","","","","","",""
"","","","","","survey-multi-choice","8","41940","0.0-4.0-1.0-1.0","","","","1937","","{""checkBallHitObstacle"":""Yes.""}","","","","","[0]","","","","","","","","","","","","","","","",""
"","","","","","survey-multi-choice","9","44605","0.0-4.0-1.0-2.0","","","","2648","","{""checkTriangleVisibility"":""No, the triangle is hidden behind the gray screen.""}","","","","","[0]","","","","","","","","","","","","","","","",""
"","","","","","instructions","10","45369","0.0-5.0","","","","748","","","[{""page_index"":0,""viewing_time"":748}]","","","","","","","","","","","","","","","","","","","",""
"","","","","","html-keyboard-response","11","48379","0.0-6.0-0.0","","","","null","","null","","","","","","false","500","453.67114317029973","210.33","5","fallScene","","","","","","","","","",""
"","","","","","html-keyboard-response","12","57026","0.0-6.0-1.0","","","","","","","","","","","","","","","","","","483.99000024649234","259.99992978756393","8644.999999999993","","","","","","",""
"","","","","","html-keyboard-response","12","57026","0.0-6.0-1.0","","","","","","","","","","","","","","","","","reconstruct","483.99000024649234","259.99992978756393","8644.999999999993","4","500","350","91.41297900380852","147.15322584009792","58.192224734135436","true"
"","","","","","html-button-response","13","58408","0.0-7.0","","","","1379","","0","","","","<p><span style = ""font-size:40px;"">BREAK</span></p><p>You are doing great! Click 'Next' when you are ready for the next set.</p>","","","","","","","","","","","","","","","","",""
"","","","","","html-keyboard-response","14","61414","0.0-8.0-0.0","","","","null","","null","","","","","","true","322.3","308.07114317029976","253.89","2","fallScene","","","","","","","","","",""
"","","","","","html-keyboard-response","15","68518","0.0-8.0-1.0","","","","","","","","","","","","","","","","","","662.0089533155141","311.9955459971592","7103","","","","","","",""
"","","","","","html-keyboard-response","15","68518","0.0-8.0-1.0","","","","","","","","","","","","","","","","","reconstruct","662.0089533155141","311.9955459971592","7103","1","375","250","293.62831438189477","67.04180767648283","358.6756583962979","false"
"","","","","","html-button-response","16","74123","0.0-9.0","","","","5603","","0","","","","<p><span style = ""font-size:40px;"">BREAK</span></p><p>You are halfway done! Click 'Next' when you are ready for the next set.</p>","","","","","","","","","","","","","","","","",""
"","","","","","html-keyboard-response","17","77129","0.0-10.0-0.0","","","","null","","null","","","","","","false","500","510.8711431702997","369.03","8","fallScene","","","","","","","","","",""
"","","","","","html-keyboard-response","18","79357","0.0-10.0-1.0","","","","","","","","","","","","","","","","","","461.00999999959527","293.00000284501715","2223","","","","","","",""
"","","","","","html-keyboard-response","18","79357","0.0-10.0-1.0","","","","","","","","","","","","","","","","","reconstruct","461.00999999959527","293.00000284501715","2223","6","625","350","173.6137084904323","115.70452394463331","90.92136198757794","false"
"","","","","","html-button-response","19","80175","0.0-11.0","","","","815","","0","","","","<p><span style = ""font-size:40px;"">BREAK</span></p><p>You are almost done! Click 'Next' when you are ready for the next set.</p>","","","","","","","","","","","","","","","","",""
"","","","","","html-keyboard-response","20","83181","0.0-12.0-0.0","","","","null","","null","","","","","","false","322.3","308.07114317029976","253.89","2","fallScene","","","","","","","","","",""
"","","","","","html-keyboard-response","21","87587","0.0-12.0-1.0","","","","","","","","","","","","","","","","","","331.0092849700061","301.99628660101985","4404","","","","","","",""
"","","","","","html-keyboard-response","21","87587","0.0-12.0-1.0","","","","","","","","","","","","","","","","","reconstruct","331.0092849700061","301.99628660101985","4404","3","500","250","176.8091501779362","191.96827389950553","53.295151371985966","true"
"","","","","","html-keyboard-response","22","90590","0.0-13.0-0.0","","","","null","","null","","","","","","true","604.4000000000001","596.8711431702998","394.5","10","fallScene","","","","","","","","","",""
"","","","","","html-keyboard-response","23","93146","0.0-13.0-1.0","","","","","","","","","","","","","","","","","","396.00780840430014","353.9937526947981","2554","","","","","","",""
"","","","","","html-keyboard-response","23","93146","0.0-13.0-1.0","","","","","","","","","","","","","","","","","reconstruct","396.00780840430014","353.9937526947981","2554","3","500","250","147.0682716034413","173.96628517940113","204.90689428144728","false"
"","","","","","survey-text","24","139735","0.0-14.0","","","","46578","","{""Summary"":""mmmm""}","","","","","","","","","","","","","","","","","","","","",""
