"success","timeout","failed_images","failed_audio","failed_video","trial_type","trial_index","time_elapsed","internal_node_id","subject_id","study_id","session_id","rt","url","response","view_history","triangle_prac_final_x","triangle_prac_final_y","stimulus","question_order","comprehensionCheck","flipped","ball_X","obstacle_groundTruth_x","obstacle_groundTruth_y","stimulus_idx","trial_cate","triangle_final_x","triangle_final_y","response_time","obstacle_idx","obstacle_initial_x","obstacle_initial_y","final_to_initial_distance","initial_to_groundTruth_distance","final_to_groundTruth_distance","finalInBetweenInitGround"
"true","false","[]","[]","[]","preload","0","5","0.0-0.0","","","","","","","","","","","","","","","","","","","","","","","","","","","",""
"","","","","","external-html","1","12823","0.0-1.0","","","","12796","consent.html","","","","","","","","","","","","","","","","","","","","","","",""
"true","","","","","fullscreen","2","14564","0.0-2.0","","","","1233","","","","","","","","","","","","","","","","","","","","","","","",""
"","","","","","survey-text","3","18959","0.0-3.0","","","","4393","","{""Q0"":""aaaaaaa""}","","","","","","","","","","","","","","","","","","","","","",""
"","","","","","instructions","4","35911","0.0-4.0-0.0-0.0","","","","16951","","","[{""page_index"":0,""viewing_time"":2069},{""page_index"":1,""viewing_time"":2155},{""page_index"":2,""viewing_time"":6818},{""page_index"":3,""viewing_time"":5908}]","","","","","","","","","","","","","","","","","","","","",""
"","","","","","html-keyboard-response","5","47500","0.0-4.0-0.0-1.0","","","","","","","","319.0002366856368","231.9900028013969","","","","","","","","","","","","","","","","","","",""
"","","","","","html-keyboard-response","5","47500","0.0-4.0-0.0-1.0","","","","","","","","","","","","","","","","","","","","","","","","","","","",""
"","","","","","html-button-response","6","53925","0.0-4.0-0.0-2.0","","","","6425","","1","","","","<p>Ok! We're almost ready to get started.</p><p>We just have a <b>brief quiz</b>, to make sure you understood the task.</p><p>If you need to review the instructions, click 'Previous'.</p><p>It's important to understand the task to do the study, so you have to pass the quiz to move to the study.</p>","","","","","","","","","","","","","","","","","",""
"","","","","","survey-multi-choice","7","56025","0.0-4.0-1.0-0.0","","","","2098","","{""generalProcedure"":""Watch a video of a triangle falling. Nothing is hidden. After each video, drag a ball to some random place.""}","","","","","[0]","","","","","","","","","","","","","","","","",""
"","","","","","survey-multi-choice","8","58242","0.0-4.0-1.0-1.0","","","","2215","","{""checkBallHitObstacle"":""I am not sure.""}","","","","","[0]","","","","","","","","","","","","","","","","",""
"","","","","","survey-multi-choice","9","60047","0.0-4.0-1.0-2.0","","","","1802","","{""checkTriangleVisibility"":""I am not sure.""}","","","","","[0]","","","","","","","","","","","","","","","","",""
"","","","","","html-button-response","10","60978","0.0-4.0-2.0-0.0","","","","929","","0","","","","<p>Oops! You did not pass the quiz.</p><p>You will now repeat the instructions and practice.</p>","","failed","","","","","","","","","","","","","","","",""
"","","","","","instructions","11","77509","0.0-4.1-0.1-0.1","","","","16531","","","[{""page_index"":0,""viewing_time"":1717},{""page_index"":1,""viewing_time"":1838},{""page_index"":2,""viewing_time"":4501},{""page_index"":3,""viewing_time"":8474}]","","","","","","","","","","","","","","","","","","","","",""
"","","","","","html-keyboard-response","12","82613","0.0-4.1-0.1-1.1","","","","","","","","382.0099999985074","357.9999945362888","","","","","","","","","","","","","","","","","","",""
"","","","","","html-keyboard-response","12","82613","0.0-4.1-0.1-1.1","","","","","","","","","","","","","","","","","","","","","","","","","","","",""
"","","","","","html-button-response","13","84314","0.0-4.1-0.1-2.1","","","","1700","","1","","","","<p>Ok! We're almost ready to get started.</p><p>We just have a <b>brief quiz</b>, to make sure you understood the task.</p><p>If you need to review the instructions, click 'Previous'.</p><p>It's important to understand the task to do the study, so you have to pass the quiz to move to the study.</p>","","","","","","","","","","","","","","","","","",""
"","","","","","survey-multi-choice","14","85852","0.0-4.1-1.1-0.1","","","","1537","","{""generalProcedure"":""Watch a video of a ball falling, some of it behind a gray screen. After each video, drag a triangle to where I think the ball hit the triangle behind the screen.""}","","","","","[0]","","","","","","","","","","","","","","","","",""
"","","","","","survey-multi-choice","15","88903","0.0-4.1-1.1-1.1","","","","3049","","{""checkBallHitObstacle"":""Yes.""}","","","","","[0]","","","","","","","","","","","","","","","","",""
"","","","","","survey-multi-choice","16","90302","0.0-4.1-1.1-2.1","","","","1397","","{""checkTriangleVisibility"":""No, the triangle is hidden behind the gray screen.""}","","","","","[0]","","","","","","","","","","","","","","","","",""
"","","","","","instructions","17","95793","0.0-5.0","","","","5489","","","[{""page_index"":0,""viewing_time"":5489}]","","","","","","","","","","","","","","","","","","","","",""
"","","","","","html-keyboard-response","18","98796","0.0-6.0-0.0","","","","null","","null","","","","","","","false","604.4000000000001","596.8711431702998","394.5","10","fallScene","","","","","","","","","",""
"","","","","","html-keyboard-response","19","101812","0.0-6.0-1.0","","","","","","","","","","","","","","","","","","","578.9999999999015","320.01","3015","","","","","","",""
"","","","","","html-keyboard-response","19","101812","0.0-6.0-1.0","","","","","","","","","","","","","","","","","","reconstruct","578.9999999999015","320.01","3015","1","375","250","215.67892827061206","264.7773671817432","76.6037718276122","true"
"","","","","","html-button-response","20","103181","0.0-7.0","","","","1368","","0","","","","<p><span style = ""font-size:40px;"">BREAK</span></p><p>You are doing great! Click 'Next' when you are ready for the next set.</p>","","","","","","","","","","","","","","","","","",""
"","","","","","html-keyboard-response","21","106189","0.0-8.0-0.0","","","","null","","null","","","","","","","false","604.4000000000001","575.4211431702997","266.76","12","fallScene","","","","","","","","","",""
"","","","","","html-keyboard-response","22","109052","0.0-8.0-1.0","","","","","","","","","","","","","","","","","","","622.9992171491175","328.0099693101314","2862.900000035763","","","","","","",""
"","","","","","html-keyboard-response","22","109052","0.0-8.0-1.0","","","","","","","","","","","","","","","","","","reconstruct","622.9992171491175","328.0099693101314","2862.900000035763","5","625","250","78.0356229153329","52.33508043884061","77.5579258620671","false"
"","","","","","html-button-response","23","110152","0.0-9.0","","","","1099","","0","","","","<p><span style = ""font-size:40px;"">BREAK</span></p><p>You are halfway done! Click 'Next' when you are ready for the next set.</p>","","","","","","","","","","","","","","","","","",""
"","","","","","html-keyboard-response","24","113154","0.0-10.0-0.0","","","","null","","null","","","","","","","false","322.3","379.3711431702997","245.25","1","fallScene","","","","","","","","","",""
"","","","","","html-keyboard-response","25","115725","0.0-10.0-1.0","","","","","","","","","","","","","","","","","","","347.000099995","327.9900004999625","2570.399999976158","","","","","","",""
"","","","","","html-keyboard-response","25","115725","0.0-10.0-1.0","","","","","","","","","","","","","","","","","","reconstruct","347.000099995","327.9900004999625","2570.399999976158","1","375","250","82.86395222455991","6.455183391295546","88.84701525088454","false"
"","","","","","html-button-response","26","116808","0.0-11.0","","","","1082","","0","","","","<p><span style = ""font-size:40px;"">BREAK</span></p><p>You are almost done! Click 'Next' when you are ready for the next set.</p>","","","","","","","","","","","","","","","","","",""
"","","","","","html-keyboard-response","27","119809","0.0-12.0-0.0","","","","null","","null","","","","","","","true","500","510.8711431702997","369.03","8","fallScene","","","","","","","","","",""
"","","","","","html-keyboard-response","28","122412","0.0-12.0-1.0","","","","","","","","","","","","","","","","","","","482.00999999725946","244.99999259654197","2602.600000023842","","","","","","",""
"","","","","","html-keyboard-response","28","122412","0.0-12.0-1.0","","","","","","","","","","","","","","","","","","reconstruct","482.00999999725946","244.99999259654197","2602.600000023842","1","375","250","107.12674816985768","180.6352912539631","127.34366227557842","true"
"","","","","","html-keyboard-response","29","125415","0.0-13.0-0.0","","","","null","","null","","","","","","","false","500","453.67114317029973","210.33","5","fallScene","","","","","","","","","",""
"","","","","","html-keyboard-response","30","136091","0.0-13.0-1.0","","","","","","","","","","","","","","","","","","","457.00995988279413","254.0008948378215","10675.099999964237","","","","","","",""
"","","","","","html-keyboard-response","30","136091","0.0-13.0-1.0","","","","","","","","","","","","","","","","","","reconstruct","457.00995988279413","254.0008948378215","10675.099999964237","4","500","350","105.18541601010084","147.15322584009792","43.798341897561556","true"
