"success","timeout","failed_images","failed_audio","failed_video","trial_type","trial_index","time_elapsed","internal_node_id","subject_id","study_id","session_id","practiceTestResult","view_history","rt","width","height","webaudio","browser","browser_version","mobile","os","fullscreen","vsync_rate","webcam","microphone","url","stimulus","response","task","ball_X","obstacle_groundTruth_x","obstacle_groundTruth_y","stimulus_idx","trial_name","flipped","choice","timeLimit","question_order","practiceTest","currentTrial","obstacle_choice_x","obstacle_choice_y"
"true","false","[]","[]","[]","preload","0","725","0.0-0.0","6651064be071e3482a85f01c","67619bf32066d179f8b4b1ec","6789494d9e46d96811b3b9c7","passed","","","","","","","","","","","","","","","","","","","","","","","","","","","","","",""
"","","","","","instructions","1","6704","0.0-1.0","6651064be071e3482a85f01c","67619bf32066d179f8b4b1ec","6789494d9e46d96811b3b9c7","passed","[{""page_index"":0,""viewing_time"":5978}]","5978","","","","","","","","","","","","","","","","","","","","","","","","","","","",""
"","","","","","browser-check","2","7694","0.0-2.0","6651064be071e3482a85f01c","67619bf32066d179f8b4b1ec","6789494d9e46d96811b3b9c7","passed","","","1920","945","true","chrome","131.0.0","false","Windows 10","true","60.75","false","true","","","","","","","","","","","","","","","","",""
"","","","","","external-html","3","35090","0.0-3.0","6651064be071e3482a85f01c","67619bf32066d179f8b4b1ec","6789494d9e46d96811b3b9c7","passed","","27299","","","","","","","","","","","","consent.html","","","","","","","","","","","","","","","",""
"true","","","","","fullscreen","4","39910","0.0-4.0","6651064be071e3482a85f01c","67619bf32066d179f8b4b1ec","6789494d9e46d96811b3b9c7","passed","","4507","","","","","","","","","","","","","","","","","","","","","","","","","","","",""
"","","","","","browser-check","5","40913","0.0-5.0","6651064be071e3482a85f01c","67619bf32066d179f8b4b1ec","6789494d9e46d96811b3b9c7","passed","","","1920","1080","true","chrome","131.0.0","false","Windows 10","true","59.9","false","true","","","","","","","","","","","","","","","","",""
"","","","","","html-keyboard-response","6","45142","0.0-6.0","6651064be071e3482a85f01c","67619bf32066d179f8b4b1ec","6789494d9e46d96811b3b9c7","passed","","4229","","","","","","","","","","","","","<p><b>This experiment requires keyboard input.</b></p> 
        <p><b>To ensure your response will be recorded successfully, please press 'Space' to continue.</b></p>
        <p>If you can't proceed, you won't be able to complete this study.</p>
        <p></p> <!-- Blank line -->
        <p id=""blinking-text"" style=""font-weight; animation: blink 2s infinite;"">Press Space to continue</p>
        <style>
            @keyframes blink {
                50% {
                    opacity: 0;
                }
            }
        </style>"," ","","","","","","","","","","","","","",""
"","","","","","html-keyboard-response","7","47608","0.0-7.0","6651064be071e3482a85f01c","67619bf32066d179f8b4b1ec","6789494d9e46d96811b3b9c7","passed","","2466","","","","","","","","","","","","","<p><b>This experiment requires keyboard input.</b></p> 
        <p><b>To ensure your response will be recorded successfully, please press the 'f' key to continue.</b></p>
        <p>If you can't proceed, you won't be able to complete this study.</p>
        <p></p> <!-- Blank line -->
        <p id=""blinking-text"" style=""font-weight; animation: blink 2s infinite;"">Press f to continue</p>
        <style>
            @keyframes blink {
                50% {
                    opacity: 0;
                }
            }
        </style>","f","","","","","","","","","","","","","",""
"","","","","","html-keyboard-response","8","48925","0.0-8.0","6651064be071e3482a85f01c","67619bf32066d179f8b4b1ec","6789494d9e46d96811b3b9c7","passed","","1317","","","","","","","","","","","","","<p><b>This experiment requires keyboard input.</b></p> 
        <p><b>To ensure your response will be recorded successfully, please press the 'j' key to continue.</b></p>
        <p>If you can't proceed, you won't be able to complete this study.</p>
        <p></p> <!-- Blank line -->
        <p id=""blinking-text"" style=""font-weight; animation: blink 2s infinite;"">Press j to continue</p>
        <style>
            @keyframes blink {
                50% {
                    opacity: 0;
                }
            }
        </style>","j","","","","","","","","","","","","","",""
"","","","","","browser-check","9","49938","0.0-9.0","6651064be071e3482a85f01c","67619bf32066d179f8b4b1ec","6789494d9e46d96811b3b9c7","passed","","","1920","1080","true","chrome","131.0.0","false","Windows 10","true","59.88","false","true","","","","","","","","","","","","","","","","",""
"","","","","","survey-text","10","60633","0.0-10.0","6651064be071e3482a85f01c","67619bf32066d179f8b4b1ec","6789494d9e46d96811b3b9c7","passed","","10693","","","","","","","","","","","","","","{""prolificID"":""6651064be071e3482a85f01c""}","","","","","","","","","","","","","",""
"","","","","","instructions","11","117424","0.0-11.0-0.0-0.0","6651064be071e3482a85f01c","67619bf32066d179f8b4b1ec","6789494d9e46d96811b3b9c7","passed","[{""page_index"":0,""viewing_time"":30223},{""page_index"":1,""viewing_time"":10519},{""page_index"":2,""viewing_time"":9627},{""page_index"":3,""viewing_time"":6422}]","56791","","","","","","","","","","","","","","","","","","","","","","","","","","","",""
"","","","","","html-keyboard-response","12","129203","0.0-11.0-0.0-1.0","6651064be071e3482a85f01c","67619bf32066d179f8b4b1ec","6789494d9e46d96811b3b9c7","passed","","11277","","","","","","","","","","","","","<br>Remember! After a ball falls, the screen will disappear, and you'll decide if the proposed position is where the hidden triangle was. <br>You will now practice this by watching a few videos and making decisions.<p>To respond:<br style=""margin-bottom: 5px; text-indent: -20px; padding-left: 20px;"">- Press <b style=""color: #12AD2B;"">J for Yes</b>, if you think the triangle is in the correct position.<br style=""margin-top: 0; text-indent: -20px; padding-left: 20px;"">- Press <b style=""color: orange;"">F for No</b>, if you think the triangle is not in the correct position.</p><p>In this practice round, there is no time limit. Focus on getting comfortable with the task first.<br>Press either J or F to begin your practice trials.</p><img src = ""YesOrNo_instruction.png"" style=""width: 65%;""></img>","j","","","","","","","","","","","","","",""
"","","","","","html-keyboard-response","13","131304","0.0-11.0-0.0-2.0-0.0","6651064be071e3482a85f01c","67619bf32066d179f8b4b1ec","6789494d9e46d96811b3b9c7","passed","","","","","","","","","","","","","","","","","ballFalling_prac","660","666","350","3","fallScene","false","","","","","","",""
"","","","","","html-keyboard-response","14","133875","0.0-11.0-0.0-2.0-1.0","6651064be071e3482a85f01c","67619bf32066d179f8b4b1ec","6789494d9e46d96811b3b9c7","passed","","2568","","","","","","","","","","","","","","j","yesOrNo_prac_noTimed","","","","3","","","wrong direction","NA","","","","",""
"","","","","","html-keyboard-response","15","135459","0.0-11.0-0.0-2.0-0.1","6651064be071e3482a85f01c","67619bf32066d179f8b4b1ec","6789494d9e46d96811b3b9c7","passed","","","","","","","","","","","","","","","","","ballFalling_prac","441","414","302","5","fallScene","true","","","","","","",""
"","","","","","html-keyboard-response","16","136393","0.0-11.0-0.0-2.0-1.1","6651064be071e3482a85f01c","67619bf32066d179f8b4b1ec","6789494d9e46d96811b3b9c7","passed","","933","","","","","","","","","","","","","","j","yesOrNo_prac_noTimed","","","","5","","","close gt","NA","","","","",""
"","","","","","html-keyboard-response","17","137961","0.0-11.0-0.0-2.0-0.2","6651064be071e3482a85f01c","67619bf32066d179f8b4b1ec","6789494d9e46d96811b3b9c7","passed","","","","","","","","","","","","","","","","","ballFalling_prac","416","464","296","1","fallScene","false","","","","","","",""
"","","","","","html-keyboard-response","18","139372","0.0-11.0-0.0-2.0-1.2","6651064be071e3482a85f01c","67619bf32066d179f8b4b1ec","6789494d9e46d96811b3b9c7","passed","","1409","","","","","","","","","","","","","","f","yesOrNo_prac_noTimed","","","","1","","","gt","NA","","","","",""
"","","","","","instructions","19","190582","0.0-11.0-0.0-3.0","6651064be071e3482a85f01c","67619bf32066d179f8b4b1ec","6789494d9e46d96811b3b9c7","passed","[{""page_index"":0,""viewing_time"":32426},{""page_index"":1,""viewing_time"":18784}]","51210","","","","","","","","","","","","","","","","","","","","","","","","","","","",""
"","","","","","html-button-response","20","193713","0.0-11.0-0.0-4.0","6651064be071e3482a85f01c","67619bf32066d179f8b4b1ec","6789494d9e46d96811b3b9c7","passed","","2616","","","","","","","","","","","","","<p>To make sure you understood the task, we just have a <b>brief quiz</b> here.</p><p>If you need to review the instructions, click 'Previous'.</p><p>It's important to understand the task to do the study, so you have to pass the quiz to move to the study.</p>","1","","","","","","","","","","","","","",""
"","","","","","survey-multi-choice","21","221300","0.0-11.0-1.0-0.0","6651064be071e3482a85f01c","67619bf32066d179f8b4b1ec","6789494d9e46d96811b3b9c7","passed","","27587","","","","","","","","","","","","","","{""generalProcedure"":""Watch a video of a ball falling, some of it behind a gray screen. After each video, decide if the triangle is at the spot where the ball hit the triangle behind the screen. There is time limit for the response.""}","","","","","","","","","","[0]","","","",""
"","","","","","survey-multi-choice","22","231579","0.0-11.0-1.0-1.0","6651064be071e3482a85f01c","67619bf32066d179f8b4b1ec","6789494d9e46d96811b3b9c7","passed","","10278","","","","","","","","","","","","","","{""checkBallHitObstacle"":""Yes.""}","","","","","","","","","","[0]","","","",""
"","","","","","survey-multi-choice","23","236352","0.0-11.0-1.0-2.0","6651064be071e3482a85f01c","67619bf32066d179f8b4b1ec","6789494d9e46d96811b3b9c7","passed","","4772","","","","","","","","","","","","","","{""checkTriangleVisibility"":""No, the triangle is hidden behind the gray screen.""}","","","","","","","","","","[0]","","","",""
"","","","","","survey-multi-choice","24","245384","0.0-11.0-1.0-3.0","6651064be071e3482a85f01c","67619bf32066d179f8b4b1ec","6789494d9e46d96811b3b9c7","passed","","9032","","","","","","","","","","","","","","{""checkTimedResponse"":""Your response will not be recorded, and the trial will move to the next one.""}","","","","","","","","","","[0]","","","",""
"","","","","","survey-multi-choice","25","251150","0.0-11.0-1.0-4.0","6651064be071e3482a85f01c","67619bf32066d179f8b4b1ec","6789494d9e46d96811b3b9c7","passed","","5765","","","","","","","","","","","","","","{""checkTimeBlockNotice"":""At the beginning of each block.""}","","","","","","","","","","[0]","","","",""
"","","","","","survey-multi-choice","26","262337","0.0-11.0-1.0-5.0","6651064be071e3482a85f01c","67619bf32066d179f8b4b1ec","6789494d9e46d96811b3b9c7","passed","","11186","","","","","","","","","","","","","","{""checkTimeBlockSameness"":""Yes, the time limit is the same for all trials within a block.""}","","","","","","","","","","[0]","","","",""
"","","","","","survey-multi-choice","27","274244","0.0-11.0-1.0-6.0","6651064be071e3482a85f01c","67619bf32066d179f8b4b1ec","6789494d9e46d96811b3b9c7","passed","","11906","","","","","","","","","","","","","","{""checkTrianglePrecision"":""No. The proposed purple triangle is not in the correct position because it doesn't match the location of the white triangle exactly.""}","","","","","","","","","","[0]","","","",""
"","","","","","instructions","28","295291","0.0-12.0","6651064be071e3482a85f01c","67619bf32066d179f8b4b1ec","6789494d9e46d96811b3b9c7","passed","[{""page_index"":0,""viewing_time"":5815},{""page_index"":1,""viewing_time"":4338},{""page_index"":2,""viewing_time"":5160},{""page_index"":3,""viewing_time"":5733}]","21047","","","","","","","","","","","","","","","","","","","","","","","","","","","",""
"","","","","","instructions","29","303027","0.0-13.0-0.0","6651064be071e3482a85f01c","67619bf32066d179f8b4b1ec","6789494d9e46d96811b3b9c7","passed","[{""page_index"":0,""viewing_time"":7736}]","7736","","","","","","","","","","","","","","","","","","","","","","","","","","","",""
"","","","","","html-keyboard-response","30","306257","0.0-13.0-1.0","6651064be071e3482a85f01c","67619bf32066d179f8b4b1ec","6789494d9e46d96811b3b9c7","passed","","3229","","","","","","","","","","","","","<p><span style=""font-size:40px;"">Practice BLOCK 1</span></p><p><span style=""font-size:25px;"">You have <strong>3 second(s)</strong> to respond to the following trials.</span><br></p><p id=""blinking-text"" style=""font-weight; animation: blink 2s infinite;"">Press Space to continue</p><style>
                    @keyframes blink {
                        50% {
                            opacity: 0;
                        }
                    }
                </style>"," ","","","","","","","","","","","","","",""
"","","","","","html-keyboard-response","31","307819","0.0-13.0-2.0-0.0","6651064be071e3482a85f01c","67619bf32066d179f8b4b1ec","6789494d9e46d96811b3b9c7","passed","","","","","","","","","","","","","","","","","ballFalling_prac","416","464","296","1","fallScene","false","","","","","","",""
"","","","","","html-keyboard-response","32","308463","0.0-13.0-2.0-1.0","6651064be071e3482a85f01c","67619bf32066d179f8b4b1ec","6789494d9e46d96811b3b9c7","passed","","642","","","","","","","","","","","","","","f","yesOrNo_prac","","","","1","","","far gt","3000","","","","",""
"","","","","","html-keyboard-response","33","310038","0.0-13.0-2.0-0.1","6651064be071e3482a85f01c","67619bf32066d179f8b4b1ec","6789494d9e46d96811b3b9c7","passed","","","","","","","","","","","","","","","","","ballFalling_prac","660","610","263","4","fallScene","false","","","","","","",""
"","","","","","html-keyboard-response","34","310924","0.0-13.0-2.0-1.1","6651064be071e3482a85f01c","67619bf32066d179f8b4b1ec","6789494d9e46d96811b3b9c7","passed","","884","","","","","","","","","","","","","","j","yesOrNo_prac","","","","4","","","gt","3000","","","","",""
"","","","","","html-keyboard-response","35","312491","0.0-13.0-2.0-0.2","6651064be071e3482a85f01c","67619bf32066d179f8b4b1ec","6789494d9e46d96811b3b9c7","passed","","","","","","","","","","","","","","","","","ballFalling_prac","584","536","296","1","fallScene","true","","","","","","",""
"","","","","","html-keyboard-response","36","313205","0.0-13.0-2.0-1.2","6651064be071e3482a85f01c","67619bf32066d179f8b4b1ec","6789494d9e46d96811b3b9c7","passed","","713","","","","","","","","","","","","","","f","yesOrNo_prac","","","","1","","","close gt","3000","","","","",""
"","","","","","html-keyboard-response","37","315858","0.0-13.0-3.0","6651064be071e3482a85f01c","67619bf32066d179f8b4b1ec","6789494d9e46d96811b3b9c7","passed","","2652","","","","","","","","","","","","","<p><span style=""font-size:40px;"">Practice BLOCK 2</span></p><p><span style=""font-size:25px;"">You have <strong>1 second(s)</strong> to respond to the following trials.</span><br></p><p id=""blinking-text"" style=""font-weight; animation: blink 2s infinite;"">Press Space to continue</p><style>
                    @keyframes blink {
                        50% {
                            opacity: 0;
                        }
                    }
                </style>"," ","","","","","","","","","","","","","",""
"","","","","","html-keyboard-response","38","317412","0.0-13.0-4.0-0.0","6651064be071e3482a85f01c","67619bf32066d179f8b4b1ec","6789494d9e46d96811b3b9c7","passed","","","","","","","","","","","","","","","","","ballFalling_prac","441","500","317","6","fallScene","true","","","","","","",""
"","","","","","html-keyboard-response","39","318414","0.0-13.0-4.0-1.0","6651064be071e3482a85f01c","67619bf32066d179f8b4b1ec","6789494d9e46d96811b3b9c7","passed","","null","","","","","","","","","","","","","","null","yesOrNo_prac","","","","6","","","gt","1000","","","","",""
"","","","","","html-keyboard-response","40","319998","0.0-13.0-4.0-0.1","6651064be071e3482a85f01c","67619bf32066d179f8b4b1ec","6789494d9e46d96811b3b9c7","passed","","","","","","","","","","","","","","","","","ballFalling_prac","660","610","263","4","fallScene","false","","","","","","",""
"","","","","","html-keyboard-response","41","320323","0.0-13.0-4.0-1.1","6651064be071e3482a85f01c","67619bf32066d179f8b4b1ec","6789494d9e46d96811b3b9c7","passed","","323","","","","","","","","","","","","","","j","yesOrNo_prac","","","","4","","","far gt","1000","","","","",""
"","","","","","html-keyboard-response","42","322434","0.0-13.0-4.0-0.2","6651064be071e3482a85f01c","67619bf32066d179f8b4b1ec","6789494d9e46d96811b3b9c7","passed","","","","","","","","","","","","","","","","","ballFalling_prac","340","334","350","3","fallScene","true","","","","","","",""
"","","","","","html-keyboard-response","43","323320","0.0-13.0-4.0-1.2","6651064be071e3482a85f01c","67619bf32066d179f8b4b1ec","6789494d9e46d96811b3b9c7","passed","","885","","","","","","","","","","","","","","f","yesOrNo_prac","","","","3","","","close gt","1000","","","","",""
"","","","","","instructions","44","328011","0.0-13.0-5.0","6651064be071e3482a85f01c","67619bf32066d179f8b4b1ec","6789494d9e46d96811b3b9c7","passed","[{""page_index"":0,""viewing_time"":4690}]","4690","","","","","","","","","","","","","","","","","","","","","","","","","","","",""
"","","","","","html-keyboard-response","45","331738","0.0-13.0-6.0","6651064be071e3482a85f01c","67619bf32066d179f8b4b1ec","6789494d9e46d96811b3b9c7","passed","","3727","","","","","","","","","","","","","<p><span style=""font-size:40px;"">Practice Test BLOCK 1</span></p><p><span style=""font-size:25px;"">You have <strong>1 second(s)</strong> to respond to the following trials.</span><br></p><p id=""blinking-text"" style=""font-weight; animation: blink 2s infinite;"">Press Space to continue</p><style>
                    @keyframes blink {
                        50% {
                            opacity: 0;
                        }
                    }
                </style>"," ","","","","","","","","","","","","","",""
"","","","","","html-keyboard-response","46","333312","0.0-13.0-7.0-0.0","6651064be071e3482a85f01c","67619bf32066d179f8b4b1ec","6789494d9e46d96811b3b9c7","passed","","","","","","","","","","","","","","","","","ballFalling_prac","340","390","263","4","fallScene","true","","","","","","",""
"","","","","","html-keyboard-response","47","334314","0.0-13.0-7.0-1.0","6651064be071e3482a85f01c","67619bf32066d179f8b4b1ec","6789494d9e46d96811b3b9c7","passed","","null","","","","","","","","","","","","","","null","yesOrNo_prac","","","","4","","","far gt","1000","","","","",""
"","","","","","html-keyboard-response","48","335898","0.0-13.0-7.0-0.1","6651064be071e3482a85f01c","67619bf32066d179f8b4b1ec","6789494d9e46d96811b3b9c7","passed","","","","","","","","","","","","","","","","","ballFalling_prac","559","586","302","5","fallScene","false","","","","","","",""
"","","","","","html-keyboard-response","49","336900","0.0-13.0-7.0-1.1","6651064be071e3482a85f01c","67619bf32066d179f8b4b1ec","6789494d9e46d96811b3b9c7","passed","","null","","","","","","","","","","","","","","null","yesOrNo_prac","","","","5","","","gt","1000","","","","",""
"","","","","","html-keyboard-response","50","338468","0.0-13.0-7.0-0.2","6651064be071e3482a85f01c","67619bf32066d179f8b4b1ec","6789494d9e46d96811b3b9c7","passed","","","","","","","","","","","","","","","","","ballFalling_prac","441","500","317","6","fallScene","true","","","","","","",""
"","","","","","html-keyboard-response","51","339384","0.0-13.0-7.0-1.2","6651064be071e3482a85f01c","67619bf32066d179f8b4b1ec","6789494d9e46d96811b3b9c7","passed","","915","","","","","","","","","","","","","","j","yesOrNo_prac","","","","6","","","close gt","1000","","","","",""
"","","","","","html-keyboard-response","52","341742","0.0-13.0-8.0","6651064be071e3482a85f01c","67619bf32066d179f8b4b1ec","6789494d9e46d96811b3b9c7","passed","","2358","","","","","","","","","","","","","<p><span style=""font-size:40px;"">Practice Test BLOCK 2</span></p><p><span style=""font-size:25px;"">You have <strong>3 second(s)</strong> to respond to the following trials.</span><br></p><p id=""blinking-text"" style=""font-weight; animation: blink 2s infinite;"">Press Space to continue</p><style>
                    @keyframes blink {
                        50% {
                            opacity: 0;
                        }
                    }
                </style>"," ","","","","","","","","","","","","","",""
"","","","","","html-keyboard-response","53","343323","0.0-13.0-9.0-0.0","6651064be071e3482a85f01c","67619bf32066d179f8b4b1ec","6789494d9e46d96811b3b9c7","passed","","","","","","","","","","","","","","","","","ballFalling_prac","340","390","263","4","fallScene","true","","","","","","",""
"","","","","","html-keyboard-response","54","344009","0.0-13.0-9.0-1.0","6651064be071e3482a85f01c","67619bf32066d179f8b4b1ec","6789494d9e46d96811b3b9c7","passed","","685","","","","","","","","","","","","","","f","yesOrNo_prac","","","","4","","","close gt","3000","","","","",""
"","","","","","html-keyboard-response","55","345591","0.0-13.0-9.0-0.1","6651064be071e3482a85f01c","67619bf32066d179f8b4b1ec","6789494d9e46d96811b3b9c7","passed","","","","","","","","","","","","","","","","","ballFalling_prac","416","365","249","2","fallScene","false","","","","","","",""
"","","","","","html-keyboard-response","56","346343","0.0-13.0-9.0-1.1","6651064be071e3482a85f01c","67619bf32066d179f8b4b1ec","6789494d9e46d96811b3b9c7","passed","","747","","","","","","","","","","","","","","j","yesOrNo_prac","","","","2","","","gt","3000","","","","",""
"","","","","","html-keyboard-response","57","347927","0.0-13.0-9.0-0.2","6651064be071e3482a85f01c","67619bf32066d179f8b4b1ec","6789494d9e46d96811b3b9c7","passed","","","","","","","","","","","","","","","","","ballFalling_prac","559","586","302","5","fallScene","false","","","","","","",""
"","","","","","html-keyboard-response","58","348828","0.0-13.0-9.0-1.2","6651064be071e3482a85f01c","67619bf32066d179f8b4b1ec","6789494d9e46d96811b3b9c7","passed","","900","","","","","","","","","","","","","","j","yesOrNo_prac","","","","5","","","far gt","3000","","","","",""
"","","","","","html-button-response","59","356496","0.0-13.0-10.0-0.0","6651064be071e3482a85f01c","67619bf32066d179f8b4b1ec","6789494d9e46d96811b3b9c7","passed","","7667","","","","","","","","","","","","","<p>Oops! You did not pass the practice test. You missed 2 out of 6 trials.</p><p>You will now repeat the practice and the test.</p>","0","","","","","","","","","","","failed","","",""
"","","","","","instructions","60","360950","0.0-13.1-0.1","6651064be071e3482a85f01c","67619bf32066d179f8b4b1ec","6789494d9e46d96811b3b9c7","passed","[{""page_index"":0,""viewing_time"":4453}]","4453","","","","","","","","","","","","","","","","","","","","","","","","","","","",""
"","","","","","html-keyboard-response","61","363194","0.0-13.1-1.1","6651064be071e3482a85f01c","67619bf32066d179f8b4b1ec","6789494d9e46d96811b3b9c7","passed","","2244","","","","","","","","","","","","","<p><span style=""font-size:40px;"">Practice BLOCK 1</span></p><p><span style=""font-size:25px;"">You have <strong>3 second(s)</strong> to respond to the following trials.</span><br></p><p id=""blinking-text"" style=""font-weight; animation: blink 2s infinite;"">Press Space to continue</p><style>
                    @keyframes blink {
                        50% {
                            opacity: 0;
                        }
                    }
                </style>"," ","","","","","","","","","","","","","",""
"","","","","","html-keyboard-response","62","364778","0.0-13.1-2.1-0.3","6651064be071e3482a85f01c","67619bf32066d179f8b4b1ec","6789494d9e46d96811b3b9c7","passed","","","","","","","","","","","","","","","","","ballFalling_prac","660","610","263","4","fallScene","false","","","","","","",""
"","","","","","html-keyboard-response","63","365114","0.0-13.1-2.1-1.3","6651064be071e3482a85f01c","67619bf32066d179f8b4b1ec","6789494d9e46d96811b3b9c7","passed","","335","","","","","","","","","","","","","","j","yesOrNo_prac","","","","4","","","gt","3000","","","","",""
"","","","","","html-keyboard-response","64","366681","0.0-13.1-2.1-0.4","6651064be071e3482a85f01c","67619bf32066d179f8b4b1ec","6789494d9e46d96811b3b9c7","passed","","","","","","","","","","","","","","","","","ballFalling_prac","584","536","296","1","fallScene","true","","","","","","",""
"","","","","","html-keyboard-response","65","367096","0.0-13.1-2.1-1.4","6651064be071e3482a85f01c","67619bf32066d179f8b4b1ec","6789494d9e46d96811b3b9c7","passed","","415","","","","","","","","","","","","","","j","yesOrNo_prac","","","","1","","","close gt","3000","","","","",""
"","","","","","html-keyboard-response","66","368648","0.0-13.1-2.1-0.5","6651064be071e3482a85f01c","67619bf32066d179f8b4b1ec","6789494d9e46d96811b3b9c7","passed","","","","","","","","","","","","","","","","","ballFalling_prac","416","464","296","1","fallScene","false","","","","","","",""
"","","","","","html-keyboard-response","67","368967","0.0-13.1-2.1-1.5","6651064be071e3482a85f01c","67619bf32066d179f8b4b1ec","6789494d9e46d96811b3b9c7","passed","","318","","","","","","","","","","","","","","j","yesOrNo_prac","","","","1","","","far gt","3000","","","","",""
"","","","","","html-keyboard-response","68","371726","0.0-13.1-3.1","6651064be071e3482a85f01c","67619bf32066d179f8b4b1ec","6789494d9e46d96811b3b9c7","passed","","2759","","","","","","","","","","","","","<p><span style=""font-size:40px;"">Practice BLOCK 2</span></p><p><span style=""font-size:25px;"">You have <strong>1 second(s)</strong> to respond to the following trials.</span><br></p><p id=""blinking-text"" style=""font-weight; animation: blink 2s infinite;"">Press Space to continue</p><style>
                    @keyframes blink {
                        50% {
                            opacity: 0;
                        }
                    }
                </style>"," ","","","","","","","","","","","","","",""
"","","","","","html-keyboard-response","69","373304","0.0-13.1-4.1-0.3","6651064be071e3482a85f01c","67619bf32066d179f8b4b1ec","6789494d9e46d96811b3b9c7","passed","","","","","","","","","","","","","","","","","ballFalling_prac","660","610","263","4","fallScene","false","","","","","","",""
"","","","","","html-keyboard-response","70","373572","0.0-13.1-4.1-1.3","6651064be071e3482a85f01c","67619bf32066d179f8b4b1ec","6789494d9e46d96811b3b9c7","passed","","267","","","","","","","","","","","","","","j","yesOrNo_prac","","","","4","","","far gt","1000","","","","",""
"","","","","","html-keyboard-response","71","375689","0.0-13.1-4.1-0.4","6651064be071e3482a85f01c","67619bf32066d179f8b4b1ec","6789494d9e46d96811b3b9c7","passed","","","","","","","","","","","","","","","","","ballFalling_prac","340","334","350","3","fallScene","true","","","","","","",""
"","","","","","html-keyboard-response","72","376057","0.0-13.1-4.1-1.4","6651064be071e3482a85f01c","67619bf32066d179f8b4b1ec","6789494d9e46d96811b3b9c7","passed","","367","","","","","","","","","","","","","","j","yesOrNo_prac","","","","3","","","close gt","1000","","","","",""
"","","","","","html-keyboard-response","73","377625","0.0-13.1-4.1-0.5","6651064be071e3482a85f01c","67619bf32066d179f8b4b1ec","6789494d9e46d96811b3b9c7","passed","","","","","","","","","","","","","","","","","ballFalling_prac","441","500","317","6","fallScene","true","","","","","","",""
"","","","","","html-keyboard-response","74","378044","0.0-13.1-4.1-1.5","6651064be071e3482a85f01c","67619bf32066d179f8b4b1ec","6789494d9e46d96811b3b9c7","passed","","418","","","","","","","","","","","","","","j","yesOrNo_prac","","","","6","","","gt","1000","","","","",""
"","","","","","instructions","75","385992","0.0-13.1-5.1","6651064be071e3482a85f01c","67619bf32066d179f8b4b1ec","6789494d9e46d96811b3b9c7","passed","[{""page_index"":0,""viewing_time"":7948}]","7948","","","","","","","","","","","","","","","","","","","","","","","","","","","",""
"","","","","","html-keyboard-response","76","388887","0.0-13.1-6.1","6651064be071e3482a85f01c","67619bf32066d179f8b4b1ec","6789494d9e46d96811b3b9c7","passed","","2895","","","","","","","","","","","","","<p><span style=""font-size:40px;"">Practice Test BLOCK 1</span></p><p><span style=""font-size:25px;"">You have <strong>1 second(s)</strong> to respond to the following trials.</span><br></p><p id=""blinking-text"" style=""font-weight; animation: blink 2s infinite;"">Press Space to continue</p><style>
                    @keyframes blink {
                        50% {
                            opacity: 0;
                        }
                    }
                </style>"," ","","","","","","","","","","","","","",""
"","","","","","html-keyboard-response","77","390471","0.0-13.1-7.1-0.3","6651064be071e3482a85f01c","67619bf32066d179f8b4b1ec","6789494d9e46d96811b3b9c7","passed","","","","","","","","","","","","","","","","","ballFalling_prac","340","390","263","4","fallScene","true","","","","","","",""
"","","","","","html-keyboard-response","78","390900","0.0-13.1-7.1-1.3","6651064be071e3482a85f01c","67619bf32066d179f8b4b1ec","6789494d9e46d96811b3b9c7","passed","","427","","","","","","","","","","","","","","j","yesOrNo_prac","","","","4","","","far gt","1000","","","","",""
"","","","","","html-keyboard-response","79","392457","0.0-13.1-7.1-0.4","6651064be071e3482a85f01c","67619bf32066d179f8b4b1ec","6789494d9e46d96811b3b9c7","passed","","","","","","","","","","","","","","","","","ballFalling_prac","441","500","317","6","fallScene","true","","","","","","",""
"","","","","","html-keyboard-response","80","392938","0.0-13.1-7.1-1.4","6651064be071e3482a85f01c","67619bf32066d179f8b4b1ec","6789494d9e46d96811b3b9c7","passed","","481","","","","","","","","","","","","","","j","yesOrNo_prac","","","","6","","","close gt","1000","","","","",""
"","","","","","html-keyboard-response","81","394509","0.0-13.1-7.1-0.5","6651064be071e3482a85f01c","67619bf32066d179f8b4b1ec","6789494d9e46d96811b3b9c7","passed","","","","","","","","","","","","","","","","","ballFalling_prac","559","586","302","5","fallScene","false","","","","","","",""
"","","","","","html-keyboard-response","82","394960","0.0-13.1-7.1-1.5","6651064be071e3482a85f01c","67619bf32066d179f8b4b1ec","6789494d9e46d96811b3b9c7","passed","","450","","","","","","","","","","","","","","j","yesOrNo_prac","","","","5","","","gt","1000","","","","",""
"","","","","","html-keyboard-response","83","397166","0.0-13.1-8.1","6651064be071e3482a85f01c","67619bf32066d179f8b4b1ec","6789494d9e46d96811b3b9c7","passed","","2206","","","","","","","","","","","","","<p><span style=""font-size:40px;"">Practice Test BLOCK 2</span></p><p><span style=""font-size:25px;"">You have <strong>3 second(s)</strong> to respond to the following trials.</span><br></p><p id=""blinking-text"" style=""font-weight; animation: blink 2s infinite;"">Press Space to continue</p><style>
                    @keyframes blink {
                        50% {
                            opacity: 0;
                        }
                    }
                </style>"," ","","","","","","","","","","","","","",""
"","","","","","html-keyboard-response","84","398746","0.0-13.1-9.1-0.3","6651064be071e3482a85f01c","67619bf32066d179f8b4b1ec","6789494d9e46d96811b3b9c7","passed","","","","","","","","","","","","","","","","","ballFalling_prac","340","390","263","4","fallScene","true","","","","","","",""
"","","","","","html-keyboard-response","85","399071","0.0-13.1-9.1-1.3","6651064be071e3482a85f01c","67619bf32066d179f8b4b1ec","6789494d9e46d96811b3b9c7","passed","","324","","","","","","","","","","","","","","f","yesOrNo_prac","","","","4","","","close gt","3000","","","","",""
"","","","","","html-keyboard-response","86","400648","0.0-13.1-9.1-0.4","6651064be071e3482a85f01c","67619bf32066d179f8b4b1ec","6789494d9e46d96811b3b9c7","passed","","","","","","","","","","","","","","","","","ballFalling_prac","559","586","302","5","fallScene","false","","","","","","",""
"","","","","","html-keyboard-response","87","401100","0.0-13.1-9.1-1.4","6651064be071e3482a85f01c","67619bf32066d179f8b4b1ec","6789494d9e46d96811b3b9c7","passed","","450","","","","","","","","","","","","","","f","yesOrNo_prac","","","","5","","","far gt","3000","","","","",""
"","","","","","html-keyboard-response","88","402684","0.0-13.1-9.1-0.5","6651064be071e3482a85f01c","67619bf32066d179f8b4b1ec","6789494d9e46d96811b3b9c7","passed","","","","","","","","","","","","","","","","","ballFalling_prac","416","365","249","2","fallScene","false","","","","","","",""
"","","","","","html-keyboard-response","89","403065","0.0-13.1-9.1-1.5","6651064be071e3482a85f01c","67619bf32066d179f8b4b1ec","6789494d9e46d96811b3b9c7","passed","","380","","","","","","","","","","","","","","j","yesOrNo_prac","","","","2","","","gt","3000","","","","",""
"","","","","","instructions","90","406462","0.0-14.0","6651064be071e3482a85f01c","67619bf32066d179f8b4b1ec","6789494d9e46d96811b3b9c7","passed","[{""page_index"":0,""viewing_time"":3396}]","3396","","","","","","","","","","","","","","","","","","","","","","","","","","","",""
"","","","","","html-keyboard-response","91","409425","0.0-15.0","6651064be071e3482a85f01c","67619bf32066d179f8b4b1ec","6789494d9e46d96811b3b9c7","passed","","2963","","","","","","","","","","","","","<p><span style=""font-size:40px;"">BLOCK 1</span></p><p><span style=""font-size:25px;"">You have <strong>3 second(s)</strong> to respond to the following trials.</span><br></p><p></p> <!-- Blank line -->
                <p id=""blinking-text"" style=""font-weight; animation: blink 2s infinite;"">Press Space to continue</p>
                <style>
                    @keyframes blink {
                        50% {
                            opacity: 0;
                        }
                    }
                </style></p>"," ","","","","","","","","","","","","","",""
"","","","","","html-keyboard-response","92","411009","0.0-16.0-0.0","6651064be071e3482a85f01c","67619bf32066d179f8b4b1ec","6789494d9e46d96811b3b9c7","passed","","","","","","","","","","","","","","","","","ballFalling","500","553.4711431702997","282.51","7","fallScene","false","","","","","1","",""
"","","","","","html-keyboard-response","93","412017","0.0-16.0-1.0","6651064be071e3482a85f01c","67619bf32066d179f8b4b1ec","6789494d9e46d96811b3b9c7","passed","","1006","","","","","","","","","","","","","","j","yesOrNo","","","","7","","","lp","3000","","","1","501","227.2843295913261"
"","","","","","html-keyboard-response","94","413678","0.0-16.0-0.1","6651064be071e3482a85f01c","67619bf32066d179f8b4b1ec","6789494d9e46d96811b3b9c7","passed","","","","","","","","","","","","","","","","","ballFalling","500","479.92114317029973","330.87","6","fallScene","false","","","","","2","",""
"","","","","","html-keyboard-response","95","414491","0.0-16.0-1.1","6651064be071e3482a85f01c","67619bf32066d179f8b4b1ec","6789494d9e46d96811b3b9c7","passed","","812","","","","","","","","","","","","","","j","yesOrNo","","","","6","","","lp","3000","","","2","499","189.92909825697632"
"","","","","","html-keyboard-response","96","416498","0.0-16.0-0.2","6651064be071e3482a85f01c","67619bf32066d179f8b4b1ec","6789494d9e46d96811b3b9c7","passed","","","","","","","","","","","","","","","","","ballFalling","500","510.8711431702997","369.03","8","fallScene","false","","","","","3","",""
"","","","","","html-keyboard-response","97","416942","0.0-16.0-1.2","6651064be071e3482a85f01c","67619bf32066d179f8b4b1ec","6789494d9e46d96811b3b9c7","passed","","443","","","","","","","","","","","","","","j","yesOrNo","","","","8","","","lp","3000","","","3","501","151"
"","","","","","html-keyboard-response","98","418600","0.0-16.0-0.3","6651064be071e3482a85f01c","67619bf32066d179f8b4b1ec","6789494d9e46d96811b3b9c7","passed","","","","","","","","","","","","","","","","","ballFalling","500","479.92114317029973","330.87","6","fallScene","false","","","","","4","",""
"","","","","","html-keyboard-response","99","419341","0.0-16.0-1.3","6651064be071e3482a85f01c","67619bf32066d179f8b4b1ec","6789494d9e46d96811b3b9c7","passed","","740","","","","","","","","","","","","","","j","yesOrNo","","","","6","","","mid","3000","","","4","499","300"
"","","","","","html-keyboard-response","100","421136","0.0-16.0-0.4","6651064be071e3482a85f01c","67619bf32066d179f8b4b1ec","6789494d9e46d96811b3b9c7","passed","","","","","","","","","","","","","","","","","ballFalling","322.3","308.07114317029976","253.89","2","fallScene","true","","","","","5","",""
"","","","","","html-keyboard-response","101","421581","0.0-16.0-1.4","6651064be071e3482a85f01c","67619bf32066d179f8b4b1ec","6789494d9e46d96811b3b9c7","passed","","444","","","","","","","","","","","","","","j","yesOrNo","","","","2","","","gt","3000","","","5","308.07114317029976","253.89"
"","","","","","html-keyboard-response","102","423138","0.0-16.0-0.5","6651064be071e3482a85f01c","67619bf32066d179f8b4b1ec","6789494d9e46d96811b3b9c7","passed","","","","","","","","","","","","","","","","","ballFalling","322.3","296.07114317029976","371.46","3","fallScene","true","","","","","6","",""
"","","","","","html-keyboard-response","103","423494","0.0-16.0-1.5","6651064be071e3482a85f01c","67619bf32066d179f8b4b1ec","6789494d9e46d96811b3b9c7","passed","","354","","","","","","","","","","","","","","j","yesOrNo","","","","3","","","mid","3000","","","6","321.3","300"
"","","","","","html-keyboard-response","104","425057","0.0-16.0-0.6","6651064be071e3482a85f01c","67619bf32066d179f8b4b1ec","6789494d9e46d96811b3b9c7","passed","","","","","","","","","","","","","","","","","ballFalling","322.3","356.42114317029973","357.87","4","fallScene","false","","","","","7","",""
"","","","","","html-keyboard-response","105","425617","0.0-16.0-1.6","6651064be071e3482a85f01c","67619bf32066d179f8b4b1ec","6789494d9e46d96811b3b9c7","passed","","559","","","","","","","","","","","","","","j","yesOrNo","","","","4","","","gt","3000","","","7","356.42114317029973","357.87"
"","","","","","html-keyboard-response","106","427176","0.0-16.0-0.7","6651064be071e3482a85f01c","67619bf32066d179f8b4b1ec","6789494d9e46d96811b3b9c7","passed","","","","","","","","","","","","","","","","","ballFalling","604.4000000000001","650.0211431702996","404.58000000000004","11","fallScene","false","","","","","8","",""
"","","","","","html-keyboard-response","107","427679","0.0-16.0-1.7","6651064be071e3482a85f01c","67619bf32066d179f8b4b1ec","6789494d9e46d96811b3b9c7","passed","","502","","","","","","","","","","","","","","f","yesOrNo","","","","11","","","gt","3000","","","8","650.0211431702996","404.58"
"","","","","","html-keyboard-response","108","429178","0.0-16.0-0.8","6651064be071e3482a85f01c","67619bf32066d179f8b4b1ec","6789494d9e46d96811b3b9c7","passed","","","","","","","","","","","","","","","","","ballFalling","604.4000000000001","667.6211431702998","201.78","9","fallScene","true","","","","","9","",""
"","","","","","html-keyboard-response","109","429820","0.0-16.0-1.8","6651064be071e3482a85f01c","67619bf32066d179f8b4b1ec","6789494d9e46d96811b3b9c7","passed","","640","","","","","","","","","","","","","","j","yesOrNo","","","","9","","","mid","3000","","","9","605.4000000000001","300"
"","","","","","html-keyboard-response","110","431380","0.0-16.0-0.9","6651064be071e3482a85f01c","67619bf32066d179f8b4b1ec","6789494d9e46d96811b3b9c7","passed","","","","","","","","","","","","","","","","","ballFalling","604.4000000000001","650.0211431702996","404.58000000000004","11","fallScene","false","","","","","10","",""
"","","","","","html-keyboard-response","111","431875","0.0-16.0-1.9","6651064be071e3482a85f01c","67619bf32066d179f8b4b1ec","6789494d9e46d96811b3b9c7","passed","","494","","","","","","","","","","","","","","j","yesOrNo","","","","11","","","lp","3000","","","10","605.4000000000001","372.6340973215488"
"","","","","","html-keyboard-response","112","433532","0.0-16.0-0.10","6651064be071e3482a85f01c","67619bf32066d179f8b4b1ec","6789494d9e46d96811b3b9c7","passed","","","","","","","","","","","","","","","","","ballFalling","500","479.92114317029973","330.87","6","fallScene","false","","","","","11","",""
"","","","","","html-keyboard-response","113","433989","0.0-16.0-1.10","6651064be071e3482a85f01c","67619bf32066d179f8b4b1ec","6789494d9e46d96811b3b9c7","passed","","456","","","","","","","","","","","","","","f","yesOrNo","","","","6","","","mid","3000","","","11","499","300"
"","","","","","html-keyboard-response","114","435551","0.0-16.0-0.11","6651064be071e3482a85f01c","67619bf32066d179f8b4b1ec","6789494d9e46d96811b3b9c7","passed","","","","","","","","","","","","","","","","","ballFalling","500","453.67114317029973","210.33","5","fallScene","true","","","","","12","",""
"","","","","","html-keyboard-response","115","436221","0.0-16.0-1.11","6651064be071e3482a85f01c","67619bf32066d179f8b4b1ec","6789494d9e46d96811b3b9c7","passed","","669","","","","","","","","","","","","","","j","yesOrNo","","","","5","","","mid","3000","","","12","499","300"
"","","","","","html-keyboard-response","116","437887","0.0-16.0-0.12","6651064be071e3482a85f01c","67619bf32066d179f8b4b1ec","6789494d9e46d96811b3b9c7","passed","","","","","","","","","","","","","","","","","ballFalling","500","479.92114317029973","330.87","6","fallScene","true","","","","","13","",""
"","","","","","html-keyboard-response","117","438411","0.0-16.0-1.12","6651064be071e3482a85f01c","67619bf32066d179f8b4b1ec","6789494d9e46d96811b3b9c7","passed","","523","","","","","","","","","","","","","","j","yesOrNo","","","","6","","","gt","3000","","","13","479.9211431702998","330.87"
"","","","","","html-keyboard-response","118","439972","0.0-16.0-0.13","6651064be071e3482a85f01c","67619bf32066d179f8b4b1ec","6789494d9e46d96811b3b9c7","passed","","","","","","","","","","","","","","","","","ballFalling","604.4000000000001","650.0211431702996","404.58000000000004","11","fallScene","false","","","","","14","",""
"","","","","","html-keyboard-response","119","440467","0.0-16.0-1.13","6651064be071e3482a85f01c","67619bf32066d179f8b4b1ec","6789494d9e46d96811b3b9c7","passed","","493","","","","","","","","","","","","","","f","yesOrNo","","","","11","","","mid","3000","","","14","605.4000000000001","300"
"","","","","","html-keyboard-response","120","442041","0.0-16.0-0.14","6651064be071e3482a85f01c","67619bf32066d179f8b4b1ec","6789494d9e46d96811b3b9c7","passed","","","","","","","","","","","","","","","","","ballFalling","500","553.4711431702997","282.51","7","fallScene","true","","","","","15","",""
"","","","","","html-keyboard-response","121","442722","0.0-16.0-1.14","6651064be071e3482a85f01c","67619bf32066d179f8b4b1ec","6789494d9e46d96811b3b9c7","passed","","680","","","","","","","","","","","","","","f","yesOrNo","","","","7","","","mid","3000","","","15","501","300"
"","","","","","html-keyboard-response","122","444276","0.0-16.0-0.15","6651064be071e3482a85f01c","67619bf32066d179f8b4b1ec","6789494d9e46d96811b3b9c7","passed","","","","","","","","","","","","","","","","","ballFalling","322.3","356.42114317029973","357.87","4","fallScene","true","","","","","16","",""
"","","","","","html-keyboard-response","123","444761","0.0-16.0-1.15","6651064be071e3482a85f01c","67619bf32066d179f8b4b1ec","6789494d9e46d96811b3b9c7","passed","","484","","","","","","","","","","","","","","f","yesOrNo","","","","4","","","mid","3000","","","16","390.27114317029975","300"
"","","","","","html-keyboard-response","124","446429","0.0-16.0-0.16","6651064be071e3482a85f01c","67619bf32066d179f8b4b1ec","6789494d9e46d96811b3b9c7","passed","","","","","","","","","","","","","","","","","ballFalling","500","479.92114317029973","330.87","6","fallScene","true","","","","","17","",""
"","","","","","html-keyboard-response","125","446849","0.0-16.0-1.16","6651064be071e3482a85f01c","67619bf32066d179f8b4b1ec","6789494d9e46d96811b3b9c7","passed","","420","","","","","","","","","","","","","","j","yesOrNo","","","","6","","","lp","3000","","","17","499","189.92909825697632"
"","","","","","html-keyboard-response","126","448414","0.0-16.0-0.17","6651064be071e3482a85f01c","67619bf32066d179f8b4b1ec","6789494d9e46d96811b3b9c7","passed","","","","","","","","","","","","","","","","","ballFalling","500","453.67114317029973","210.33","5","fallScene","true","","","","","18","",""
"","","","","","html-keyboard-response","127","449207","0.0-16.0-1.17","6651064be071e3482a85f01c","67619bf32066d179f8b4b1ec","6789494d9e46d96811b3b9c7","passed","","791","","","","","","","","","","","","","","j","yesOrNo","","","","5","","","lp","3000","","","18","499","151"
"","","","","","html-keyboard-response","128","450767","0.0-16.0-0.18","6651064be071e3482a85f01c","67619bf32066d179f8b4b1ec","6789494d9e46d96811b3b9c7","passed","","","","","","","","","","","","","","","","","ballFalling","322.3","356.42114317029973","357.87","4","fallScene","false","","","","","19","",""
"","","","","","html-keyboard-response","129","451506","0.0-16.0-1.18","6651064be071e3482a85f01c","67619bf32066d179f8b4b1ec","6789494d9e46d96811b3b9c7","passed","","738","","","","","","","","","","","","","","j","yesOrNo","","","","4","","","gt","3000","","","19","356.42114317029973","357.87"
"","","","","","html-keyboard-response","130","453519","0.0-16.0-0.19","6651064be071e3482a85f01c","67619bf32066d179f8b4b1ec","6789494d9e46d96811b3b9c7","passed","","","","","","","","","","","","","","","","","ballFalling","500","510.8711431702997","369.03","8","fallScene","false","","","","","20","",""
"","","","","","html-keyboard-response","131","454274","0.0-16.0-1.19","6651064be071e3482a85f01c","67619bf32066d179f8b4b1ec","6789494d9e46d96811b3b9c7","passed","","753","","","","","","","","","","","","","","j","yesOrNo","","","","8","","","mid","3000","","","20","501","300"
"","","","","","html-keyboard-response","132","455838","0.0-16.0-0.20","6651064be071e3482a85f01c","67619bf32066d179f8b4b1ec","6789494d9e46d96811b3b9c7","passed","","","","","","","","","","","","","","","","","ballFalling","500","453.67114317029973","210.33","5","fallScene","false","","","","","21","",""
"","","","","","html-keyboard-response","133","456306","0.0-16.0-1.20","6651064be071e3482a85f01c","67619bf32066d179f8b4b1ec","6789494d9e46d96811b3b9c7","passed","","467","","","","","","","","","","","","","","f","yesOrNo","","","","5","","","mid","3000","","","21","499","300"
"","","","","","html-keyboard-response","134","457890","0.0-16.0-0.21","6651064be071e3482a85f01c","67619bf32066d179f8b4b1ec","6789494d9e46d96811b3b9c7","passed","","","","","","","","","","","","","","","","","ballFalling","500","553.4711431702997","282.51","7","fallScene","true","","","","","22","",""
"","","","","","html-keyboard-response","135","458208","0.0-16.0-1.21","6651064be071e3482a85f01c","67619bf32066d179f8b4b1ec","6789494d9e46d96811b3b9c7","passed","","317","","","","","","","","","","","","","","j","yesOrNo","","","","7","","","gt","3000","","","22","553.4711431702997","282.51"
"","","","","","html-keyboard-response","136","459776","0.0-16.0-0.22","6651064be071e3482a85f01c","67619bf32066d179f8b4b1ec","6789494d9e46d96811b3b9c7","passed","","","","","","","","","","","","","","","","","ballFalling","322.3","356.42114317029973","357.87","4","fallScene","false","","","","","23","",""
"","","","","","html-keyboard-response","137","460323","0.0-16.0-1.22","6651064be071e3482a85f01c","67619bf32066d179f8b4b1ec","6789494d9e46d96811b3b9c7","passed","","546","","","","","","","","","","","","","","f","yesOrNo","","","","4","","","mid","3000","","","23","390.27114317029975","300"
"","","","","","html-keyboard-response","138","461878","0.0-16.0-0.23","6651064be071e3482a85f01c","67619bf32066d179f8b4b1ec","6789494d9e46d96811b3b9c7","passed","","","","","","","","","","","","","","","","","ballFalling","322.3","356.42114317029973","357.87","4","fallScene","true","","","","","24","",""
"","","","","","html-keyboard-response","139","462277","0.0-16.0-1.23","6651064be071e3482a85f01c","67619bf32066d179f8b4b1ec","6789494d9e46d96811b3b9c7","passed","","399","","","","","","","","","","","","","","j","yesOrNo","","","","4","","","lp","3000","","","24","323.3","297.4070551689986"
"","","","","","html-keyboard-response","140","464006","0.0-17.0","6651064be071e3482a85f01c","67619bf32066d179f8b4b1ec","6789494d9e46d96811b3b9c7","passed","","1728","","","","","","","","","","","","","<p><span style=""font-size:40px;"">BLOCK 2</span></p><p><span style=""font-size:25px;"">You have <strong>3 second(s)</strong> to respond to the following trials.</span><br></p><p></p> <!-- Blank line -->
                <p id=""blinking-text"" style=""font-weight; animation: blink 2s infinite;"">Press Space to continue</p>
                <style>
                    @keyframes blink {
                        50% {
                            opacity: 0;
                        }
                    }
                </style></p>"," ","","","","","","","","","","","","","",""
"","","","","","html-keyboard-response","141","465582","0.0-18.0-0.0","6651064be071e3482a85f01c","67619bf32066d179f8b4b1ec","6789494d9e46d96811b3b9c7","passed","","","","","","","","","","","","","","","","","ballFalling","500","553.4711431702997","282.51","7","fallScene","true","","","","","25","",""
"","","","","","html-keyboard-response","142","466002","0.0-18.0-1.0","6651064be071e3482a85f01c","67619bf32066d179f8b4b1ec","6789494d9e46d96811b3b9c7","passed","","418","","","","","","","","","","","","","","j","yesOrNo","","","","7","","","lp","3000","","","25","501","227.2843295913261"
"","","","","","html-keyboard-response","143","468017","0.0-18.0-0.1","6651064be071e3482a85f01c","67619bf32066d179f8b4b1ec","6789494d9e46d96811b3b9c7","passed","","","","","","","","","","","","","","","","","ballFalling","500","510.8711431702997","369.03","8","fallScene","false","","","","","26","",""
"","","","","","html-keyboard-response","144","468746","0.0-18.0-1.1","6651064be071e3482a85f01c","67619bf32066d179f8b4b1ec","6789494d9e46d96811b3b9c7","passed","","728","","","","","","","","","","","","","","f","yesOrNo","","","","8","","","gt","3000","","","26","510.8711431702997","369.03"
"","","","","","html-keyboard-response","145","470304","0.0-18.0-0.2","6651064be071e3482a85f01c","67619bf32066d179f8b4b1ec","6789494d9e46d96811b3b9c7","passed","","","","","","","","","","","","","","","","","ballFalling","322.3","379.3711431702997","245.25","1","fallScene","false","","","","","27","",""
"","","","","","html-keyboard-response","146","471071","0.0-18.0-1.2","6651064be071e3482a85f01c","67619bf32066d179f8b4b1ec","6789494d9e46d96811b3b9c7","passed","","767","","","","","","","","","","","","","","j","yesOrNo","","","","1","","","lp","3000","","","27","323.3","217.74551669457017"
"","","","","","html-keyboard-response","147","472639","0.0-18.0-0.3","6651064be071e3482a85f01c","67619bf32066d179f8b4b1ec","6789494d9e46d96811b3b9c7","passed","","","","","","","","","","","","","","","","","ballFalling","322.3","379.3711431702997","245.25","1","fallScene","true","","","","","28","",""
"","","","","","html-keyboard-response","148","473471","0.0-18.0-1.3","6651064be071e3482a85f01c","67619bf32066d179f8b4b1ec","6789494d9e46d96811b3b9c7","passed","","831","","","","","","","","","","","","","","j","yesOrNo","","","","1","","","mid","3000","","","28","390.27114317029975","300"
"","","","","","html-keyboard-response","149","475024","0.0-18.0-0.4","6651064be071e3482a85f01c","67619bf32066d179f8b4b1ec","6789494d9e46d96811b3b9c7","passed","","","","","","","","","","","","","","","","","ballFalling","500","453.67114317029973","210.33","5","fallScene","true","","","","","29","",""
"","","","","","html-keyboard-response","150","475487","0.0-18.0-1.4","6651064be071e3482a85f01c","67619bf32066d179f8b4b1ec","6789494d9e46d96811b3b9c7","passed","","461","","","","","","","","","","","","","","j","yesOrNo","","","","5","","","gt","3000","","","29","453.6711431702998","210.33"
"","","","","","html-keyboard-response","151","477494","0.0-18.0-0.5","6651064be071e3482a85f01c","67619bf32066d179f8b4b1ec","6789494d9e46d96811b3b9c7","passed","","","","","","","","","","","","","","","","","ballFalling","500","510.8711431702997","369.03","8","fallScene","false","","","","","30","",""
"","","","","","html-keyboard-response","152","478224","0.0-18.0-1.5","6651064be071e3482a85f01c","67619bf32066d179f8b4b1ec","6789494d9e46d96811b3b9c7","passed","","729","","","","","","","","","","","","","","f","yesOrNo","","","","8","","","gt","3000","","","30","510.8711431702997","369.03"
"","","","","","html-keyboard-response","153","480230","0.0-18.0-0.6","6651064be071e3482a85f01c","67619bf32066d179f8b4b1ec","6789494d9e46d96811b3b9c7","passed","","","","","","","","","","","","","","","","","ballFalling","604.4000000000001","596.8711431702998","394.5","10","fallScene","false","","","","","31","",""
"","","","","","html-keyboard-response","154","480792","0.0-18.0-1.6","6651064be071e3482a85f01c","67619bf32066d179f8b4b1ec","6789494d9e46d96811b3b9c7","passed","","560","","","","","","","","","","","","","","f","yesOrNo","","","","10","","","gt","3000","","","31","596.8711431702998","394.5"
"","","","","","html-keyboard-response","155","482349","0.0-18.0-0.7","6651064be071e3482a85f01c","67619bf32066d179f8b4b1ec","6789494d9e46d96811b3b9c7","passed","","","","","","","","","","","","","","","","","ballFalling","604.4000000000001","575.4211431702997","266.76","12","fallScene","false","","","","","32","",""
"","","","","","html-keyboard-response","156","482966","0.0-18.0-1.7","6651064be071e3482a85f01c","67619bf32066d179f8b4b1ec","6789494d9e46d96811b3b9c7","passed","","616","","","","","","","","","","","","","","f","yesOrNo","","","","12","","","lp","3000","","","32","603.4000000000001","151"
"","","","","","html-keyboard-response","157","484518","0.0-18.0-0.8","6651064be071e3482a85f01c","67619bf32066d179f8b4b1ec","6789494d9e46d96811b3b9c7","passed","","","","","","","","","","","","","","","","","ballFalling","322.3","379.3711431702997","245.25","1","fallScene","false","","","","","33","",""
"","","","","","html-keyboard-response","158","485217","0.0-18.0-1.8","6651064be071e3482a85f01c","67619bf32066d179f8b4b1ec","6789494d9e46d96811b3b9c7","passed","","698","","","","","","","","","","","","","","f","yesOrNo","","","","1","","","gt","3000","","","33","379.3711431702997","245.25"
"","","","","","html-keyboard-response","159","486770","0.0-18.0-0.9","6651064be071e3482a85f01c","67619bf32066d179f8b4b1ec","6789494d9e46d96811b3b9c7","passed","","","","","","","","","","","","","","","","","ballFalling","604.4000000000001","575.4211431702997","266.76","12","fallScene","true","","","","","34","",""
"","","","","","html-keyboard-response","160","487195","0.0-18.0-1.9","6651064be071e3482a85f01c","67619bf32066d179f8b4b1ec","6789494d9e46d96811b3b9c7","passed","","424","","","","","","","","","","","","","","j","yesOrNo","","","","12","","","lp","3000","","","34","603.4000000000001","151"
"","","","","","html-keyboard-response","161","488756","0.0-18.0-0.10","6651064be071e3482a85f01c","67619bf32066d179f8b4b1ec","6789494d9e46d96811b3b9c7","passed","","","","","","","","","","","","","","","","","ballFalling","500","453.67114317029973","210.33","5","fallScene","false","","","","","35","",""
"","","","","","html-keyboard-response","162","489393","0.0-18.0-1.10","6651064be071e3482a85f01c","67619bf32066d179f8b4b1ec","6789494d9e46d96811b3b9c7","passed","","637","","","","","","","","","","","","","","j","yesOrNo","","","","5","","","lp","3000","","","35","499","151"
"","","","","","html-keyboard-response","163","490891","0.0-18.0-0.11","6651064be071e3482a85f01c","67619bf32066d179f8b4b1ec","6789494d9e46d96811b3b9c7","passed","","","","","","","","","","","","","","","","","ballFalling","604.4000000000001","667.6211431702998","201.78","9","fallScene","false","","","","","36","",""
"","","","","","html-keyboard-response","164","491425","0.0-18.0-1.11","6651064be071e3482a85f01c","67619bf32066d179f8b4b1ec","6789494d9e46d96811b3b9c7","passed","","533","","","","","","","","","","","","","","j","yesOrNo","","","","9","","","gt","3000","","","36","667.6211431702998","201.78"
"","","","","","html-keyboard-response","165","492926","0.0-18.0-0.12","6651064be071e3482a85f01c","67619bf32066d179f8b4b1ec","6789494d9e46d96811b3b9c7","passed","","","","","","","","","","","","","","","","","ballFalling","604.4000000000001","667.6211431702998","201.78","9","fallScene","true","","","","","37","",""
"","","","","","html-keyboard-response","166","493329","0.0-18.0-1.12","6651064be071e3482a85f01c","67619bf32066d179f8b4b1ec","6789494d9e46d96811b3b9c7","passed","","401","","","","","","","","","","","","","","j","yesOrNo","","","","9","","","gt","3000","","","37","667.6211431702998","201.78"
"","","","","","html-keyboard-response","167","494829","0.0-18.0-0.13","6651064be071e3482a85f01c","67619bf32066d179f8b4b1ec","6789494d9e46d96811b3b9c7","passed","","","","","","","","","","","","","","","","","ballFalling","604.4000000000001","667.6211431702998","201.78","9","fallScene","false","","","","","38","",""
"","","","","","html-keyboard-response","168","495234","0.0-18.0-1.13","6651064be071e3482a85f01c","67619bf32066d179f8b4b1ec","6789494d9e46d96811b3b9c7","passed","","404","","","","","","","","","","","","","","j","yesOrNo","","","","9","","","lp","3000","","","38","605.4000000000001","151"
"","","","","","html-keyboard-response","169","496797","0.0-18.0-0.14","6651064be071e3482a85f01c","67619bf32066d179f8b4b1ec","6789494d9e46d96811b3b9c7","passed","","","","","","","","","","","","","","","","","ballFalling","604.4000000000001","575.4211431702997","266.76","12","fallScene","true","","","","","39","",""
"","","","","","html-keyboard-response","170","497232","0.0-18.0-1.14","6651064be071e3482a85f01c","67619bf32066d179f8b4b1ec","6789494d9e46d96811b3b9c7","passed","","434","","","","","","","","","","","","","","f","yesOrNo","","","","12","","","gt","3000","","","39","575.4211431702997","266.76"
"","","","","","html-keyboard-response","171","499250","0.0-18.0-0.15","6651064be071e3482a85f01c","67619bf32066d179f8b4b1ec","6789494d9e46d96811b3b9c7","passed","","","","","","","","","","","","","","","","","ballFalling","604.4000000000001","596.8711431702998","394.5","10","fallScene","false","","","","","40","",""
"","","","","","html-keyboard-response","172","499607","0.0-18.0-1.15","6651064be071e3482a85f01c","67619bf32066d179f8b4b1ec","6789494d9e46d96811b3b9c7","passed","","357","","","","","","","","","","","","","","j","yesOrNo","","","","10","","","lp","3000","","","40","603.4000000000001","215.50214355555383"
"","","","","","html-keyboard-response","173","501185","0.0-18.0-0.16","6651064be071e3482a85f01c","67619bf32066d179f8b4b1ec","6789494d9e46d96811b3b9c7","passed","","","","","","","","","","","","","","","","","ballFalling","500","553.4711431702997","282.51","7","fallScene","false","","","","","41","",""
"","","","","","html-keyboard-response","174","501537","0.0-18.0-1.16","6651064be071e3482a85f01c","67619bf32066d179f8b4b1ec","6789494d9e46d96811b3b9c7","passed","","351","","","","","","","","","","","","","","j","yesOrNo","","","","7","","","gt","3000","","","41","553.4711431702997","282.51"
"","","","","","html-keyboard-response","175","503103","0.0-18.0-0.17","6651064be071e3482a85f01c","67619bf32066d179f8b4b1ec","6789494d9e46d96811b3b9c7","passed","","","","","","","","","","","","","","","","","ballFalling","604.4000000000001","575.4211431702997","266.76","12","fallScene","true","","","","","42","",""
"","","","","","html-keyboard-response","176","503611","0.0-18.0-1.17","6651064be071e3482a85f01c","67619bf32066d179f8b4b1ec","6789494d9e46d96811b3b9c7","passed","","507","","","","","","","","","","","","","","j","yesOrNo","","","","12","","","mid","3000","","","42","536.4288568297004","300"
"","","","","","html-keyboard-response","177","505173","0.0-18.0-0.18","6651064be071e3482a85f01c","67619bf32066d179f8b4b1ec","6789494d9e46d96811b3b9c7","passed","","","","","","","","","","","","","","","","","ballFalling","322.3","379.3711431702997","245.25","1","fallScene","true","","","","","43","",""
"","","","","","html-keyboard-response","178","505549","0.0-18.0-1.18","6651064be071e3482a85f01c","67619bf32066d179f8b4b1ec","6789494d9e46d96811b3b9c7","passed","","375","","","","","","","","","","","","","","f","yesOrNo","","","","1","","","gt","3000","","","43","379.3711431702997","245.25"
"","","","","","html-keyboard-response","179","507041","0.0-18.0-0.19","6651064be071e3482a85f01c","67619bf32066d179f8b4b1ec","6789494d9e46d96811b3b9c7","passed","","","","","","","","","","","","","","","","","ballFalling","604.4000000000001","667.6211431702998","201.78","9","fallScene","false","","","","","44","",""
"","","","","","html-keyboard-response","180","507404","0.0-18.0-1.19","6651064be071e3482a85f01c","67619bf32066d179f8b4b1ec","6789494d9e46d96811b3b9c7","passed","","362","","","","","","","","","","","","","","f","yesOrNo","","","","9","","","mid","3000","","","44","605.4000000000001","300"
"","","","","","html-keyboard-response","181","509410","0.0-18.0-0.20","6651064be071e3482a85f01c","67619bf32066d179f8b4b1ec","6789494d9e46d96811b3b9c7","passed","","","","","","","","","","","","","","","","","ballFalling","604.4000000000001","596.8711431702998","394.5","10","fallScene","false","","","","","45","",""
"","","","","","html-keyboard-response","182","509820","0.0-18.0-1.20","6651064be071e3482a85f01c","67619bf32066d179f8b4b1ec","6789494d9e46d96811b3b9c7","passed","","409","","","","","","","","","","","","","","j","yesOrNo","","","","10","","","gt","3000","","","45","596.8711431702998","394.5"
"","","","","","html-keyboard-response","183","511612","0.0-18.0-0.21","6651064be071e3482a85f01c","67619bf32066d179f8b4b1ec","6789494d9e46d96811b3b9c7","passed","","","","","","","","","","","","","","","","","ballFalling","322.3","308.07114317029976","253.89","2","fallScene","false","","","","","46","",""
"","","","","","html-keyboard-response","184","511936","0.0-18.0-1.21","6651064be071e3482a85f01c","67619bf32066d179f8b4b1ec","6789494d9e46d96811b3b9c7","passed","","323","","","","","","","","","","","","","","j","yesOrNo","","","","2","","","mid","3000","","","46","321.3","300"
"","","","","","html-keyboard-response","185","513948","0.0-18.0-0.22","6651064be071e3482a85f01c","67619bf32066d179f8b4b1ec","6789494d9e46d96811b3b9c7","passed","","","","","","","","","","","","","","","","","ballFalling","604.4000000000001","596.8711431702998","394.5","10","fallScene","true","","","","","47","",""
"","","","","","html-keyboard-response","186","514241","0.0-18.0-1.22","6651064be071e3482a85f01c","67619bf32066d179f8b4b1ec","6789494d9e46d96811b3b9c7","passed","","292","","","","","","","","","","","","","","j","yesOrNo","","","","10","","","lp","3000","","","47","603.4000000000001","215.50214355555383"
"","","","","","html-keyboard-response","187","515816","0.0-18.0-0.23","6651064be071e3482a85f01c","67619bf32066d179f8b4b1ec","6789494d9e46d96811b3b9c7","passed","","","","","","","","","","","","","","","","","ballFalling","322.3","296.07114317029976","371.46","3","fallScene","false","","","","","48","",""
"","","","","","html-keyboard-response","188","516204","0.0-18.0-1.23","6651064be071e3482a85f01c","67619bf32066d179f8b4b1ec","6789494d9e46d96811b3b9c7","passed","","386","","","","","","","","","","","","","","f","yesOrNo","","","","3","","","lp","3000","","","48","321.3","287.3327096511259"
"","","","","","html-keyboard-response","189","517613","0.0-19.0","6651064be071e3482a85f01c","67619bf32066d179f8b4b1ec","6789494d9e46d96811b3b9c7","passed","","1409","","","","","","","","","","","","","<p><span style=""font-size:40px;"">BLOCK 3</span></p><p><span style=""font-size:25px;"">You have <strong>1 second(s)</strong> to respond to the following trials.</span><br></p><p></p> <!-- Blank line -->
                <p id=""blinking-text"" style=""font-weight; animation: blink 2s infinite;"">Press Space to continue</p>
                <style>
                    @keyframes blink {
                        50% {
                            opacity: 0;
                        }
                    }
                </style></p>"," ","","","","","","","","","","","","","",""
"","","","","","html-keyboard-response","190","519170","0.0-20.0-0.0","6651064be071e3482a85f01c","67619bf32066d179f8b4b1ec","6789494d9e46d96811b3b9c7","passed","","","","","","","","","","","","","","","","","ballFalling","604.4000000000001","650.0211431702996","404.58000000000004","11","fallScene","true","","","","","49","",""
"","","","","","html-keyboard-response","191","519457","0.0-20.0-1.0","6651064be071e3482a85f01c","67619bf32066d179f8b4b1ec","6789494d9e46d96811b3b9c7","passed","","286","","","","","","","","","","","","","","f","yesOrNo","","","","11","","","gt","1000","","","49","650.0211431702996","404.58"
"","","","","","html-keyboard-response","192","521022","0.0-20.0-0.1","6651064be071e3482a85f01c","67619bf32066d179f8b4b1ec","6789494d9e46d96811b3b9c7","passed","","","","","","","","","","","","","","","","","ballFalling","322.3","356.42114317029973","357.87","4","fallScene","false","","","","","50","",""
"","","","","","html-keyboard-response","193","521312","0.0-20.0-1.1","6651064be071e3482a85f01c","67619bf32066d179f8b4b1ec","6789494d9e46d96811b3b9c7","passed","","289","","","","","","","","","","","","","","j","yesOrNo","","","","4","","","mid","1000","","","50","390.27114317029975","300"
"","","","","","html-keyboard-response","194","522891","0.0-20.0-0.2","6651064be071e3482a85f01c","67619bf32066d179f8b4b1ec","6789494d9e46d96811b3b9c7","passed","","","","","","","","","","","","","","","","","ballFalling","500","553.4711431702997","282.51","7","fallScene","false","","","","","51","",""
"","","","","","html-keyboard-response","195","523249","0.0-20.0-1.2","6651064be071e3482a85f01c","67619bf32066d179f8b4b1ec","6789494d9e46d96811b3b9c7","passed","","357","","","","","","","","","","","","","","f","yesOrNo","","","","7","","","lp","1000","","","51","501","227.2843295913261"
"","","","","","html-keyboard-response","196","525043","0.0-20.0-0.3","6651064be071e3482a85f01c","67619bf32066d179f8b4b1ec","6789494d9e46d96811b3b9c7","passed","","","","","","","","","","","","","","","","","ballFalling","322.3","308.07114317029976","253.89","2","fallScene","true","","","","","52","",""
"","","","","","html-keyboard-response","197","525330","0.0-20.0-1.3","6651064be071e3482a85f01c","67619bf32066d179f8b4b1ec","6789494d9e46d96811b3b9c7","passed","","286","","","","","","","","","","","","","","j","yesOrNo","","","","2","","","gt","1000","","","52","308.07114317029976","253.89"
"","","","","","html-keyboard-response","198","526828","0.0-20.0-0.4","6651064be071e3482a85f01c","67619bf32066d179f8b4b1ec","6789494d9e46d96811b3b9c7","passed","","","","","","","","","","","","","","","","","ballFalling","604.4000000000001","667.6211431702998","201.78","9","fallScene","false","","","","","53","",""
"","","","","","html-keyboard-response","199","527109","0.0-20.0-1.4","6651064be071e3482a85f01c","67619bf32066d179f8b4b1ec","6789494d9e46d96811b3b9c7","passed","","280","","","","","","","","","","","","","","j","yesOrNo","","","","9","","","gt","1000","","","53","667.6211431702998","201.78"
"","","","","","html-keyboard-response","200","528663","0.0-20.0-0.5","6651064be071e3482a85f01c","67619bf32066d179f8b4b1ec","6789494d9e46d96811b3b9c7","passed","","","","","","","","","","","","","","","","","ballFalling","322.3","379.3711431702997","245.25","1","fallScene","false","","","","","54","",""
"","","","","","html-keyboard-response","201","528930","0.0-20.0-1.5","6651064be071e3482a85f01c","67619bf32066d179f8b4b1ec","6789494d9e46d96811b3b9c7","passed","","266","","","","","","","","","","","","","","j","yesOrNo","","","","1","","","gt","1000","","","54","379.3711431702997","245.25"
"","","","","","html-keyboard-response","202","530482","0.0-20.0-0.6","6651064be071e3482a85f01c","67619bf32066d179f8b4b1ec","6789494d9e46d96811b3b9c7","passed","","","","","","","","","","","","","","","","","ballFalling","604.4000000000001","575.4211431702997","266.76","12","fallScene","false","","","","","55","",""
"","","","","","html-keyboard-response","203","530783","0.0-20.0-1.6","6651064be071e3482a85f01c","67619bf32066d179f8b4b1ec","6789494d9e46d96811b3b9c7","passed","","300","","","","","","","","","","","","","","f","yesOrNo","","","","12","","","lp","1000","","","55","603.4000000000001","151"
"","","","","","html-keyboard-response","204","532801","0.0-20.0-0.7","6651064be071e3482a85f01c","67619bf32066d179f8b4b1ec","6789494d9e46d96811b3b9c7","passed","","","","","","","","","","","","","","","","","ballFalling","604.4000000000001","596.8711431702998","394.5","10","fallScene","true","","","","","56","",""
"","","","","","html-keyboard-response","205","533140","0.0-20.0-1.7","6651064be071e3482a85f01c","67619bf32066d179f8b4b1ec","6789494d9e46d96811b3b9c7","passed","","338","","","","","","","","","","","","","","j","yesOrNo","","","","10","","","lp","1000","","","56","603.4000000000001","215.50214355555383"
"","","","","","html-keyboard-response","206","534703","0.0-20.0-0.8","6651064be071e3482a85f01c","67619bf32066d179f8b4b1ec","6789494d9e46d96811b3b9c7","passed","","","","","","","","","","","","","","","","","ballFalling","322.3","356.42114317029973","357.87","4","fallScene","false","","","","","57","",""
"","","","","","html-keyboard-response","207","535104","0.0-20.0-1.8","6651064be071e3482a85f01c","67619bf32066d179f8b4b1ec","6789494d9e46d96811b3b9c7","passed","","400","","","","","","","","","","","","","","j","yesOrNo","","","","4","","","gt","1000","","","57","356.42114317029973","357.87"
"","","","","","html-keyboard-response","208","536605","0.0-20.0-0.9","6651064be071e3482a85f01c","67619bf32066d179f8b4b1ec","6789494d9e46d96811b3b9c7","passed","","","","","","","","","","","","","","","","","ballFalling","604.4000000000001","667.6211431702998","201.78","9","fallScene","false","","","","","58","",""
"","","","","","html-keyboard-response","209","536965","0.0-20.0-1.9","6651064be071e3482a85f01c","67619bf32066d179f8b4b1ec","6789494d9e46d96811b3b9c7","passed","","360","","","","","","","","","","","","","","j","yesOrNo","","","","9","","","gt","1000","","","58","667.6211431702998","201.78"
"","","","","","html-keyboard-response","210","538523","0.0-20.0-0.10","6651064be071e3482a85f01c","67619bf32066d179f8b4b1ec","6789494d9e46d96811b3b9c7","passed","","","","","","","","","","","","","","","","","ballFalling","604.4000000000001","575.4211431702997","266.76","12","fallScene","true","","","","","59","",""
"","","","","","html-keyboard-response","211","538927","0.0-20.0-1.10","6651064be071e3482a85f01c","67619bf32066d179f8b4b1ec","6789494d9e46d96811b3b9c7","passed","","403","","","","","","","","","","","","","","j","yesOrNo","","","","12","","","mid","1000","","","59","536.4288568297004","300"
"","","","","","html-keyboard-response","212","540425","0.0-20.0-0.11","6651064be071e3482a85f01c","67619bf32066d179f8b4b1ec","6789494d9e46d96811b3b9c7","passed","","","","","","","","","","","","","","","","","ballFalling","604.4000000000001","667.6211431702998","201.78","9","fallScene","false","","","","","60","",""
"","","","","","html-keyboard-response","213","540807","0.0-20.0-1.11","6651064be071e3482a85f01c","67619bf32066d179f8b4b1ec","6789494d9e46d96811b3b9c7","passed","","381","","","","","","","","","","","","","","f","yesOrNo","","","","9","","","lp","1000","","","60","605.4000000000001","151"
"","","","","","html-keyboard-response","214","542361","0.0-20.0-0.12","6651064be071e3482a85f01c","67619bf32066d179f8b4b1ec","6789494d9e46d96811b3b9c7","passed","","","","","","","","","","","","","","","","","ballFalling","322.3","379.3711431702997","245.25","1","fallScene","false","","","","","61","",""
"","","","","","html-keyboard-response","215","542762","0.0-20.0-1.12","6651064be071e3482a85f01c","67619bf32066d179f8b4b1ec","6789494d9e46d96811b3b9c7","passed","","401","","","","","","","","","","","","","","j","yesOrNo","","","","1","","","mid","1000","","","61","390.27114317029975","300"
"","","","","","html-keyboard-response","216","544780","0.0-20.0-0.13","6651064be071e3482a85f01c","67619bf32066d179f8b4b1ec","6789494d9e46d96811b3b9c7","passed","","","","","","","","","","","","","","","","","ballFalling","604.4000000000001","596.8711431702998","394.5","10","fallScene","true","","","","","62","",""
"","","","","","html-keyboard-response","217","545109","0.0-20.0-1.13","6651064be071e3482a85f01c","67619bf32066d179f8b4b1ec","6789494d9e46d96811b3b9c7","passed","","328","","","","","","","","","","","","","","f","yesOrNo","","","","10","","","lp","1000","","","62","603.4000000000001","215.50214355555383"
"","","","","","html-keyboard-response","218","546665","0.0-20.0-0.14","6651064be071e3482a85f01c","67619bf32066d179f8b4b1ec","6789494d9e46d96811b3b9c7","passed","","","","","","","","","","","","","","","","","ballFalling","322.3","296.07114317029976","371.46","3","fallScene","true","","","","","63","",""
"","","","","","html-keyboard-response","219","546979","0.0-20.0-1.14","6651064be071e3482a85f01c","67619bf32066d179f8b4b1ec","6789494d9e46d96811b3b9c7","passed","","313","","","","","","","","","","","","","","f","yesOrNo","","","","3","","","gt","1000","","","63","296.07114317029976","371.46"
"","","","","","html-keyboard-response","220","548533","0.0-20.0-0.15","6651064be071e3482a85f01c","67619bf32066d179f8b4b1ec","6789494d9e46d96811b3b9c7","passed","","","","","","","","","","","","","","","","","ballFalling","500","453.67114317029973","210.33","5","fallScene","false","","","","","64","",""
"","","","","","html-keyboard-response","221","548816","0.0-20.0-1.15","6651064be071e3482a85f01c","67619bf32066d179f8b4b1ec","6789494d9e46d96811b3b9c7","passed","","282","","","","","","","","","","","","","","f","yesOrNo","","","","5","","","lp","1000","","","64","499","151"
"","","","","","html-keyboard-response","222","550369","0.0-20.0-0.16","6651064be071e3482a85f01c","67619bf32066d179f8b4b1ec","6789494d9e46d96811b3b9c7","passed","","","","","","","","","","","","","","","","","ballFalling","322.3","296.07114317029976","371.46","3","fallScene","false","","","","","65","",""
"","","","","","html-keyboard-response","223","550687","0.0-20.0-1.16","6651064be071e3482a85f01c","67619bf32066d179f8b4b1ec","6789494d9e46d96811b3b9c7","passed","","317","","","","","","","","","","","","","","f","yesOrNo","","","","3","","","lp","1000","","","65","321.3","287.3327096511259"
"","","","","","html-keyboard-response","224","552254","0.0-20.0-0.17","6651064be071e3482a85f01c","67619bf32066d179f8b4b1ec","6789494d9e46d96811b3b9c7","passed","","","","","","","","","","","","","","","","","ballFalling","604.4000000000001","575.4211431702997","266.76","12","fallScene","false","","","","","66","",""
"","","","","","html-keyboard-response","225","552558","0.0-20.0-1.17","6651064be071e3482a85f01c","67619bf32066d179f8b4b1ec","6789494d9e46d96811b3b9c7","passed","","302","","","","","","","","","","","","","","j","yesOrNo","","","","12","","","lp","1000","","","66","603.4000000000001","151"
"","","","","","html-keyboard-response","226","554573","0.0-20.0-0.18","6651064be071e3482a85f01c","67619bf32066d179f8b4b1ec","6789494d9e46d96811b3b9c7","passed","","","","","","","","","","","","","","","","","ballFalling","500","510.8711431702997","369.03","8","fallScene","false","","","","","67","",""
"","","","","","html-keyboard-response","227","554914","0.0-20.0-1.18","6651064be071e3482a85f01c","67619bf32066d179f8b4b1ec","6789494d9e46d96811b3b9c7","passed","","340","","","","","","","","","","","","","","j","yesOrNo","","","","8","","","gt","1000","","","67","510.8711431702997","369.03"
"","","","","","html-keyboard-response","228","556709","0.0-20.0-0.19","6651064be071e3482a85f01c","67619bf32066d179f8b4b1ec","6789494d9e46d96811b3b9c7","passed","","","","","","","","","","","","","","","","","ballFalling","322.3","308.07114317029976","253.89","2","fallScene","false","","","","","68","",""
"","","","","","html-keyboard-response","229","557020","0.0-20.0-1.19","6651064be071e3482a85f01c","67619bf32066d179f8b4b1ec","6789494d9e46d96811b3b9c7","passed","","310","","","","","","","","","","","","","","j","yesOrNo","","","","2","","","lp","1000","","","68","321.3","151"
"","","","","","html-keyboard-response","230","558511","0.0-20.0-0.20","6651064be071e3482a85f01c","67619bf32066d179f8b4b1ec","6789494d9e46d96811b3b9c7","passed","","","","","","","","","","","","","","","","","ballFalling","604.4000000000001","667.6211431702998","201.78","9","fallScene","true","","","","","69","",""
"","","","","","html-keyboard-response","231","558875","0.0-20.0-1.20","6651064be071e3482a85f01c","67619bf32066d179f8b4b1ec","6789494d9e46d96811b3b9c7","passed","","364","","","","","","","","","","","","","","j","yesOrNo","","","","9","","","lp","1000","","","69","605.4000000000001","151"
"","","","","","html-keyboard-response","232","560530","0.0-20.0-0.21","6651064be071e3482a85f01c","67619bf32066d179f8b4b1ec","6789494d9e46d96811b3b9c7","passed","","","","","","","","","","","","","","","","","ballFalling","500","479.92114317029973","330.87","6","fallScene","false","","","","","70","",""
"","","","","","html-keyboard-response","233","560797","0.0-20.0-1.21","6651064be071e3482a85f01c","67619bf32066d179f8b4b1ec","6789494d9e46d96811b3b9c7","passed","","267","","","","","","","","","","","","","","f","yesOrNo","","","","6","","","lp","1000","","","70","499","189.92909825697632"
"","","","","","html-keyboard-response","234","562364","0.0-20.0-0.22","6651064be071e3482a85f01c","67619bf32066d179f8b4b1ec","6789494d9e46d96811b3b9c7","passed","","","","","","","","","","","","","","","","","ballFalling","322.3","356.42114317029973","357.87","4","fallScene","true","","","","","71","",""
"","","","","","html-keyboard-response","235","562376","0.0-20.0-1.22","6651064be071e3482a85f01c","67619bf32066d179f8b4b1ec","6789494d9e46d96811b3b9c7","passed","","10","","","","","","","","","","","","","","j","yesOrNo","","","","4","","","lp","1000","","","71","323.3","297.4070551689986"
"","","","","","html-keyboard-response","236","563933","0.0-20.0-0.23","6651064be071e3482a85f01c","67619bf32066d179f8b4b1ec","6789494d9e46d96811b3b9c7","passed","","","","","","","","","","","","","","","","","ballFalling","322.3","296.07114317029976","371.46","3","fallScene","false","","","","","72","",""
"","","","","","html-keyboard-response","237","564230","0.0-20.0-1.23","6651064be071e3482a85f01c","67619bf32066d179f8b4b1ec","6789494d9e46d96811b3b9c7","passed","","296","","","","","","","","","","","","","","f","yesOrNo","","","","3","","","lp","1000","","","72","321.3","287.3327096511259"
"","","","","","html-keyboard-response","238","566152","0.0-21.0","6651064be071e3482a85f01c","67619bf32066d179f8b4b1ec","6789494d9e46d96811b3b9c7","passed","","1921","","","","","","","","","","","","","<p><span style=""font-size:40px;"">BLOCK 4</span></p><p><span style=""font-size:25px;"">You have <strong>1 second(s)</strong> to respond to the following trials.</span><br></p><p></p> <!-- Blank line -->
                <p id=""blinking-text"" style=""font-weight; animation: blink 2s infinite;"">Press Space to continue</p>
                <style>
                    @keyframes blink {
                        50% {
                            opacity: 0;
                        }
                    }
                </style></p>"," ","","","","","","","","","","","","","",""
"","","","","","html-keyboard-response","239","567820","0.0-22.0-0.0","6651064be071e3482a85f01c","67619bf32066d179f8b4b1ec","6789494d9e46d96811b3b9c7","passed","","","","","","","","","","","","","","","","","ballFalling","500","479.92114317029973","330.87","6","fallScene","true","","","","","73","",""
"","","","","","html-keyboard-response","240","568123","0.0-22.0-1.0","6651064be071e3482a85f01c","67619bf32066d179f8b4b1ec","6789494d9e46d96811b3b9c7","passed","","303","","","","","","","","","","","","","","j","yesOrNo","","","","6","","","mid","1000","","","73","499","300"
"","","","","","html-keyboard-response","241","569789","0.0-22.0-0.1","6651064be071e3482a85f01c","67619bf32066d179f8b4b1ec","6789494d9e46d96811b3b9c7","passed","","","","","","","","","","","","","","","","","ballFalling","500","479.92114317029973","330.87","6","fallScene","false","","","","","74","",""
"","","","","","html-keyboard-response","242","570130","0.0-22.0-1.1","6651064be071e3482a85f01c","67619bf32066d179f8b4b1ec","6789494d9e46d96811b3b9c7","passed","","340","","","","","","","","","","","","","","j","yesOrNo","","","","6","","","gt","1000","","","74","479.9211431702998","330.87"
"","","","","","html-keyboard-response","243","571691","0.0-22.0-0.2","6651064be071e3482a85f01c","67619bf32066d179f8b4b1ec","6789494d9e46d96811b3b9c7","passed","","","","","","","","","","","","","","","","","ballFalling","322.3","379.3711431702997","245.25","1","fallScene","false","","","","","75","",""
"","","","","","html-keyboard-response","244","572136","0.0-22.0-1.2","6651064be071e3482a85f01c","67619bf32066d179f8b4b1ec","6789494d9e46d96811b3b9c7","passed","","444","","","","","","","","","","","","","","f","yesOrNo","","","","1","","","lp","1000","","","75","323.3","217.74551669457017"
"","","","","","html-keyboard-response","245","574143","0.0-22.0-0.3","6651064be071e3482a85f01c","67619bf32066d179f8b4b1ec","6789494d9e46d96811b3b9c7","passed","","","","","","","","","","","","","","","","","ballFalling","604.4000000000001","596.8711431702998","394.5","10","fallScene","false","","","","","76","",""
"","","","","","html-keyboard-response","246","574461","0.0-22.0-1.3","6651064be071e3482a85f01c","67619bf32066d179f8b4b1ec","6789494d9e46d96811b3b9c7","passed","","317","","","","","","","","","","","","","","j","yesOrNo","","","","10","","","gt","1000","","","76","596.8711431702998","394.5"
"","","","","","html-keyboard-response","247","576028","0.0-22.0-0.4","6651064be071e3482a85f01c","67619bf32066d179f8b4b1ec","6789494d9e46d96811b3b9c7","passed","","","","","","","","","","","","","","","","","ballFalling","322.3","356.42114317029973","357.87","4","fallScene","true","","","","","77","",""
"","","","","","html-keyboard-response","248","576357","0.0-22.0-1.4","6651064be071e3482a85f01c","67619bf32066d179f8b4b1ec","6789494d9e46d96811b3b9c7","passed","","327","","","","","","","","","","","","","","j","yesOrNo","","","","4","","","mid","1000","","","77","390.27114317029975","300"
"","","","","","html-keyboard-response","249","578147","0.0-22.0-0.5","6651064be071e3482a85f01c","67619bf32066d179f8b4b1ec","6789494d9e46d96811b3b9c7","passed","","","","","","","","","","","","","","","","","ballFalling","322.3","308.07114317029976","253.89","2","fallScene","false","","","","","78","",""
"","","","","","html-keyboard-response","250","578481","0.0-22.0-1.5","6651064be071e3482a85f01c","67619bf32066d179f8b4b1ec","6789494d9e46d96811b3b9c7","passed","","333","","","","","","","","","","","","","","f","yesOrNo","","","","2","","","gt","1000","","","78","308.07114317029976","253.89"
"","","","","","html-keyboard-response","251","579966","0.0-22.0-0.6","6651064be071e3482a85f01c","67619bf32066d179f8b4b1ec","6789494d9e46d96811b3b9c7","passed","","","","","","","","","","","","","","","","","ballFalling","604.4000000000001","667.6211431702998","201.78","9","fallScene","true","","","","","79","",""
"","","","","","html-keyboard-response","252","580418","0.0-22.0-1.6","6651064be071e3482a85f01c","67619bf32066d179f8b4b1ec","6789494d9e46d96811b3b9c7","passed","","451","","","","","","","","","","","","","","f","yesOrNo","","","","9","","","mid","1000","","","79","605.4000000000001","300"
"","","","","","html-keyboard-response","253","581985","0.0-22.0-0.7","6651064be071e3482a85f01c","67619bf32066d179f8b4b1ec","6789494d9e46d96811b3b9c7","passed","","","","","","","","","","","","","","","","","ballFalling","604.4000000000001","650.0211431702996","404.58000000000004","11","fallScene","true","","","","","80","",""
"","","","","","html-keyboard-response","254","582390","0.0-22.0-1.7","6651064be071e3482a85f01c","67619bf32066d179f8b4b1ec","6789494d9e46d96811b3b9c7","passed","","404","","","","","","","","","","","","","","j","yesOrNo","","","","11","","","gt","1000","","","80","650.0211431702996","404.58"
"","","","","","html-keyboard-response","255","583953","0.0-22.0-0.8","6651064be071e3482a85f01c","67619bf32066d179f8b4b1ec","6789494d9e46d96811b3b9c7","passed","","","","","","","","","","","","","","","","","ballFalling","322.3","296.07114317029976","371.46","3","fallScene","true","","","","","81","",""
"","","","","","html-keyboard-response","256","584372","0.0-22.0-1.8","6651064be071e3482a85f01c","67619bf32066d179f8b4b1ec","6789494d9e46d96811b3b9c7","passed","","418","","","","","","","","","","","","","","j","yesOrNo","","","","3","","","mid","1000","","","81","321.3","300"
"","","","","","html-keyboard-response","257","585939","0.0-22.0-0.9","6651064be071e3482a85f01c","67619bf32066d179f8b4b1ec","6789494d9e46d96811b3b9c7","passed","","","","","","","","","","","","","","","","","ballFalling","322.3","379.3711431702997","245.25","1","fallScene","false","","","","","82","",""
"","","","","","html-keyboard-response","258","586502","0.0-22.0-1.9","6651064be071e3482a85f01c","67619bf32066d179f8b4b1ec","6789494d9e46d96811b3b9c7","passed","","562","","","","","","","","","","","","","","j","yesOrNo","","","","1","","","lp","1000","","","82","323.3","217.74551669457017"
"","","","","","html-keyboard-response","259","588074","0.0-22.0-0.10","6651064be071e3482a85f01c","67619bf32066d179f8b4b1ec","6789494d9e46d96811b3b9c7","passed","","","","","","","","","","","","","","","","","ballFalling","500","553.4711431702997","282.51","7","fallScene","true","","","","","83","",""
"","","","","","html-keyboard-response","260","588440","0.0-22.0-1.10","6651064be071e3482a85f01c","67619bf32066d179f8b4b1ec","6789494d9e46d96811b3b9c7","passed","","365","","","","","","","","","","","","","","f","yesOrNo","","","","7","","","mid","1000","","","83","501","300"
"","","","","","html-keyboard-response","261","590444","0.0-22.0-0.11","6651064be071e3482a85f01c","67619bf32066d179f8b4b1ec","6789494d9e46d96811b3b9c7","passed","","","","","","","","","","","","","","","","","ballFalling","500","510.8711431702997","369.03","8","fallScene","true","","","","","84","",""
"","","","","","html-keyboard-response","262","590815","0.0-22.0-1.11","6651064be071e3482a85f01c","67619bf32066d179f8b4b1ec","6789494d9e46d96811b3b9c7","passed","","370","","","","","","","","","","","","","","f","yesOrNo","","","","8","","","lp","1000","","","84","501","151"
"","","","","","html-keyboard-response","263","592396","0.0-22.0-0.12","6651064be071e3482a85f01c","67619bf32066d179f8b4b1ec","6789494d9e46d96811b3b9c7","passed","","","","","","","","","","","","","","","","","ballFalling","500","553.4711431702997","282.51","7","fallScene","true","","","","","85","",""
"","","","","","html-keyboard-response","264","593298","0.0-22.0-1.12","6651064be071e3482a85f01c","67619bf32066d179f8b4b1ec","6789494d9e46d96811b3b9c7","passed","","902","","","","","","","","","","","","","","f","yesOrNo","","","","7","","","gt","1000","","","85","553.4711431702997","282.51"
"","","","","","html-keyboard-response","265","594881","0.0-22.0-0.13","6651064be071e3482a85f01c","67619bf32066d179f8b4b1ec","6789494d9e46d96811b3b9c7","passed","","","","","","","","","","","","","","","","","ballFalling","500","553.4711431702997","282.51","7","fallScene","false","","","","","86","",""
"","","","","","html-keyboard-response","266","595179","0.0-22.0-1.13","6651064be071e3482a85f01c","67619bf32066d179f8b4b1ec","6789494d9e46d96811b3b9c7","passed","","297","","","","","","","","","","","","","","j","yesOrNo","","","","7","","","mid","1000","","","86","501","300"
"","","","","","html-keyboard-response","267","597183","0.0-22.0-0.14","6651064be071e3482a85f01c","67619bf32066d179f8b4b1ec","6789494d9e46d96811b3b9c7","passed","","","","","","","","","","","","","","","","","ballFalling","604.4000000000001","596.8711431702998","394.5","10","fallScene","true","","","","","87","",""
"","","","","","html-keyboard-response","268","597452","0.0-22.0-1.14","6651064be071e3482a85f01c","67619bf32066d179f8b4b1ec","6789494d9e46d96811b3b9c7","passed","","267","","","","","","","","","","","","","","j","yesOrNo","","","","10","","","mid","1000","","","87","536.4288568297004","300"
"","","","","","html-keyboard-response","269","599469","0.0-22.0-0.15","6651064be071e3482a85f01c","67619bf32066d179f8b4b1ec","6789494d9e46d96811b3b9c7","passed","","","","","","","","","","","","","","","","","ballFalling","500","510.8711431702997","369.03","8","fallScene","true","","","","","88","",""
"","","","","","html-keyboard-response","270","599811","0.0-22.0-1.15","6651064be071e3482a85f01c","67619bf32066d179f8b4b1ec","6789494d9e46d96811b3b9c7","passed","","340","","","","","","","","","","","","","","j","yesOrNo","","","","8","","","mid","1000","","","88","501","300"
"","","","","","html-keyboard-response","271","601471","0.0-22.0-0.16","6651064be071e3482a85f01c","67619bf32066d179f8b4b1ec","6789494d9e46d96811b3b9c7","passed","","","","","","","","","","","","","","","","","ballFalling","500","479.92114317029973","330.87","6","fallScene","false","","","","","89","",""
"","","","","","html-keyboard-response","272","601815","0.0-22.0-1.16","6651064be071e3482a85f01c","67619bf32066d179f8b4b1ec","6789494d9e46d96811b3b9c7","passed","","343","","","","","","","","","","","","","","j","yesOrNo","","","","6","","","lp","1000","","","89","499","189.92909825697632"
"","","","","","html-keyboard-response","273","603374","0.0-22.0-0.17","6651064be071e3482a85f01c","67619bf32066d179f8b4b1ec","6789494d9e46d96811b3b9c7","passed","","","","","","","","","","","","","","","","","ballFalling","322.3","379.3711431702997","245.25","1","fallScene","true","","","","","90","",""
"","","","","","html-keyboard-response","274","603813","0.0-22.0-1.17","6651064be071e3482a85f01c","67619bf32066d179f8b4b1ec","6789494d9e46d96811b3b9c7","passed","","439","","","","","","","","","","","","","","j","yesOrNo","","","","1","","","gt","1000","","","90","379.3711431702997","245.25"
"","","","","","html-keyboard-response","275","605376","0.0-22.0-0.18","6651064be071e3482a85f01c","67619bf32066d179f8b4b1ec","6789494d9e46d96811b3b9c7","passed","","","","","","","","","","","","","","","","","ballFalling","604.4000000000001","650.0211431702996","404.58000000000004","11","fallScene","true","","","","","91","",""
"","","","","","html-keyboard-response","276","605786","0.0-22.0-1.18","6651064be071e3482a85f01c","67619bf32066d179f8b4b1ec","6789494d9e46d96811b3b9c7","passed","","409","","","","","","","","","","","","","","j","yesOrNo","","","","11","","","mid","1000","","","91","605.4000000000001","300"
"","","","","","html-keyboard-response","277","607361","0.0-22.0-0.19","6651064be071e3482a85f01c","67619bf32066d179f8b4b1ec","6789494d9e46d96811b3b9c7","passed","","","","","","","","","","","","","","","","","ballFalling","500","553.4711431702997","282.51","7","fallScene","true","","","","","92","",""
"","","","","","html-keyboard-response","278","607867","0.0-22.0-1.19","6651064be071e3482a85f01c","67619bf32066d179f8b4b1ec","6789494d9e46d96811b3b9c7","passed","","505","","","","","","","","","","","","","","j","yesOrNo","","","","7","","","gt","1000","","","92","553.4711431702997","282.51"
"","","","","","html-keyboard-response","279","609529","0.0-22.0-0.20","6651064be071e3482a85f01c","67619bf32066d179f8b4b1ec","6789494d9e46d96811b3b9c7","passed","","","","","","","","","","","","","","","","","ballFalling","500","479.92114317029973","330.87","6","fallScene","false","","","","","93","",""
"","","","","","html-keyboard-response","280","609890","0.0-22.0-1.20","6651064be071e3482a85f01c","67619bf32066d179f8b4b1ec","6789494d9e46d96811b3b9c7","passed","","360","","","","","","","","","","","","","","j","yesOrNo","","","","6","","","mid","1000","","","93","499","300"
"","","","","","html-keyboard-response","281","611448","0.0-22.0-0.21","6651064be071e3482a85f01c","67619bf32066d179f8b4b1ec","6789494d9e46d96811b3b9c7","passed","","","","","","","","","","","","","","","","","ballFalling","322.3","356.42114317029973","357.87","4","fallScene","true","","","","","94","",""
"","","","","","html-keyboard-response","282","611846","0.0-22.0-1.21","6651064be071e3482a85f01c","67619bf32066d179f8b4b1ec","6789494d9e46d96811b3b9c7","passed","","397","","","","","","","","","","","","","","j","yesOrNo","","","","4","","","lp","1000","","","94","323.3","297.4070551689986"
"","","","","","html-keyboard-response","283","613400","0.0-22.0-0.22","6651064be071e3482a85f01c","67619bf32066d179f8b4b1ec","6789494d9e46d96811b3b9c7","passed","","","","","","","","","","","","","","","","","ballFalling","500","453.67114317029973","210.33","5","fallScene","false","","","","","95","",""
"","","","","","html-keyboard-response","284","613769","0.0-22.0-1.22","6651064be071e3482a85f01c","67619bf32066d179f8b4b1ec","6789494d9e46d96811b3b9c7","passed","","367","","","","","","","","","","","","","","j","yesOrNo","","","","5","","","gt","1000","","","95","453.6711431702998","210.33"
"","","","","","html-keyboard-response","285","615336","0.0-22.0-0.23","6651064be071e3482a85f01c","67619bf32066d179f8b4b1ec","6789494d9e46d96811b3b9c7","passed","","","","","","","","","","","","","","","","","ballFalling","604.4000000000001","650.0211431702996","404.58000000000004","11","fallScene","true","","","","","96","",""
"","","","","","html-keyboard-response","286","615665","0.0-22.0-1.23","6651064be071e3482a85f01c","67619bf32066d179f8b4b1ec","6789494d9e46d96811b3b9c7","passed","","328","","","","","","","","","","","","","","j","yesOrNo","","","","11","","","lp","1000","","","96","605.4000000000001","372.6340973215488"
"","","","","","html-keyboard-response","287","617310","0.0-23.0","6651064be071e3482a85f01c","67619bf32066d179f8b4b1ec","6789494d9e46d96811b3b9c7","passed","","1644","","","","","","","","","","","","","<p><span style=""font-size:40px;"">BLOCK 5</span></p><p><span style=""font-size:25px;"">You have <strong>3 second(s)</strong> to respond to the following trials.</span><br></p><p></p> <!-- Blank line -->
                <p id=""blinking-text"" style=""font-weight; animation: blink 2s infinite;"">Press Space to continue</p>
                <style>
                    @keyframes blink {
                        50% {
                            opacity: 0;
                        }
                    }
                </style></p>"," ","","","","","","","","","","","","","",""
"","","","","","html-keyboard-response","288","618973","0.0-24.0-0.0","6651064be071e3482a85f01c","67619bf32066d179f8b4b1ec","6789494d9e46d96811b3b9c7","passed","","","","","","","","","","","","","","","","","ballFalling","500","479.92114317029973","330.87","6","fallScene","true","","","","","97","",""
"","","","","","html-keyboard-response","289","620633","0.0-24.0-1.0","6651064be071e3482a85f01c","67619bf32066d179f8b4b1ec","6789494d9e46d96811b3b9c7","passed","","1659","","","","","","","","","","","","","","j","yesOrNo","","","","6","","","gt","3000","","","97","479.9211431702998","330.87"
"","","","","","html-keyboard-response","290","622426","0.0-24.0-0.1","6651064be071e3482a85f01c","67619bf32066d179f8b4b1ec","6789494d9e46d96811b3b9c7","passed","","","","","","","","","","","","","","","","","ballFalling","322.3","308.07114317029976","253.89","2","fallScene","false","","","","","98","",""
"","","","","","html-keyboard-response","291","622990","0.0-24.0-1.1","6651064be071e3482a85f01c","67619bf32066d179f8b4b1ec","6789494d9e46d96811b3b9c7","passed","","563","","","","","","","","","","","","","","j","yesOrNo","","","","2","","","lp","3000","","","98","321.3","151"
"","","","","","html-keyboard-response","292","624545","0.0-24.0-0.2","6651064be071e3482a85f01c","67619bf32066d179f8b4b1ec","6789494d9e46d96811b3b9c7","passed","","","","","","","","","","","","","","","","","ballFalling","604.4000000000001","650.0211431702996","404.58000000000004","11","fallScene","false","","","","","99","",""
"","","","","","html-keyboard-response","293","625298","0.0-24.0-1.2","6651064be071e3482a85f01c","67619bf32066d179f8b4b1ec","6789494d9e46d96811b3b9c7","passed","","752","","","","","","","","","","","","","","f","yesOrNo","","","","11","","","mid","3000","","","99","605.4000000000001","300"
"","","","","","html-keyboard-response","294","626864","0.0-24.0-0.3","6651064be071e3482a85f01c","67619bf32066d179f8b4b1ec","6789494d9e46d96811b3b9c7","passed","","","","","","","","","","","","","","","","","ballFalling","322.3","296.07114317029976","371.46","3","fallScene","false","","","","","100","",""
"","","","","","html-keyboard-response","295","627331","0.0-24.0-1.3","6651064be071e3482a85f01c","67619bf32066d179f8b4b1ec","6789494d9e46d96811b3b9c7","passed","","465","","","","","","","","","","","","","","j","yesOrNo","","","","3","","","gt","3000","","","100","296.07114317029976","371.46"
"","","","","","html-keyboard-response","296","629117","0.0-24.0-0.4","6651064be071e3482a85f01c","67619bf32066d179f8b4b1ec","6789494d9e46d96811b3b9c7","passed","","","","","","","","","","","","","","","","","ballFalling","322.3","308.07114317029976","253.89","2","fallScene","true","","","","","101","",""
"","","","","","html-keyboard-response","297","629486","0.0-24.0-1.4","6651064be071e3482a85f01c","67619bf32066d179f8b4b1ec","6789494d9e46d96811b3b9c7","passed","","368","","","","","","","","","","","","","","j","yesOrNo","","","","2","","","gt","3000","","","101","308.07114317029976","253.89"
"","","","","","html-keyboard-response","298","631052","0.0-24.0-0.5","6651064be071e3482a85f01c","67619bf32066d179f8b4b1ec","6789494d9e46d96811b3b9c7","passed","","","","","","","","","","","","","","","","","ballFalling","500","453.67114317029973","210.33","5","fallScene","false","","","","","102","",""
"","","","","","html-keyboard-response","299","631485","0.0-24.0-1.5","6651064be071e3482a85f01c","67619bf32066d179f8b4b1ec","6789494d9e46d96811b3b9c7","passed","","432","","","","","","","","","","","","","","j","yesOrNo","","","","5","","","gt","3000","","","102","453.6711431702998","210.33"
"","","","","","html-keyboard-response","300","633038","0.0-24.0-0.6","6651064be071e3482a85f01c","67619bf32066d179f8b4b1ec","6789494d9e46d96811b3b9c7","passed","","","","","","","","","","","","","","","","","ballFalling","604.4000000000001","575.4211431702997","266.76","12","fallScene","false","","","","","103","",""
"","","","","","html-keyboard-response","301","633532","0.0-24.0-1.6","6651064be071e3482a85f01c","67619bf32066d179f8b4b1ec","6789494d9e46d96811b3b9c7","passed","","493","","","","","","","","","","","","","","f","yesOrNo","","","","12","","","mid","3000","","","103","536.4288568297004","300"
