"success","timeout","failed_images","failed_audio","failed_video","trial_type","trial_index","time_elapsed","internal_node_id","subject_id","study_id","session_id","practiceTestResult","view_history","rt","width","height","webaudio","browser","browser_version","mobile","os","fullscreen","vsync_rate","webcam","microphone","url","stimulus","response","task","ball_X","obstacle_groundTruth_x","obstacle_groundTruth_y","stimulus_idx","trial_name","flipped","choice","timeLimit","question_order","comprehensionCheck","currentTrial","obstacle_choice_x","obstacle_choice_y"
"true","false","[]","[]","[]","preload","0","6571","0.0-0.0","67463b2b120657eb73598c91","67619bf32066d179f8b4b1ec","67894a76435c3cd1c8059ad1","passed","","","","","","","","","","","","","","","","","","","","","","","","","","","","","",""
"","","","","","instructions","1","318320","0.0-1.0","67463b2b120657eb73598c91","67619bf32066d179f8b4b1ec","67894a76435c3cd1c8059ad1","passed","[{""page_index"":0,""viewing_time"":311745}]","311747","","","","","","","","","","","","","","","","","","","","","","","","","","","",""
"","","","","","browser-check","2","319310","0.0-2.0","67463b2b120657eb73598c91","67619bf32066d179f8b4b1ec","67894a76435c3cd1c8059ad1","passed","","","1366","641","true","chrome","131.0.0","false","Windows 10","true","61.21","false","false","","","","","","","","","","","","","","","","",""
"","","","","","external-html","3","736586","0.0-3.0","67463b2b120657eb73598c91","67619bf32066d179f8b4b1ec","67894a76435c3cd1c8059ad1","passed","","415979","","","","","","","","","","","","consent.html","","","","","","","","","","","","","","","",""
"true","","","","","fullscreen","4","1530898","0.0-4.0","67463b2b120657eb73598c91","67619bf32066d179f8b4b1ec","67894a76435c3cd1c8059ad1","passed","","794004","","","","","","","","","","","","","","","","","","","","","","","","","","","",""
"","","","","","browser-check","5","1531961","0.0-5.0","67463b2b120657eb73598c91","67619bf32066d179f8b4b1ec","67894a76435c3cd1c8059ad1","passed","","","1366","768","true","chrome","131.0.0","false","Windows 10","true","56.58","false","false","","","","","","","","","","","","","","","","",""
"","","","","","html-keyboard-response","6","1568157","0.0-6.0","67463b2b120657eb73598c91","67619bf32066d179f8b4b1ec","67894a76435c3cd1c8059ad1","passed","","36194","","","","","","","","","","","","","<p><b>This experiment requires keyboard input.</b></p> 
        <p><b>To ensure your response will be recorded successfully, please press 'Space' to continue.</b></p>
        <p>If you can't proceed, you won't be able to complete this study.</p>
        <p></p> <!-- Blank line -->
        <p id=""blinking-text"" style=""font-weight; animation: blink 2s infinite;"">Press Space to continue</p>
        <style>
            @keyframes blink {
                50% {
                    opacity: 0;
                }
            }
        </style>"," ","","","","","","","","","","","","","",""
"","","","","","html-keyboard-response","7","1573802","0.0-7.0","67463b2b120657eb73598c91","67619bf32066d179f8b4b1ec","67894a76435c3cd1c8059ad1","passed","","5643","","","","","","","","","","","","","<p><b>This experiment requires keyboard input.</b></p> 
        <p><b>To ensure your response will be recorded successfully, please press the 'f' key to continue.</b></p>
        <p>If you can't proceed, you won't be able to complete this study.</p>
        <p></p> <!-- Blank line -->
        <p id=""blinking-text"" style=""font-weight; animation: blink 2s infinite;"">Press f to continue</p>
        <style>
            @keyframes blink {
                50% {
                    opacity: 0;
                }
            }
        </style>","f","","","","","","","","","","","","","",""
"","","","","","html-keyboard-response","8","1575426","0.0-8.0","67463b2b120657eb73598c91","67619bf32066d179f8b4b1ec","67894a76435c3cd1c8059ad1","passed","","1623","","","","","","","","","","","","","<p><b>This experiment requires keyboard input.</b></p> 
        <p><b>To ensure your response will be recorded successfully, please press the 'j' key to continue.</b></p>
        <p>If you can't proceed, you won't be able to complete this study.</p>
        <p></p> <!-- Blank line -->
        <p id=""blinking-text"" style=""font-weight; animation: blink 2s infinite;"">Press j to continue</p>
        <style>
            @keyframes blink {
                50% {
                    opacity: 0;
                }
            }
        </style>","j","","","","","","","","","","","","","",""
"","","","","","browser-check","9","1576427","0.0-9.0","67463b2b120657eb73598c91","67619bf32066d179f8b4b1ec","67894a76435c3cd1c8059ad1","passed","","","1366","768","true","chrome","131.0.0","false","Windows 10","true","60.22","false","false","","","","","","","","","","","","","","","","",""
"","","","","","survey-text","10","1595257","0.0-10.0","67463b2b120657eb73598c91","67619bf32066d179f8b4b1ec","67894a76435c3cd1c8059ad1","passed","","18821","","","","","","","","","","","","","","{""prolificID"":""67463b2b120657eb73598c91""}","","","","","","","","","","","","","",""
"","","","","","instructions","11","1749122","0.0-11.0-0.0-0.0","67463b2b120657eb73598c91","67619bf32066d179f8b4b1ec","67894a76435c3cd1c8059ad1","passed","[{""page_index"":0,""viewing_time"":45635},{""page_index"":1,""viewing_time"":39646},{""page_index"":2,""viewing_time"":47276},{""page_index"":3,""viewing_time"":21306}]","153864","","","","","","","","","","","","","","","","","","","","","","","","","","","",""
"","","","","","html-keyboard-response","12","1769513","0.0-11.0-0.0-1.0","67463b2b120657eb73598c91","67619bf32066d179f8b4b1ec","67894a76435c3cd1c8059ad1","passed","","19834","","","","","","","","","","","","","<br>Remember! After a ball falls, the screen will disappear, and you'll decide if the proposed position is where the hidden triangle was. <br>You will now practice this by watching a few videos and making decisions.<p>To respond:<br style=""margin-bottom: 5px; text-indent: -20px; padding-left: 20px;"">- Press <b style=""color: #12AD2B;"">J for Yes</b>, if you think the triangle is in the correct position.<br style=""margin-top: 0; text-indent: -20px; padding-left: 20px;"">- Press <b style=""color: orange;"">F for No</b>, if you think the triangle is not in the correct position.</p><p>In this practice round, there is no time limit. Focus on getting comfortable with the task first.<br>Press either J or F to begin your practice trials.</p><img src = ""YesOrNo_instruction.png"" style=""width: 65%;""></img>","f","","","","","","","","","","","","","",""
"","","","","","html-keyboard-response","13","1771657","0.0-11.0-0.0-2.0-0.0","67463b2b120657eb73598c91","67619bf32066d179f8b4b1ec","67894a76435c3cd1c8059ad1","passed","","","","","","","","","","","","","","","","","ballFalling_prac","660","666","350","3","fallScene","false","","","","","","",""
"","","","","","html-keyboard-response","14","1773483","0.0-11.0-0.0-2.0-1.0","67463b2b120657eb73598c91","67619bf32066d179f8b4b1ec","67894a76435c3cd1c8059ad1","passed","","1815","","","","","","","","","","","","","","f","yesOrNo_prac_noTimed","","","","3","","","wrong direction","NA","","","","",""
"","","","","","html-keyboard-response","15","1775051","0.0-11.0-0.0-2.0-0.1","67463b2b120657eb73598c91","67619bf32066d179f8b4b1ec","67894a76435c3cd1c8059ad1","passed","","","","","","","","","","","","","","","","","ballFalling_prac","416","464","296","1","fallScene","false","","","","","","",""
"","","","","","html-keyboard-response","16","1775691","0.0-11.0-0.0-2.0-1.1","67463b2b120657eb73598c91","67619bf32066d179f8b4b1ec","67894a76435c3cd1c8059ad1","passed","","635","","","","","","","","","","","","","","j","yesOrNo_prac_noTimed","","","","1","","","gt","NA","","","","",""
"","","","","","html-keyboard-response","17","1777274","0.0-11.0-0.0-2.0-0.2","67463b2b120657eb73598c91","67619bf32066d179f8b4b1ec","67894a76435c3cd1c8059ad1","passed","","","","","","","","","","","","","","","","","ballFalling_prac","441","414","302","5","fallScene","true","","","","","","",""
"","","","","","html-keyboard-response","18","1778385","0.0-11.0-0.0-2.0-1.2","67463b2b120657eb73598c91","67619bf32066d179f8b4b1ec","67894a76435c3cd1c8059ad1","passed","","1109","","","","","","","","","","","","","","j","yesOrNo_prac_noTimed","","","","5","","","close gt","NA","","","","",""
"","","","","","instructions","19","1798302","0.0-11.0-0.0-3.0","67463b2b120657eb73598c91","67619bf32066d179f8b4b1ec","67894a76435c3cd1c8059ad1","passed","[{""page_index"":0,""viewing_time"":15755},{""page_index"":1,""viewing_time"":4160}]","19915","","","","","","","","","","","","","","","","","","","","","","","","","","","",""
"","","","","","html-button-response","20","1802372","0.0-11.0-0.0-4.0","67463b2b120657eb73598c91","67619bf32066d179f8b4b1ec","67894a76435c3cd1c8059ad1","passed","","3567","","","","","","","","","","","","","<p>To make sure you understood the task, we just have a <b>brief quiz</b> here.</p><p>If you need to review the instructions, click 'Previous'.</p><p>It's important to understand the task to do the study, so you have to pass the quiz to move to the study.</p>","1","","","","","","","","","","","","","",""
"","","","","","survey-multi-choice","21","1812347","0.0-11.0-1.0-0.0","67463b2b120657eb73598c91","67619bf32066d179f8b4b1ec","67894a76435c3cd1c8059ad1","passed","","9972","","","","","","","","","","","","","","{""generalProcedure"":""Watch a video of a ball falling, some of it behind a gray screen. After each video, decide if the triangle is below the ball.""}","","","","","","","","","","[0]","","","",""
"","","","","","survey-multi-choice","22","1821276","0.0-11.0-1.0-1.0","67463b2b120657eb73598c91","67619bf32066d179f8b4b1ec","67894a76435c3cd1c8059ad1","passed","","8928","","","","","","","","","","","","","","{""checkBallHitObstacle"":""Yes.""}","","","","","","","","","","[0]","","","",""
"","","","","","survey-multi-choice","23","1827439","0.0-11.0-1.0-2.0","67463b2b120657eb73598c91","67619bf32066d179f8b4b1ec","67894a76435c3cd1c8059ad1","passed","","6160","","","","","","","","","","","","","","{""checkTriangleVisibility"":""No, the triangle is hidden behind the gray screen.""}","","","","","","","","","","[0]","","","",""
"","","","","","survey-multi-choice","24","1836108","0.0-11.0-1.0-3.0","67463b2b120657eb73598c91","67619bf32066d179f8b4b1ec","67894a76435c3cd1c8059ad1","passed","","8668","","","","","","","","","","","","","","{""checkTimedResponse"":""Your response will not be recorded, and the trial will move to the next one.""}","","","","","","","","","","[0]","","","",""
"","","","","","survey-multi-choice","25","1845819","0.0-11.0-1.0-4.0","67463b2b120657eb73598c91","67619bf32066d179f8b4b1ec","67894a76435c3cd1c8059ad1","passed","","9708","","","","","","","","","","","","","","{""checkTimeBlockNotice"":""At the beginning of each block.""}","","","","","","","","","","[0]","","","",""
"","","","","","survey-multi-choice","26","1858351","0.0-11.0-1.0-5.0","67463b2b120657eb73598c91","67619bf32066d179f8b4b1ec","67894a76435c3cd1c8059ad1","passed","","12529","","","","","","","","","","","","","","{""checkTimeBlockSameness"":""Yes, the time limit is the same for all trials within a block.""}","","","","","","","","","","[0]","","","",""
"","","","","","survey-multi-choice","27","1889171","0.0-11.0-1.0-6.0","67463b2b120657eb73598c91","67619bf32066d179f8b4b1ec","67894a76435c3cd1c8059ad1","passed","","30819","","","","","","","","","","","","","","{""checkTrianglePrecision"":""No. The proposed purple triangle is not in the correct position because it doesn't match the location of the white triangle exactly.""}","","","","","","","","","","[0]","","","",""
"","","","","","html-button-response","28","1892358","0.0-11.0-2.0-0.0","67463b2b120657eb73598c91","67619bf32066d179f8b4b1ec","67894a76435c3cd1c8059ad1","passed","","3185","","","","","","","","","","","","","<p>Oops! You did not pass the quiz.</p><p>You will now repeat the instructions and practice.</p>","0","","","","","","","","","","","failed","","",""
"","","","","","instructions","29","1938474","0.0-11.1-0.1-0.1","67463b2b120657eb73598c91","67619bf32066d179f8b4b1ec","67894a76435c3cd1c8059ad1","passed","[{""page_index"":0,""viewing_time"":33188},{""page_index"":1,""viewing_time"":10170},{""page_index"":2,""viewing_time"":1660},{""page_index"":3,""viewing_time"":1096}]","46115","","","","","","","","","","","","","","","","","","","","","","","","","","","",""
"","","","","","html-keyboard-response","30","1941314","0.0-11.1-0.1-1.1","67463b2b120657eb73598c91","67619bf32066d179f8b4b1ec","67894a76435c3cd1c8059ad1","passed","","2321","","","","","","","","","","","","","<br>Remember! After a ball falls, the screen will disappear, and you'll decide if the proposed position is where the hidden triangle was. <br>You will now practice this by watching a few videos and making decisions.<p>To respond:<br style=""margin-bottom: 5px; text-indent: -20px; padding-left: 20px;"">- Press <b style=""color: #12AD2B;"">J for Yes</b>, if you think the triangle is in the correct position.<br style=""margin-top: 0; text-indent: -20px; padding-left: 20px;"">- Press <b style=""color: orange;"">F for No</b>, if you think the triangle is not in the correct position.</p><p>In this practice round, there is no time limit. Focus on getting comfortable with the task first.<br>Press either J or F to begin your practice trials.</p><img src = ""YesOrNo_instruction.png"" style=""width: 65%;""></img>","j","","","","","","","","","","","","","",""
"","","","","","html-keyboard-response","31","1942878","0.0-11.1-0.1-2.1-0.3","67463b2b120657eb73598c91","67619bf32066d179f8b4b1ec","67894a76435c3cd1c8059ad1","passed","","","","","","","","","","","","","","","","","ballFalling_prac","441","414","302","5","fallScene","true","","","","","","",""
"","","","","","html-keyboard-response","32","1943030","0.0-11.1-0.1-2.1-1.3","67463b2b120657eb73598c91","67619bf32066d179f8b4b1ec","67894a76435c3cd1c8059ad1","passed","","146","","","","","","","","","","","","","","j","yesOrNo_prac_noTimed","","","","5","","","close gt","NA","","","","",""
"","","","","","html-keyboard-response","33","1945143","0.0-11.1-0.1-2.1-0.4","67463b2b120657eb73598c91","67619bf32066d179f8b4b1ec","67894a76435c3cd1c8059ad1","passed","","","","","","","","","","","","","","","","","ballFalling_prac","660","666","350","3","fallScene","false","","","","","","",""
"","","","","","html-keyboard-response","34","1945785","0.0-11.1-0.1-2.1-1.4","67463b2b120657eb73598c91","67619bf32066d179f8b4b1ec","67894a76435c3cd1c8059ad1","passed","","638","","","","","","","","","","","","","","f","yesOrNo_prac_noTimed","","","","3","","","wrong direction","NA","","","","",""
"","","","","","html-keyboard-response","35","1947352","0.0-11.1-0.1-2.1-0.5","67463b2b120657eb73598c91","67619bf32066d179f8b4b1ec","67894a76435c3cd1c8059ad1","passed","","","","","","","","","","","","","","","","","ballFalling_prac","416","464","296","1","fallScene","false","","","","","","",""
"","","","","","html-keyboard-response","36","1951686","0.0-11.1-0.1-2.1-1.5","67463b2b120657eb73598c91","67619bf32066d179f8b4b1ec","67894a76435c3cd1c8059ad1","passed","","4330","","","","","","","","","","","","","","j","yesOrNo_prac_noTimed","","","","1","","","gt","NA","","","","",""
"","","","","","instructions","37","2000426","0.0-11.1-0.1-3.1","67463b2b120657eb73598c91","67619bf32066d179f8b4b1ec","67894a76435c3cd1c8059ad1","passed","[{""page_index"":0,""viewing_time"":34291},{""page_index"":1,""viewing_time"":14448}]","48739","","","","","","","","","","","","","","","","","","","","","","","","","","","",""
"","","","","","html-button-response","38","2002364","0.0-11.1-0.1-4.1","67463b2b120657eb73598c91","67619bf32066d179f8b4b1ec","67894a76435c3cd1c8059ad1","passed","","1427","","","","","","","","","","","","","<p>To make sure you understood the task, we just have a <b>brief quiz</b> here.</p><p>If you need to review the instructions, click 'Previous'.</p><p>It's important to understand the task to do the study, so you have to pass the quiz to move to the study.</p>","1","","","","","","","","","","","","","",""
"","","","","","survey-multi-choice","39","2027714","0.0-11.1-1.1-0.1","67463b2b120657eb73598c91","67619bf32066d179f8b4b1ec","67894a76435c3cd1c8059ad1","passed","","25348","","","","","","","","","","","","","","{""generalProcedure"":""Watch a video of a ball falling, some of it behind a gray screen. After each video, decide if the triangle is at the spot where the ball hit the triangle behind the screen. There is time limit for the response.""}","","","","","","","","","","[0]","","","",""
"","","","","","survey-multi-choice","40","2034889","0.0-11.1-1.1-1.1","67463b2b120657eb73598c91","67619bf32066d179f8b4b1ec","67894a76435c3cd1c8059ad1","passed","","7172","","","","","","","","","","","","","","{""checkBallHitObstacle"":""No.""}","","","","","","","","","","[0]","","","",""
"","","","","","survey-multi-choice","41","2040172","0.0-11.1-1.1-2.1","67463b2b120657eb73598c91","67619bf32066d179f8b4b1ec","67894a76435c3cd1c8059ad1","passed","","5282","","","","","","","","","","","","","","{""checkTriangleVisibility"":""No, the triangle is hidden behind the gray screen.""}","","","","","","","","","","[0]","","","",""
"","","","","","survey-multi-choice","42","2045330","0.0-11.1-1.1-3.1","67463b2b120657eb73598c91","67619bf32066d179f8b4b1ec","67894a76435c3cd1c8059ad1","passed","","5156","","","","","","","","","","","","","","{""checkTimedResponse"":""Your response will not be recorded, and the trial will move to the next one.""}","","","","","","","","","","[0]","","","",""
"","","","","","survey-multi-choice","43","2052648","0.0-11.1-1.1-4.1","67463b2b120657eb73598c91","67619bf32066d179f8b4b1ec","67894a76435c3cd1c8059ad1","passed","","7316","","","","","","","","","","","","","","{""checkTimeBlockNotice"":""At the beginning of each block.""}","","","","","","","","","","[0]","","","",""
"","","","","","survey-multi-choice","44","2061958","0.0-11.1-1.1-5.1","67463b2b120657eb73598c91","67619bf32066d179f8b4b1ec","67894a76435c3cd1c8059ad1","passed","","9308","","","","","","","","","","","","","","{""checkTimeBlockSameness"":""Yes, the time limit is the same for all trials within a block.""}","","","","","","","","","","[0]","","","",""
"","","","","","survey-multi-choice","45","2086814","0.0-11.1-1.1-6.1","67463b2b120657eb73598c91","67619bf32066d179f8b4b1ec","67894a76435c3cd1c8059ad1","passed","","24854","","","","","","","","","","","","","","{""checkTrianglePrecision"":""No. The proposed purple triangle is not in the correct position because it doesn't match the location of the white triangle exactly.""}","","","","","","","","","","[0]","","","",""
"","","","","","html-button-response","46","2088726","0.0-11.1-2.1-0.1","67463b2b120657eb73598c91","67619bf32066d179f8b4b1ec","67894a76435c3cd1c8059ad1","passed","","1910","","","","","","","","","","","","","<p>Oops! You did not pass the quiz.</p><p>You will now repeat the instructions and practice.</p>","0","","","","","","","","","","","failed","","",""
"","","","","","instructions","47","2099792","0.0-11.2-0.2-0.2","67463b2b120657eb73598c91","67619bf32066d179f8b4b1ec","67894a76435c3cd1c8059ad1","passed","[{""page_index"":0,""viewing_time"":1222},{""page_index"":1,""viewing_time"":920},{""page_index"":2,""viewing_time"":1248},{""page_index"":3,""viewing_time"":7674}]","11065","","","","","","","","","","","","","","","","","","","","","","","","","","","",""
"","","","","","html-keyboard-response","48","2102248","0.0-11.2-0.2-1.2","67463b2b120657eb73598c91","67619bf32066d179f8b4b1ec","67894a76435c3cd1c8059ad1","passed","","1942","","","","","","","","","","","","","<br>Remember! After a ball falls, the screen will disappear, and you'll decide if the proposed position is where the hidden triangle was. <br>You will now practice this by watching a few videos and making decisions.<p>To respond:<br style=""margin-bottom: 5px; text-indent: -20px; padding-left: 20px;"">- Press <b style=""color: #12AD2B;"">J for Yes</b>, if you think the triangle is in the correct position.<br style=""margin-top: 0; text-indent: -20px; padding-left: 20px;"">- Press <b style=""color: orange;"">F for No</b>, if you think the triangle is not in the correct position.</p><p>In this practice round, there is no time limit. Focus on getting comfortable with the task first.<br>Press either J or F to begin your practice trials.</p><img src = ""YesOrNo_instruction.png"" style=""width: 65%;""></img>","j","","","","","","","","","","","","","",""
"","","","","","html-keyboard-response","49","2103795","0.0-11.2-0.2-2.2-0.6","67463b2b120657eb73598c91","67619bf32066d179f8b4b1ec","67894a76435c3cd1c8059ad1","passed","","","","","","","","","","","","","","","","","ballFalling_prac","416","464","296","1","fallScene","false","","","","","","",""
"","","","","","html-keyboard-response","50","2104030","0.0-11.2-0.2-2.2-1.6","67463b2b120657eb73598c91","67619bf32066d179f8b4b1ec","67894a76435c3cd1c8059ad1","passed","","229","","","","","","","","","","","","","","j","yesOrNo_prac_noTimed","","","","1","","","gt","NA","","","","",""
"","","","","","html-keyboard-response","51","2105611","0.0-11.2-0.2-2.2-0.7","67463b2b120657eb73598c91","67619bf32066d179f8b4b1ec","67894a76435c3cd1c8059ad1","passed","","","","","","","","","","","","","","","","","ballFalling_prac","441","414","302","5","fallScene","true","","","","","","",""
"","","","","","html-keyboard-response","52","2105679","0.0-11.2-0.2-2.2-1.7","67463b2b120657eb73598c91","67619bf32066d179f8b4b1ec","67894a76435c3cd1c8059ad1","passed","","66","","","","","","","","","","","","","","j","yesOrNo_prac_noTimed","","","","5","","","close gt","NA","","","","",""
"","","","","","html-keyboard-response","53","2107775","0.0-11.2-0.2-2.2-0.8","67463b2b120657eb73598c91","67619bf32066d179f8b4b1ec","67894a76435c3cd1c8059ad1","passed","","","","","","","","","","","","","","","","","ballFalling_prac","660","666","350","3","fallScene","false","","","","","","",""
"","","","","","html-keyboard-response","54","2110929","0.0-11.2-0.2-2.2-1.8","67463b2b120657eb73598c91","67619bf32066d179f8b4b1ec","67894a76435c3cd1c8059ad1","passed","","3152","","","","","","","","","","","","","","j","yesOrNo_prac_noTimed","","","","3","","","wrong direction","NA","","","","",""
"","","","","","instructions","55","2114228","0.0-11.2-0.2-3.2","67463b2b120657eb73598c91","67619bf32066d179f8b4b1ec","67894a76435c3cd1c8059ad1","passed","[{""page_index"":0,""viewing_time"":2413},{""page_index"":1,""viewing_time"":884}]","3298","","","","","","","","","","","","","","","","","","","","","","","","","","","",""
"","","","","","html-button-response","56","2115960","0.0-11.2-0.2-4.2","67463b2b120657eb73598c91","67619bf32066d179f8b4b1ec","67894a76435c3cd1c8059ad1","passed","","1226","","","","","","","","","","","","","<p>To make sure you understood the task, we just have a <b>brief quiz</b> here.</p><p>If you need to review the instructions, click 'Previous'.</p><p>It's important to understand the task to do the study, so you have to pass the quiz to move to the study.</p>","1","","","","","","","","","","","","","",""
"","","","","","survey-multi-choice","57","2123330","0.0-11.2-1.2-0.2","67463b2b120657eb73598c91","67619bf32066d179f8b4b1ec","67894a76435c3cd1c8059ad1","passed","","7369","","","","","","","","","","","","","","{""generalProcedure"":""Watch a video of a ball falling, some of it behind a gray screen. After each video, decide if the triangle is at the spot where the ball hit the triangle behind the screen. There is time limit for the response.""}","","","","","","","","","","[0]","","","",""
"","","","","","survey-multi-choice","58","2127533","0.0-11.2-1.2-1.2","67463b2b120657eb73598c91","67619bf32066d179f8b4b1ec","67894a76435c3cd1c8059ad1","passed","","4201","","","","","","","","","","","","","","{""checkBallHitObstacle"":""Yes.""}","","","","","","","","","","[0]","","","",""
"","","","","","survey-multi-choice","59","2138718","0.0-11.2-1.2-2.2","67463b2b120657eb73598c91","67619bf32066d179f8b4b1ec","67894a76435c3cd1c8059ad1","passed","","11184","","","","","","","","","","","","","","{""checkTriangleVisibility"":""No, the triangle is hidden behind the gray screen.""}","","","","","","","","","","[0]","","","",""
"","","","","","survey-multi-choice","60","2143088","0.0-11.2-1.2-3.2","67463b2b120657eb73598c91","67619bf32066d179f8b4b1ec","67894a76435c3cd1c8059ad1","passed","","4367","","","","","","","","","","","","","","{""checkTimedResponse"":""Your response will not be recorded, and the trial will move to the next one.""}","","","","","","","","","","[0]","","","",""
"","","","","","survey-multi-choice","61","2149907","0.0-11.2-1.2-4.2","67463b2b120657eb73598c91","67619bf32066d179f8b4b1ec","67894a76435c3cd1c8059ad1","passed","","6816","","","","","","","","","","","","","","{""checkTimeBlockNotice"":""Before every individual trial.""}","","","","","","","","","","[0]","","","",""
"","","","","","survey-multi-choice","62","2155778","0.0-11.2-1.2-5.2","67463b2b120657eb73598c91","67619bf32066d179f8b4b1ec","67894a76435c3cd1c8059ad1","passed","","5869","","","","","","","","","","","","","","{""checkTimeBlockSameness"":""Yes, the time limit is the same for all trials within a block.""}","","","","","","","","","","[0]","","","",""
"","","","","","survey-multi-choice","63","2159324","0.0-11.2-1.2-6.2","67463b2b120657eb73598c91","67619bf32066d179f8b4b1ec","67894a76435c3cd1c8059ad1","passed","","3544","","","","","","","","","","","","","","{""checkTrianglePrecision"":""Yes. The proposed purple triangle is very close to the correct position, so I should choose 'Yes.'""}","","","","","","","","","","[0]","","","",""
"","","","","","html-button-response","64","2160804","0.0-11.2-2.2-0.2","67463b2b120657eb73598c91","67619bf32066d179f8b4b1ec","67894a76435c3cd1c8059ad1","passed","","1478","","","","","","","","","","","","","<p>Oops! You did not pass the quiz.</p><p>You will now repeat the instructions and practice.</p>","0","","","","","","","","","","","failed","","",""
"","","","","","instructions","65","2165208","0.0-11.3-0.3-0.3","67463b2b120657eb73598c91","67619bf32066d179f8b4b1ec","67894a76435c3cd1c8059ad1","passed","[{""page_index"":0,""viewing_time"":1511},{""page_index"":1,""viewing_time"":732},{""page_index"":2,""viewing_time"":796},{""page_index"":3,""viewing_time"":1364}]","4404","","","","","","","","","","","","","","","","","","","","","","","","","","","",""
"","","","","","html-keyboard-response","66","2167898","0.0-11.3-0.3-1.3","67463b2b120657eb73598c91","67619bf32066d179f8b4b1ec","67894a76435c3cd1c8059ad1","passed","","2173","","","","","","","","","","","","","<br>Remember! After a ball falls, the screen will disappear, and you'll decide if the proposed position is where the hidden triangle was. <br>You will now practice this by watching a few videos and making decisions.<p>To respond:<br style=""margin-bottom: 5px; text-indent: -20px; padding-left: 20px;"">- Press <b style=""color: #12AD2B;"">J for Yes</b>, if you think the triangle is in the correct position.<br style=""margin-top: 0; text-indent: -20px; padding-left: 20px;"">- Press <b style=""color: orange;"">F for No</b>, if you think the triangle is not in the correct position.</p><p>In this practice round, there is no time limit. Focus on getting comfortable with the task first.<br>Press either J or F to begin your practice trials.</p><img src = ""YesOrNo_instruction.png"" style=""width: 65%;""></img>","j","","","","","","","","","","","","","",""
"","","","","","html-keyboard-response","67","2169987","0.0-11.3-0.3-2.3-0.9","67463b2b120657eb73598c91","67619bf32066d179f8b4b1ec","67894a76435c3cd1c8059ad1","passed","","","","","","","","","","","","","","","","","ballFalling_prac","660","666","350","3","fallScene","false","","","","","","",""
"","","","","","html-keyboard-response","68","2170588","0.0-11.3-0.3-2.3-1.9","67463b2b120657eb73598c91","67619bf32066d179f8b4b1ec","67894a76435c3cd1c8059ad1","passed","","596","","","","","","","","","","","","","","j","yesOrNo_prac_noTimed","","","","3","","","wrong direction","NA","","","","",""
"","","","","","html-keyboard-response","69","2172168","0.0-11.3-0.3-2.3-0.10","67463b2b120657eb73598c91","67619bf32066d179f8b4b1ec","67894a76435c3cd1c8059ad1","passed","","","","","","","","","","","","","","","","","ballFalling_prac","441","414","302","5","fallScene","true","","","","","","",""
"","","","","","html-keyboard-response","70","2174658","0.0-11.3-0.3-2.3-1.10","67463b2b120657eb73598c91","67619bf32066d179f8b4b1ec","67894a76435c3cd1c8059ad1","passed","","2487","","","","","","","","","","","","","","j","yesOrNo_prac_noTimed","","","","5","","","close gt","NA","","","","",""
"","","","","","html-keyboard-response","71","2176215","0.0-11.3-0.3-2.3-0.11","67463b2b120657eb73598c91","67619bf32066d179f8b4b1ec","67894a76435c3cd1c8059ad1","passed","","","","","","","","","","","","","","","","","ballFalling_prac","416","464","296","1","fallScene","false","","","","","","",""
"","","","","","html-keyboard-response","72","2177447","0.0-11.3-0.3-2.3-1.11","67463b2b120657eb73598c91","67619bf32066d179f8b4b1ec","67894a76435c3cd1c8059ad1","passed","","1229","","","","","","","","","","","","","","j","yesOrNo_prac_noTimed","","","","1","","","gt","NA","","","","",""
"","","","","","instructions","73","2181226","0.0-11.3-0.3-3.3","67463b2b120657eb73598c91","67619bf32066d179f8b4b1ec","67894a76435c3cd1c8059ad1","passed","[{""page_index"":0,""viewing_time"":2629},{""page_index"":1,""viewing_time"":1148}]","3778","","","","","","","","","","","","","","","","","","","","","","","","","","","",""
"","","","","","html-button-response","74","2182802","0.0-11.3-0.3-4.3","67463b2b120657eb73598c91","67619bf32066d179f8b4b1ec","67894a76435c3cd1c8059ad1","passed","","1070","","","","","","","","","","","","","<p>To make sure you understood the task, we just have a <b>brief quiz</b> here.</p><p>If you need to review the instructions, click 'Previous'.</p><p>It's important to understand the task to do the study, so you have to pass the quiz to move to the study.</p>","1","","","","","","","","","","","","","",""
"","","","","","survey-multi-choice","75","2204164","0.0-11.3-1.3-0.3","67463b2b120657eb73598c91","67619bf32066d179f8b4b1ec","67894a76435c3cd1c8059ad1","passed","","21360","","","","","","","","","","","","","","{""generalProcedure"":""Watch a video of a ball falling, some of it behind a gray screen. After each video, decide if the triangle is at the spot where the ball hit the triangle behind the screen. There is time limit for the response.""}","","","","","","","","","","[0]","","","",""
"","","","","","survey-multi-choice","76","2213154","0.0-11.3-1.3-1.3","67463b2b120657eb73598c91","67619bf32066d179f8b4b1ec","67894a76435c3cd1c8059ad1","passed","","8988","","","","","","","","","","","","","","{""checkBallHitObstacle"":""Yes.""}","","","","","","","","","","[0]","","","",""
"","","","","","survey-multi-choice","77","2222904","0.0-11.3-1.3-2.3","67463b2b120657eb73598c91","67619bf32066d179f8b4b1ec","67894a76435c3cd1c8059ad1","passed","","9748","","","","","","","","","","","","","","{""checkTriangleVisibility"":""No, the triangle is hidden behind the gray screen.""}","","","","","","","","","","[0]","","","",""
"","","","","","survey-multi-choice","78","2227850","0.0-11.3-1.3-3.3","67463b2b120657eb73598c91","67619bf32066d179f8b4b1ec","67894a76435c3cd1c8059ad1","passed","","4944","","","","","","","","","","","","","","{""checkTimedResponse"":""Your response will not be recorded, and the trial will move to the next one.""}","","","","","","","","","","[0]","","","",""
"","","","","","survey-multi-choice","79","2237588","0.0-11.3-1.3-4.3","67463b2b120657eb73598c91","67619bf32066d179f8b4b1ec","67894a76435c3cd1c8059ad1","passed","","9736","","","","","","","","","","","","","","{""checkTimeBlockNotice"":""At the beginning of each block.""}","","","","","","","","","","[0]","","","",""
"","","","","","survey-multi-choice","80","2251804","0.0-11.3-1.3-5.3","67463b2b120657eb73598c91","67619bf32066d179f8b4b1ec","67894a76435c3cd1c8059ad1","passed","","14214","","","","","","","","","","","","","","{""checkTimeBlockSameness"":""The time limit changes halfway through the block.""}","","","","","","","","","","[0]","","","",""
"","","","","","survey-multi-choice","81","2254029","0.0-11.3-1.3-6.3","67463b2b120657eb73598c91","67619bf32066d179f8b4b1ec","67894a76435c3cd1c8059ad1","passed","","2222","","","","","","","","","","","","","","{""checkTrianglePrecision"":""Yes. The proposed purple triangle is very close to the correct position, so I should choose 'Yes.'""}","","","","","","","","","","[0]","","","",""
"","","","","","html-button-response","82","2255240","0.0-11.3-2.3-0.3","67463b2b120657eb73598c91","67619bf32066d179f8b4b1ec","67894a76435c3cd1c8059ad1","passed","","1209","","","","","","","","","","","","","<p>Oops! You did not pass the quiz.</p><p>You will now repeat the instructions and practice.</p>","0","","","","","","","","","","","failed","","",""
"","","","","","instructions","83","2303146","0.0-11.4-0.4-0.4","67463b2b120657eb73598c91","67619bf32066d179f8b4b1ec","67894a76435c3cd1c8059ad1","passed","[{""page_index"":0,""viewing_time"":26315},{""page_index"":1,""viewing_time"":8310},{""page_index"":2,""viewing_time"":5995},{""page_index"":3,""viewing_time"":7285}]","47905","","","","","","","","","","","","","","","","","","","","","","","","","","","",""
"","","","","","html-keyboard-response","84","2307362","0.0-11.4-0.4-1.4","67463b2b120657eb73598c91","67619bf32066d179f8b4b1ec","67894a76435c3cd1c8059ad1","passed","","3708","","","","","","","","","","","","","<br>Remember! After a ball falls, the screen will disappear, and you'll decide if the proposed position is where the hidden triangle was. <br>You will now practice this by watching a few videos and making decisions.<p>To respond:<br style=""margin-bottom: 5px; text-indent: -20px; padding-left: 20px;"">- Press <b style=""color: #12AD2B;"">J for Yes</b>, if you think the triangle is in the correct position.<br style=""margin-top: 0; text-indent: -20px; padding-left: 20px;"">- Press <b style=""color: orange;"">F for No</b>, if you think the triangle is not in the correct position.</p><p>In this practice round, there is no time limit. Focus on getting comfortable with the task first.<br>Press either J or F to begin your practice trials.</p><img src = ""YesOrNo_instruction.png"" style=""width: 65%;""></img>","j","","","","","","","","","","","","","",""
"","","","","","html-keyboard-response","85","2309460","0.0-11.4-0.4-2.4-0.12","67463b2b120657eb73598c91","67619bf32066d179f8b4b1ec","67894a76435c3cd1c8059ad1","passed","","","","","","","","","","","","","","","","","ballFalling_prac","660","666","350","3","fallScene","false","","","","","","",""
"","","","","","html-keyboard-response","86","2314665","0.0-11.4-0.4-2.4-1.12","67463b2b120657eb73598c91","67619bf32066d179f8b4b1ec","67894a76435c3cd1c8059ad1","passed","","5199","","","","","","","","","","","","","","f","yesOrNo_prac_noTimed","","","","3","","","wrong direction","NA","","","","",""
"","","","","","html-keyboard-response","87","2316237","0.0-11.4-0.4-2.4-0.13","67463b2b120657eb73598c91","67619bf32066d179f8b4b1ec","67894a76435c3cd1c8059ad1","passed","","","","","","","","","","","","","","","","","ballFalling_prac","441","414","302","5","fallScene","true","","","","","","",""
"","","","","","html-keyboard-response","88","2317296","0.0-11.4-0.4-2.4-1.13","67463b2b120657eb73598c91","67619bf32066d179f8b4b1ec","67894a76435c3cd1c8059ad1","passed","","1056","","","","","","","","","","","","","","j","yesOrNo_prac_noTimed","","","","5","","","close gt","NA","","","","",""
"","","","","","html-keyboard-response","89","2318834","0.0-11.4-0.4-2.4-0.14","67463b2b120657eb73598c91","67619bf32066d179f8b4b1ec","67894a76435c3cd1c8059ad1","passed","","","","","","","","","","","","","","","","","ballFalling_prac","416","464","296","1","fallScene","false","","","","","","",""
"","","","","","html-keyboard-response","90","2319162","0.0-11.4-0.4-2.4-1.14","67463b2b120657eb73598c91","67619bf32066d179f8b4b1ec","67894a76435c3cd1c8059ad1","passed","","325","","","","","","","","","","","","","","j","yesOrNo_prac_noTimed","","","","1","","","gt","NA","","","","",""
"","","","","","instructions","91","2363408","0.0-11.4-0.4-3.4","67463b2b120657eb73598c91","67619bf32066d179f8b4b1ec","67894a76435c3cd1c8059ad1","passed","[{""page_index"":0,""viewing_time"":38369},{""page_index"":1,""viewing_time"":5876}]","44245","","","","","","","","","","","","","","","","","","","","","","","","","","","",""
"","","","","","html-button-response","92","2365754","0.0-11.4-0.4-4.4","67463b2b120657eb73598c91","67619bf32066d179f8b4b1ec","67894a76435c3cd1c8059ad1","passed","","1831","","","","","","","","","","","","","<p>To make sure you understood the task, we just have a <b>brief quiz</b> here.</p><p>If you need to review the instructions, click 'Previous'.</p><p>It's important to understand the task to do the study, so you have to pass the quiz to move to the study.</p>","1","","","","","","","","","","","","","",""
"","","","","","survey-multi-choice","93","2376028","0.0-11.4-1.4-0.4","67463b2b120657eb73598c91","67619bf32066d179f8b4b1ec","67894a76435c3cd1c8059ad1","passed","","10272","","","","","","","","","","","","","","{""generalProcedure"":""Watch a video of a ball falling, some of it behind a gray screen. After each video, decide if the triangle is at the spot where the ball hit the triangle behind the screen. There is time limit for the response.""}","","","","","","","","","","[0]","","","",""
"","","","","","survey-multi-choice","94","2380618","0.0-11.4-1.4-1.4","67463b2b120657eb73598c91","67619bf32066d179f8b4b1ec","67894a76435c3cd1c8059ad1","passed","","4588","","","","","","","","","","","","","","{""checkBallHitObstacle"":""Yes.""}","","","","","","","","","","[0]","","","",""
"","","","","","survey-multi-choice","95","2387953","0.0-11.4-1.4-2.4","67463b2b120657eb73598c91","67619bf32066d179f8b4b1ec","67894a76435c3cd1c8059ad1","passed","","7333","","","","","","","","","","","","","","{""checkTriangleVisibility"":""No, the triangle is hidden behind the gray screen.""}","","","","","","","","","","[0]","","","",""
"","","","","","survey-multi-choice","96","2395611","0.0-11.4-1.4-3.4","67463b2b120657eb73598c91","67619bf32066d179f8b4b1ec","67894a76435c3cd1c8059ad1","passed","","7656","","","","","","","","","","","","","","{""checkTimedResponse"":""Your response will not be recorded, and the trial will move to the next one.""}","","","","","","","","","","[0]","","","",""
"","","","","","survey-multi-choice","97","2416402","0.0-11.4-1.4-4.4","67463b2b120657eb73598c91","67619bf32066d179f8b4b1ec","67894a76435c3cd1c8059ad1","passed","","20790","","","","","","","","","","","","","","{""checkTimeBlockNotice"":""At the beginning of each block.""}","","","","","","","","","","[0]","","","",""
"","","","","","survey-multi-choice","98","2429342","0.0-11.4-1.4-5.4","67463b2b120657eb73598c91","67619bf32066d179f8b4b1ec","67894a76435c3cd1c8059ad1","passed","","12938","","","","","","","","","","","","","","{""checkTimeBlockSameness"":""Yes, the time limit is the same for all trials within a block.""}","","","","","","","","","","[0]","","","",""
"","","","","","survey-multi-choice","99","2440116","0.0-11.4-1.4-6.4","67463b2b120657eb73598c91","67619bf32066d179f8b4b1ec","67894a76435c3cd1c8059ad1","passed","","10772","","","","","","","","","","","","","","{""checkTrianglePrecision"":""No. The proposed purple triangle is not in the correct position because it doesn't match the location of the white triangle exactly.""}","","","","","","","","","","[0]","","","",""
"","","","","","instructions","100","2455945","0.0-12.0","67463b2b120657eb73598c91","67619bf32066d179f8b4b1ec","67894a76435c3cd1c8059ad1","passed","[{""page_index"":0,""viewing_time"":2304},{""page_index"":1,""viewing_time"":4228},{""page_index"":2,""viewing_time"":5638},{""page_index"":3,""viewing_time"":3657}]","15827","","","","","","","","","","","","","","","","","","","","","","","","","","","",""
"","","","","","instructions","101","2459662","0.0-13.0-0.0","67463b2b120657eb73598c91","67619bf32066d179f8b4b1ec","67894a76435c3cd1c8059ad1","passed","[{""page_index"":0,""viewing_time"":3716}]","3716","","","","","","","","","","","","","","","","","","","","","","","","","","","",""
"","","","","","html-keyboard-response","102","2462248","0.0-13.0-1.0","67463b2b120657eb73598c91","67619bf32066d179f8b4b1ec","67894a76435c3cd1c8059ad1","passed","","2586","","","","","","","","","","","","","<p><span style=""font-size:40px;"">Practice BLOCK 1</span></p><p><span style=""font-size:25px;"">You have <strong>3 second(s)</strong> to respond to the following trials.</span><br></p><p id=""blinking-text"" style=""font-weight; animation: blink 2s infinite;"">Press Space to continue</p><style>
                    @keyframes blink {
                        50% {
                            opacity: 0;
                        }
                    }
                </style>"," ","","","","","","","","","","","","","",""
"","","","","","html-keyboard-response","103","2463802","0.0-13.0-2.0-0.0","67463b2b120657eb73598c91","67619bf32066d179f8b4b1ec","67894a76435c3cd1c8059ad1","passed","","","","","","","","","","","","","","","","","ballFalling_prac","584","536","296","1","fallScene","true","","","","","","",""
"","","","","","html-keyboard-response","104","2464105","0.0-13.0-2.0-1.0","67463b2b120657eb73598c91","67619bf32066d179f8b4b1ec","67894a76435c3cd1c8059ad1","passed","","296","","","","","","","","","","","","","","j","yesOrNo_prac","","","","1","","","close gt","3000","","","","",""
"","","","","","html-keyboard-response","105","2465665","0.0-13.0-2.0-0.1","67463b2b120657eb73598c91","67619bf32066d179f8b4b1ec","67894a76435c3cd1c8059ad1","passed","","","","","","","","","","","","","","","","","ballFalling_prac","416","464","296","1","fallScene","false","","","","","","",""
"","","","","","html-keyboard-response","106","2466104","0.0-13.0-2.0-1.1","67463b2b120657eb73598c91","67619bf32066d179f8b4b1ec","67894a76435c3cd1c8059ad1","passed","","435","","","","","","","","","","","","","","j","yesOrNo_prac","","","","1","","","far gt","3000","","","","",""
"","","","","","html-keyboard-response","107","2467665","0.0-13.0-2.0-0.2","67463b2b120657eb73598c91","67619bf32066d179f8b4b1ec","67894a76435c3cd1c8059ad1","passed","","","","","","","","","","","","","","","","","ballFalling_prac","660","610","263","4","fallScene","false","","","","","","",""
"","","","","","html-keyboard-response","108","2468116","0.0-13.0-2.0-1.2","67463b2b120657eb73598c91","67619bf32066d179f8b4b1ec","67894a76435c3cd1c8059ad1","passed","","448","","","","","","","","","","","","","","j","yesOrNo_prac","","","","4","","","gt","3000","","","","",""
"","","","","","html-keyboard-response","109","2469551","0.0-13.0-3.0","67463b2b120657eb73598c91","67619bf32066d179f8b4b1ec","67894a76435c3cd1c8059ad1","passed","","1435","","","","","","","","","","","","","<p><span style=""font-size:40px;"">Practice BLOCK 2</span></p><p><span style=""font-size:25px;"">You have <strong>1 second(s)</strong> to respond to the following trials.</span><br></p><p id=""blinking-text"" style=""font-weight; animation: blink 2s infinite;"">Press Space to continue</p><style>
                    @keyframes blink {
                        50% {
                            opacity: 0;
                        }
                    }
                </style>"," ","","","","","","","","","","","","","",""
"","","","","","html-keyboard-response","110","2471128","0.0-13.0-4.0-0.0","67463b2b120657eb73598c91","67619bf32066d179f8b4b1ec","67894a76435c3cd1c8059ad1","passed","","","","","","","","","","","","","","","","","ballFalling_prac","660","610","263","4","fallScene","false","","","","","","",""
"","","","","","html-keyboard-response","111","2471461","0.0-13.0-4.0-1.0","67463b2b120657eb73598c91","67619bf32066d179f8b4b1ec","67894a76435c3cd1c8059ad1","passed","","330","","","","","","","","","","","","","","j","yesOrNo_prac","","","","4","","","far gt","1000","","","","",""
"","","","","","html-keyboard-response","112","2473009","0.0-13.0-4.0-0.1","67463b2b120657eb73598c91","67619bf32066d179f8b4b1ec","67894a76435c3cd1c8059ad1","passed","","","","","","","","","","","","","","","","","ballFalling_prac","441","500","317","6","fallScene","true","","","","","","",""
"","","","","","html-keyboard-response","113","2473359","0.0-13.0-4.0-1.1","67463b2b120657eb73598c91","67619bf32066d179f8b4b1ec","67894a76435c3cd1c8059ad1","passed","","347","","","","","","","","","","","","","","j","yesOrNo_prac","","","","6","","","gt","1000","","","","",""
"","","","","","html-keyboard-response","114","2475456","0.0-13.0-4.0-0.2","67463b2b120657eb73598c91","67619bf32066d179f8b4b1ec","67894a76435c3cd1c8059ad1","passed","","","","","","","","","","","","","","","","","ballFalling_prac","340","334","350","3","fallScene","true","","","","","","",""
"","","","","","html-keyboard-response","115","2475489","0.0-13.0-4.0-1.2","67463b2b120657eb73598c91","67619bf32066d179f8b4b1ec","67894a76435c3cd1c8059ad1","passed","","30","","","","","","","","","","","","","","j","yesOrNo_prac","","","","3","","","close gt","1000","","","","",""
"","","","","","instructions","116","2478085","0.0-13.0-5.0","67463b2b120657eb73598c91","67619bf32066d179f8b4b1ec","67894a76435c3cd1c8059ad1","passed","[{""page_index"":0,""viewing_time"":2594}]","2595","","","","","","","","","","","","","","","","","","","","","","","","","","","",""
"","","","","","html-keyboard-response","117","2479207","0.0-13.0-6.0","67463b2b120657eb73598c91","67619bf32066d179f8b4b1ec","67894a76435c3cd1c8059ad1","passed","","1120","","","","","","","","","","","","","<p><span style=""font-size:40px;"">Practice Test BLOCK 1</span></p><p><span style=""font-size:25px;"">You have <strong>1 second(s)</strong> to respond to the following trials.</span><br></p><p id=""blinking-text"" style=""font-weight; animation: blink 2s infinite;"">Press Space to continue</p><style>
                    @keyframes blink {
                        50% {
                            opacity: 0;
                        }
                    }
                </style>"," ","","","","","","","","","","","","","",""
"","","","","","html-keyboard-response","118","2480766","0.0-13.0-7.0-0.0","67463b2b120657eb73598c91","67619bf32066d179f8b4b1ec","67894a76435c3cd1c8059ad1","passed","","","","","","","","","","","","","","","","","ballFalling_prac","441","500","317","6","fallScene","true","","","","","","",""
"","","","","","html-keyboard-response","119","2481340","0.0-13.0-7.0-1.0","67463b2b120657eb73598c91","67619bf32066d179f8b4b1ec","67894a76435c3cd1c8059ad1","passed","","570","","","","","","","","","","","","","","j","yesOrNo_prac","","","","6","","","close gt","1000","","","","",""
"","","","","","html-keyboard-response","120","2482898","0.0-13.0-7.0-0.1","67463b2b120657eb73598c91","67619bf32066d179f8b4b1ec","67894a76435c3cd1c8059ad1","passed","","","","","","","","","","","","","","","","","ballFalling_prac","559","586","302","5","fallScene","false","","","","","","",""
"","","","","","html-keyboard-response","121","2483156","0.0-13.0-7.0-1.1","67463b2b120657eb73598c91","67619bf32066d179f8b4b1ec","67894a76435c3cd1c8059ad1","passed","","254","","","","","","","","","","","","","","j","yesOrNo_prac","","","","5","","","gt","1000","","","","",""
"","","","","","html-keyboard-response","122","2484729","0.0-13.0-7.0-0.2","67463b2b120657eb73598c91","67619bf32066d179f8b4b1ec","67894a76435c3cd1c8059ad1","passed","","","","","","","","","","","","","","","","","ballFalling_prac","340","390","263","4","fallScene","true","","","","","","",""
"","","","","","html-keyboard-response","123","2485103","0.0-13.0-7.0-1.2","67463b2b120657eb73598c91","67619bf32066d179f8b4b1ec","67894a76435c3cd1c8059ad1","passed","","372","","","","","","","","","","","","","","j","yesOrNo_prac","","","","4","","","far gt","1000","","","","",""
"","","","","","html-keyboard-response","124","2486407","0.0-13.0-8.0","67463b2b120657eb73598c91","67619bf32066d179f8b4b1ec","67894a76435c3cd1c8059ad1","passed","","1302","","","","","","","","","","","","","<p><span style=""font-size:40px;"">Practice Test BLOCK 2</span></p><p><span style=""font-size:25px;"">You have <strong>3 second(s)</strong> to respond to the following trials.</span><br></p><p id=""blinking-text"" style=""font-weight; animation: blink 2s infinite;"">Press Space to continue</p><style>
                    @keyframes blink {
                        50% {
                            opacity: 0;
                        }
                    }
                </style>"," ","","","","","","","","","","","","","",""
"","","","","","html-keyboard-response","125","2487975","0.0-13.0-9.0-0.0","67463b2b120657eb73598c91","67619bf32066d179f8b4b1ec","67894a76435c3cd1c8059ad1","passed","","","","","","","","","","","","","","","","","ballFalling_prac","340","390","263","4","fallScene","true","","","","","","",""
"","","","","","html-keyboard-response","126","2488118","0.0-13.0-9.0-1.0","67463b2b120657eb73598c91","67619bf32066d179f8b4b1ec","67894a76435c3cd1c8059ad1","passed","","140","","","","","","","","","","","","","","j","yesOrNo_prac","","","","4","","","close gt","3000","","","","",""
"","","","","","html-keyboard-response","127","2489690","0.0-13.0-9.0-0.1","67463b2b120657eb73598c91","67619bf32066d179f8b4b1ec","67894a76435c3cd1c8059ad1","passed","","","","","","","","","","","","","","","","","ballFalling_prac","416","365","249","2","fallScene","false","","","","","","",""
"","","","","","html-keyboard-response","128","2489934","0.0-13.0-9.0-1.1","67463b2b120657eb73598c91","67619bf32066d179f8b4b1ec","67894a76435c3cd1c8059ad1","passed","","241","","","","","","","","","","","","","","j","yesOrNo_prac","","","","2","","","gt","3000","","","","",""
"","","","","","html-keyboard-response","129","2491505","0.0-13.0-9.0-0.2","67463b2b120657eb73598c91","67619bf32066d179f8b4b1ec","67894a76435c3cd1c8059ad1","passed","","","","","","","","","","","","","","","","","ballFalling_prac","559","586","302","5","fallScene","false","","","","","","",""
"","","","","","html-keyboard-response","130","2491643","0.0-13.0-9.0-1.2","67463b2b120657eb73598c91","67619bf32066d179f8b4b1ec","67894a76435c3cd1c8059ad1","passed","","135","","","","","","","","","","","","","","j","yesOrNo_prac","","","","5","","","far gt","3000","","","","",""
"","","","","","instructions","131","2494007","0.0-14.0","67463b2b120657eb73598c91","67619bf32066d179f8b4b1ec","67894a76435c3cd1c8059ad1","passed","[{""page_index"":0,""viewing_time"":2362}]","2363","","","","","","","","","","","","","","","","","","","","","","","","","","","",""
"","","","","","html-keyboard-response","132","2495011","0.0-15.0","67463b2b120657eb73598c91","67619bf32066d179f8b4b1ec","67894a76435c3cd1c8059ad1","passed","","1003","","","","","","","","","","","","","<p><span style=""font-size:40px;"">BLOCK 1</span></p><p><span style=""font-size:25px;"">You have <strong>1 second(s)</strong> to respond to the following trials.</span><br></p><p></p> <!-- Blank line -->
                <p id=""blinking-text"" style=""font-weight; animation: blink 2s infinite;"">Press Space to continue</p>
                <style>
                    @keyframes blink {
                        50% {
                            opacity: 0;
                        }
                    }
                </style></p>"," ","","","","","","","","","","","","","",""
"","","","","","html-keyboard-response","133","2496565","0.0-16.0-0.0","67463b2b120657eb73598c91","67619bf32066d179f8b4b1ec","67894a76435c3cd1c8059ad1","passed","","","","","","","","","","","","","","","","","ballFalling","322.3","356.42114317029973","357.87","4","fallScene","false","","","","","1","",""
"","","","","","html-keyboard-response","134","2496869","0.0-16.0-1.0","67463b2b120657eb73598c91","67619bf32066d179f8b4b1ec","67894a76435c3cd1c8059ad1","passed","","301","","","","","","","","","","","","","","j","yesOrNo","","","","4","","","gt","1000","","","1","356.42114317029973","357.87"
"","","","","","html-keyboard-response","135","2498431","0.0-16.0-0.1","67463b2b120657eb73598c91","67619bf32066d179f8b4b1ec","67894a76435c3cd1c8059ad1","passed","","","","","","","","","","","","","","","","","ballFalling","322.3","379.3711431702997","245.25","1","fallScene","true","","","","","2","",""
"","","","","","html-keyboard-response","136","2498899","0.0-16.0-1.1","67463b2b120657eb73598c91","67619bf32066d179f8b4b1ec","67894a76435c3cd1c8059ad1","passed","","464","","","","","","","","","","","","","","j","yesOrNo","","","","1","","","gt","1000","","","2","379.3711431702997","245.25"
"","","","","","html-keyboard-response","137","2500478","0.0-16.0-0.2","67463b2b120657eb73598c91","67619bf32066d179f8b4b1ec","67894a76435c3cd1c8059ad1","passed","","","","","","","","","","","","","","","","","ballFalling","322.3","356.42114317029973","357.87","4","fallScene","true","","","","","3","",""
"","","","","","html-keyboard-response","138","2500784","0.0-16.0-1.2","67463b2b120657eb73598c91","67619bf32066d179f8b4b1ec","67894a76435c3cd1c8059ad1","passed","","304","","","","","","","","","","","","","","j","yesOrNo","","","","4","","","mid","1000","","","3","390.27114317029975","300"
"","","","","","html-keyboard-response","139","2502776","0.0-16.0-0.3","67463b2b120657eb73598c91","67619bf32066d179f8b4b1ec","67894a76435c3cd1c8059ad1","passed","","","","","","","","","","","","","","","","","ballFalling","500","510.8711431702997","369.03","8","fallScene","false","","","","","4","",""
"","","","","","html-keyboard-response","140","2502892","0.0-16.0-1.3","67463b2b120657eb73598c91","67619bf32066d179f8b4b1ec","67894a76435c3cd1c8059ad1","passed","","112","","","","","","","","","","","","","","j","yesOrNo","","","","8","","","lp","1000","","","4","501","151"
"","","","","","html-keyboard-response","141","2504373","0.0-16.0-0.4","67463b2b120657eb73598c91","67619bf32066d179f8b4b1ec","67894a76435c3cd1c8059ad1","passed","","","","","","","","","","","","","","","","","ballFalling","604.4000000000001","667.6211431702998","201.78","9","fallScene","true","","","","","5","",""
"","","","","","html-keyboard-response","142","2504674","0.0-16.0-1.4","67463b2b120657eb73598c91","67619bf32066d179f8b4b1ec","67894a76435c3cd1c8059ad1","passed","","298","","","","","","","","","","","","","","j","yesOrNo","","","","9","","","gt","1000","","","5","667.6211431702998","201.78"
"","","","","","html-keyboard-response","143","2506671","0.0-16.0-0.5","67463b2b120657eb73598c91","67619bf32066d179f8b4b1ec","67894a76435c3cd1c8059ad1","passed","","","","","","","","","","","","","","","","","ballFalling","500","510.8711431702997","369.03","8","fallScene","true","","","","","6","",""
"","","","","","html-keyboard-response","144","2507472","0.0-16.0-1.5","67463b2b120657eb73598c91","67619bf32066d179f8b4b1ec","67894a76435c3cd1c8059ad1","passed","","798","","","","","","","","","","","","","","j","yesOrNo","","","","8","","","mid","1000","","","6","501","300"
"","","","","","html-keyboard-response","145","2508952","0.0-16.0-0.6","67463b2b120657eb73598c91","67619bf32066d179f8b4b1ec","67894a76435c3cd1c8059ad1","passed","","","","","","","","","","","","","","","","","ballFalling","604.4000000000001","667.6211431702998","201.78","9","fallScene","true","","","","","7","",""
"","","","","","html-keyboard-response","146","2509646","0.0-16.0-1.6","67463b2b120657eb73598c91","67619bf32066d179f8b4b1ec","67894a76435c3cd1c8059ad1","passed","","692","","","","","","","","","","","","","","j","yesOrNo","","","","9","","","mid","1000","","","7","605.4000000000001","300"
"","","","","","html-keyboard-response","147","2511199","0.0-16.0-0.7","67463b2b120657eb73598c91","67619bf32066d179f8b4b1ec","67894a76435c3cd1c8059ad1","passed","","","","","","","","","","","","","","","","","ballFalling","604.4000000000001","575.4211431702997","266.76","12","fallScene","false","","","","","8","",""
"","","","","","html-keyboard-response","148","2512216","0.0-16.0-1.7","67463b2b120657eb73598c91","67619bf32066d179f8b4b1ec","67894a76435c3cd1c8059ad1","passed","","null","","","","","","","","","","","","","","null","yesOrNo","","","","12","","","lp","1000","","","8","603.4000000000001","151"
"","","","","","html-keyboard-response","149","2513780","0.0-16.0-0.8","67463b2b120657eb73598c91","67619bf32066d179f8b4b1ec","67894a76435c3cd1c8059ad1","passed","","","","","","","","","","","","","","","","","ballFalling","500","453.67114317029973","210.33","5","fallScene","true","","","","","9","",""
"","","","","","html-keyboard-response","150","2514138","0.0-16.0-1.8","67463b2b120657eb73598c91","67619bf32066d179f8b4b1ec","67894a76435c3cd1c8059ad1","passed","","356","","","","","","","","","","","","","","j","yesOrNo","","","","5","","","mid","1000","","","9","499","300"
"","","","","","html-keyboard-response","151","2515694","0.0-16.0-0.9","67463b2b120657eb73598c91","67619bf32066d179f8b4b1ec","67894a76435c3cd1c8059ad1","passed","","","","","","","","","","","","","","","","","ballFalling","604.4000000000001","650.0211431702996","404.58000000000004","11","fallScene","true","","","","","10","",""
"","","","","","html-keyboard-response","152","2516518","0.0-16.0-1.9","67463b2b120657eb73598c91","67619bf32066d179f8b4b1ec","67894a76435c3cd1c8059ad1","passed","","821","","","","","","","","","","","","","","j","yesOrNo","","","","11","","","mid","1000","","","10","605.4000000000001","300"
"","","","","","html-keyboard-response","153","2518076","0.0-16.0-0.10","67463b2b120657eb73598c91","67619bf32066d179f8b4b1ec","67894a76435c3cd1c8059ad1","passed","","","","","","","","","","","","","","","","","ballFalling","322.3","296.07114317029976","371.46","3","fallScene","true","","","","","11","",""
"","","","","","html-keyboard-response","154","2519017","0.0-16.0-1.10","67463b2b120657eb73598c91","67619bf32066d179f8b4b1ec","67894a76435c3cd1c8059ad1","passed","","938","","","","","","","","","","","","","","f","yesOrNo","","","","3","","","gt","1000","","","11","296.07114317029976","371.46"
"","","","","","html-keyboard-response","155","2520522","0.0-16.0-0.11","67463b2b120657eb73598c91","67619bf32066d179f8b4b1ec","67894a76435c3cd1c8059ad1","passed","","","","","","","","","","","","","","","","","ballFalling","604.4000000000001","667.6211431702998","201.78","9","fallScene","false","","","","","12","",""
"","","","","","html-keyboard-response","156","2521273","0.0-16.0-1.11","67463b2b120657eb73598c91","67619bf32066d179f8b4b1ec","67894a76435c3cd1c8059ad1","passed","","749","","","","","","","","","","","","","","f","yesOrNo","","","","9","","","mid","1000","","","12","605.4000000000001","300"
"","","","","","html-keyboard-response","157","2522836","0.0-16.0-0.12","67463b2b120657eb73598c91","67619bf32066d179f8b4b1ec","67894a76435c3cd1c8059ad1","passed","","","","","","","","","","","","","","","","","ballFalling","604.4000000000001","650.0211431702996","404.58000000000004","11","fallScene","true","","","","","13","",""
"","","","","","html-keyboard-response","158","2523439","0.0-16.0-1.12","67463b2b120657eb73598c91","67619bf32066d179f8b4b1ec","67894a76435c3cd1c8059ad1","passed","","601","","","","","","","","","","","","","","j","yesOrNo","","","","11","","","gt","1000","","","13","650.0211431702996","404.58"
"","","","","","html-keyboard-response","159","2525000","0.0-16.0-0.13","67463b2b120657eb73598c91","67619bf32066d179f8b4b1ec","67894a76435c3cd1c8059ad1","passed","","","","","","","","","","","","","","","","","ballFalling","604.4000000000001","575.4211431702997","266.76","12","fallScene","false","","","","","14","",""
"","","","","","html-keyboard-response","160","2525569","0.0-16.0-1.13","67463b2b120657eb73598c91","67619bf32066d179f8b4b1ec","67894a76435c3cd1c8059ad1","passed","","567","","","","","","","","","","","","","","j","yesOrNo","","","","12","","","gt","1000","","","14","575.4211431702997","266.76"
"","","","","","html-keyboard-response","161","2527132","0.0-16.0-0.14","67463b2b120657eb73598c91","67619bf32066d179f8b4b1ec","67894a76435c3cd1c8059ad1","passed","","","","","","","","","","","","","","","","","ballFalling","322.3","356.42114317029973","357.87","4","fallScene","true","","","","","15","",""
"","","","","","html-keyboard-response","162","2527870","0.0-16.0-1.14","67463b2b120657eb73598c91","67619bf32066d179f8b4b1ec","67894a76435c3cd1c8059ad1","passed","","735","","","","","","","","","","","","","","j","yesOrNo","","","","4","","","lp","1000","","","15","323.3","297.4070551689986"
"","","","","","html-keyboard-response","163","2529528","0.0-16.0-0.15","67463b2b120657eb73598c91","67619bf32066d179f8b4b1ec","67894a76435c3cd1c8059ad1","passed","","","","","","","","","","","","","","","","","ballFalling","500","479.92114317029973","330.87","6","fallScene","true","","","","","16","",""
"","","","","","html-keyboard-response","164","2529947","0.0-16.0-1.15","67463b2b120657eb73598c91","67619bf32066d179f8b4b1ec","67894a76435c3cd1c8059ad1","passed","","417","","","","","","","","","","","","","","j","yesOrNo","","","","6","","","lp","1000","","","16","499","189.92909825697632"
"","","","","","html-keyboard-response","165","2531609","0.0-16.0-0.16","67463b2b120657eb73598c91","67619bf32066d179f8b4b1ec","67894a76435c3cd1c8059ad1","passed","","","","","","","","","","","","","","","","","ballFalling","500","479.92114317029973","330.87","6","fallScene","false","","","","","17","",""
"","","","","","html-keyboard-response","166","2531993","0.0-16.0-1.16","67463b2b120657eb73598c91","67619bf32066d179f8b4b1ec","67894a76435c3cd1c8059ad1","passed","","381","","","","","","","","","","","","","","j","yesOrNo","","","","6","","","gt","1000","","","17","479.9211431702998","330.87"
"","","","","","html-keyboard-response","167","2533540","0.0-16.0-0.17","67463b2b120657eb73598c91","67619bf32066d179f8b4b1ec","67894a76435c3cd1c8059ad1","passed","","","","","","","","","","","","","","","","","ballFalling","322.3","379.3711431702997","245.25","1","fallScene","true","","","","","18","",""
"","","","","","html-keyboard-response","168","2533991","0.0-16.0-1.17","67463b2b120657eb73598c91","67619bf32066d179f8b4b1ec","67894a76435c3cd1c8059ad1","passed","","448","","","","","","","","","","","","","","j","yesOrNo","","","","1","","","lp","1000","","","18","323.3","217.74551669457017"
"","","","","","html-keyboard-response","169","2535971","0.0-16.0-0.18","67463b2b120657eb73598c91","67619bf32066d179f8b4b1ec","67894a76435c3cd1c8059ad1","passed","","","","","","","","","","","","","","","","","ballFalling","604.4000000000001","596.8711431702998","394.5","10","fallScene","false","","","","","19","",""
"","","","","","html-keyboard-response","170","2536362","0.0-16.0-1.18","67463b2b120657eb73598c91","67619bf32066d179f8b4b1ec","67894a76435c3cd1c8059ad1","passed","","389","","","","","","","","","","","","","","j","yesOrNo","","","","10","","","lp","1000","","","19","603.4000000000001","215.50214355555383"
"","","","","","html-keyboard-response","171","2537903","0.0-16.0-0.19","67463b2b120657eb73598c91","67619bf32066d179f8b4b1ec","67894a76435c3cd1c8059ad1","passed","","","","","","","","","","","","","","","","","ballFalling","604.4000000000001","575.4211431702997","266.76","12","fallScene","true","","","","","20","",""
"","","","","","html-keyboard-response","172","2538702","0.0-16.0-1.19","67463b2b120657eb73598c91","67619bf32066d179f8b4b1ec","67894a76435c3cd1c8059ad1","passed","","795","","","","","","","","","","","","","","f","yesOrNo","","","","12","","","mid","1000","","","20","536.4288568297004","300"
"","","","","","html-keyboard-response","173","2540249","0.0-16.0-0.20","67463b2b120657eb73598c91","67619bf32066d179f8b4b1ec","67894a76435c3cd1c8059ad1","passed","","","","","","","","","","","","","","","","","ballFalling","322.3","296.07114317029976","371.46","3","fallScene","true","","","","","21","",""
"","","","","","html-keyboard-response","174","2540558","0.0-16.0-1.20","67463b2b120657eb73598c91","67619bf32066d179f8b4b1ec","67894a76435c3cd1c8059ad1","passed","","306","","","","","","","","","","","","","","j","yesOrNo","","","","3","","","lp","1000","","","21","321.3","287.3327096511259"
"","","","","","html-keyboard-response","175","2542563","0.0-16.0-0.21","67463b2b120657eb73598c91","67619bf32066d179f8b4b1ec","67894a76435c3cd1c8059ad1","passed","","","","","","","","","","","","","","","","","ballFalling","604.4000000000001","596.8711431702998","394.5","10","fallScene","false","","","","","22","",""
"","","","","","html-keyboard-response","176","2542750","0.0-16.0-1.21","67463b2b120657eb73598c91","67619bf32066d179f8b4b1ec","67894a76435c3cd1c8059ad1","passed","","184","","","","","","","","","","","","","","j","yesOrNo","","","","10","","","lp","1000","","","22","603.4000000000001","215.50214355555383"
"","","","","","html-keyboard-response","177","2544761","0.0-16.0-0.22","67463b2b120657eb73598c91","67619bf32066d179f8b4b1ec","67894a76435c3cd1c8059ad1","passed","","","","","","","","","","","","","","","","","ballFalling","500","510.8711431702997","369.03","8","fallScene","true","","","","","23","",""
"","","","","","html-keyboard-response","178","2545013","0.0-16.0-1.22","67463b2b120657eb73598c91","67619bf32066d179f8b4b1ec","67894a76435c3cd1c8059ad1","passed","","250","","","","","","","","","","","","","","j","yesOrNo","","","","8","","","gt","1000","","","23","510.8711431702997","369.03"
"","","","","","html-keyboard-response","179","2546659","0.0-16.0-0.23","67463b2b120657eb73598c91","67619bf32066d179f8b4b1ec","67894a76435c3cd1c8059ad1","passed","","","","","","","","","","","","","","","","","ballFalling","500","479.92114317029973","330.87","6","fallScene","true","","","","","24","",""
"","","","","","html-keyboard-response","180","2547014","0.0-16.0-1.23","67463b2b120657eb73598c91","67619bf32066d179f8b4b1ec","67894a76435c3cd1c8059ad1","passed","","353","","","","","","","","","","","","","","j","yesOrNo","","","","6","","","lp","1000","","","24","499","189.92909825697632"
"","","","","","html-keyboard-response","181","2548889","0.0-17.0","67463b2b120657eb73598c91","67619bf32066d179f8b4b1ec","67894a76435c3cd1c8059ad1","passed","","1874","","","","","","","","","","","","","<p><span style=""font-size:40px;"">BLOCK 2</span></p><p><span style=""font-size:25px;"">You have <strong>3 second(s)</strong> to respond to the following trials.</span><br></p><p></p> <!-- Blank line -->
                <p id=""blinking-text"" style=""font-weight; animation: blink 2s infinite;"">Press Space to continue</p>
                <style>
                    @keyframes blink {
                        50% {
                            opacity: 0;
                        }
                    }
                </style></p>"," ","","","","","","","","","","","","","",""
"","","","","","html-keyboard-response","182","2550437","0.0-18.0-0.0","67463b2b120657eb73598c91","67619bf32066d179f8b4b1ec","67894a76435c3cd1c8059ad1","passed","","","","","","","","","","","","","","","","","ballFalling","604.4000000000001","575.4211431702997","266.76","12","fallScene","false","","","","","25","",""
"","","","","","html-keyboard-response","183","2550756","0.0-18.0-1.0","67463b2b120657eb73598c91","67619bf32066d179f8b4b1ec","67894a76435c3cd1c8059ad1","passed","","316","","","","","","","","","","","","","","j","yesOrNo","","","","12","","","mid","3000","","","25","536.4288568297004","300"
"","","","","","html-keyboard-response","184","2552303","0.0-18.0-0.1","67463b2b120657eb73598c91","67619bf32066d179f8b4b1ec","67894a76435c3cd1c8059ad1","passed","","","","","","","","","","","","","","","","","ballFalling","604.4000000000001","650.0211431702996","404.58000000000004","11","fallScene","true","","","","","26","",""
"","","","","","html-keyboard-response","185","2552554","0.0-18.0-1.1","67463b2b120657eb73598c91","67619bf32066d179f8b4b1ec","67894a76435c3cd1c8059ad1","passed","","248","","","","","","","","","","","","","","j","yesOrNo","","","","11","","","gt","3000","","","26","650.0211431702996","404.58"
"","","","","","html-keyboard-response","186","2554100","0.0-18.0-0.2","67463b2b120657eb73598c91","67619bf32066d179f8b4b1ec","67894a76435c3cd1c8059ad1","passed","","","","","","","","","","","","","","","","","ballFalling","322.3","296.07114317029976","371.46","3","fallScene","false","","","","","27","",""
"","","","","","html-keyboard-response","187","2554266","0.0-18.0-1.2","67463b2b120657eb73598c91","67619bf32066d179f8b4b1ec","67894a76435c3cd1c8059ad1","passed","","163","","","","","","","","","","","","","","j","yesOrNo","","","","3","","","lp","3000","","","27","321.3","287.3327096511259"
"","","","","","html-keyboard-response","188","2555815","0.0-18.0-0.3","67463b2b120657eb73598c91","67619bf32066d179f8b4b1ec","67894a76435c3cd1c8059ad1","passed","","","","","","","","","","","","","","","","","ballFalling","604.4000000000001","575.4211431702997","266.76","12","fallScene","true","","","","","28","",""
"","","","","","html-keyboard-response","189","2555868","0.0-18.0-1.3","67463b2b120657eb73598c91","67619bf32066d179f8b4b1ec","67894a76435c3cd1c8059ad1","passed","","51","","","","","","","","","","","","","","j","yesOrNo","","","","12","","","lp","3000","","","28","603.4000000000001","151"
"","","","","","html-keyboard-response","190","2557446","0.0-18.0-0.4","67463b2b120657eb73598c91","67619bf32066d179f8b4b1ec","67894a76435c3cd1c8059ad1","passed","","","","","","","","","","","","","","","","","ballFalling","500","453.67114317029973","210.33","5","fallScene","false","","","","","29","",""
"","","","","","html-keyboard-response","191","2557648","0.0-18.0-1.4","67463b2b120657eb73598c91","67619bf32066d179f8b4b1ec","67894a76435c3cd1c8059ad1","passed","","199","","","","","","","","","","","","","","j","yesOrNo","","","","5","","","mid","3000","","","29","499","300"
"","","","","","html-keyboard-response","192","2559211","0.0-18.0-0.5","67463b2b120657eb73598c91","67619bf32066d179f8b4b1ec","67894a76435c3cd1c8059ad1","passed","","","","","","","","","","","","","","","","","ballFalling","322.3","379.3711431702997","245.25","1","fallScene","false","","","","","30","",""
"","","","","","html-keyboard-response","193","2559519","0.0-18.0-1.5","67463b2b120657eb73598c91","67619bf32066d179f8b4b1ec","67894a76435c3cd1c8059ad1","passed","","306","","","","","","","","","","","","","","j","yesOrNo","","","","1","","","gt","3000","","","30","379.3711431702997","245.25"
"","","","","","html-keyboard-response","194","2561175","0.0-18.0-0.6","67463b2b120657eb73598c91","67619bf32066d179f8b4b1ec","67894a76435c3cd1c8059ad1","passed","","","","","","","","","","","","","","","","","ballFalling","500","479.92114317029973","330.87","6","fallScene","false","","","","","31","",""
"","","","","","html-keyboard-response","195","2561784","0.0-18.0-1.6","67463b2b120657eb73598c91","67619bf32066d179f8b4b1ec","67894a76435c3cd1c8059ad1","passed","","606","","","","","","","","","","","","","","j","yesOrNo","","","","6","","","mid","3000","","","31","499","300"
"","","","","","html-keyboard-response","196","2563339","0.0-18.0-0.7","67463b2b120657eb73598c91","67619bf32066d179f8b4b1ec","67894a76435c3cd1c8059ad1","passed","","","","","","","","","","","","","","","","","ballFalling","322.3","379.3711431702997","245.25","1","fallScene","true","","","","","32","",""
"","","","","","html-keyboard-response","197","2563875","0.0-18.0-1.7","67463b2b120657eb73598c91","67619bf32066d179f8b4b1ec","67894a76435c3cd1c8059ad1","passed","","533","","","","","","","","","","","","","","j","yesOrNo","","","","1","","","gt","3000","","","32","379.3711431702997","245.25"
"","","","","","html-keyboard-response","198","2565670","0.0-18.0-0.8","67463b2b120657eb73598c91","67619bf32066d179f8b4b1ec","67894a76435c3cd1c8059ad1","passed","","","","","","","","","","","","","","","","","ballFalling","322.3","308.07114317029976","253.89","2","fallScene","false","","","","","33","",""
"","","","","","html-keyboard-response","199","2566469","0.0-18.0-1.8","67463b2b120657eb73598c91","67619bf32066d179f8b4b1ec","67894a76435c3cd1c8059ad1","passed","","796","","","","","","","","","","","","","","j","yesOrNo","","","","2","","","mid","3000","","","33","321.3","300"
"","","","","","html-keyboard-response","200","2568017","0.0-18.0-0.9","67463b2b120657eb73598c91","67619bf32066d179f8b4b1ec","67894a76435c3cd1c8059ad1","passed","","","","","","","","","","","","","","","","","ballFalling","604.4000000000001","650.0211431702996","404.58000000000004","11","fallScene","true","","","","","34","",""
"","","","","","html-keyboard-response","201","2568489","0.0-18.0-1.9","67463b2b120657eb73598c91","67619bf32066d179f8b4b1ec","67894a76435c3cd1c8059ad1","passed","","469","","","","","","","","","","","","","","j","yesOrNo","","","","11","","","gt","3000","","","34","650.0211431702996","404.58"
"","","","","","html-keyboard-response","202","2570048","0.0-18.0-0.10","67463b2b120657eb73598c91","67619bf32066d179f8b4b1ec","67894a76435c3cd1c8059ad1","passed","","","","","","","","","","","","","","","","","ballFalling","322.3","356.42114317029973","357.87","4","fallScene","false","","","","","35","",""
"","","","","","html-keyboard-response","203","2570684","0.0-18.0-1.10","67463b2b120657eb73598c91","67619bf32066d179f8b4b1ec","67894a76435c3cd1c8059ad1","passed","","633","","","","","","","","","","","","","","j","yesOrNo","","","","4","","","gt","3000","","","35","356.42114317029973","357.87"
"","","","","","html-keyboard-response","204","2572345","0.0-18.0-0.11","67463b2b120657eb73598c91","67619bf32066d179f8b4b1ec","67894a76435c3cd1c8059ad1","passed","","","","","","","","","","","","","","","","","ballFalling","500","479.92114317029973","330.87","6","fallScene","true","","","","","36","",""
"","","","","","html-keyboard-response","205","2573164","0.0-18.0-1.11","67463b2b120657eb73598c91","67619bf32066d179f8b4b1ec","67894a76435c3cd1c8059ad1","passed","","816","","","","","","","","","","","","","","j","yesOrNo","","","","6","","","lp","3000","","","36","499","189.92909825697632"
"","","","","","html-keyboard-response","206","2574660","0.0-18.0-0.12","67463b2b120657eb73598c91","67619bf32066d179f8b4b1ec","67894a76435c3cd1c8059ad1","passed","","","","","","","","","","","","","","","","","ballFalling","604.4000000000001","667.6211431702998","201.78","9","fallScene","false","","","","","37","",""
"","","","","","html-keyboard-response","207","2575525","0.0-18.0-1.12","67463b2b120657eb73598c91","67619bf32066d179f8b4b1ec","67894a76435c3cd1c8059ad1","passed","","863","","","","","","","","","","","","","","j","yesOrNo","","","","9","","","lp","3000","","","37","605.4000000000001","151"
"","","","","","html-keyboard-response","208","2577007","0.0-18.0-0.13","67463b2b120657eb73598c91","67619bf32066d179f8b4b1ec","67894a76435c3cd1c8059ad1","passed","","","","","","","","","","","","","","","","","ballFalling","604.4000000000001","667.6211431702998","201.78","9","fallScene","true","","","","","38","",""
"","","","","","html-keyboard-response","209","2577630","0.0-18.0-1.13","67463b2b120657eb73598c91","67619bf32066d179f8b4b1ec","67894a76435c3cd1c8059ad1","passed","","620","","","","","","","","","","","","","","f","yesOrNo","","","","9","","","mid","3000","","","38","605.4000000000001","300"
"","","","","","html-keyboard-response","210","2579421","0.0-18.0-0.14","67463b2b120657eb73598c91","67619bf32066d179f8b4b1ec","67894a76435c3cd1c8059ad1","passed","","","","","","","","","","","","","","","","","ballFalling","322.3","308.07114317029976","253.89","2","fallScene","true","","","","","39","",""
"","","","","","html-keyboard-response","211","2580522","0.0-18.0-1.14","67463b2b120657eb73598c91","67619bf32066d179f8b4b1ec","67894a76435c3cd1c8059ad1","passed","","1098","","","","","","","","","","","","","","j","yesOrNo","","","","2","","","lp","3000","","","39","321.3","151"
"","","","","","html-keyboard-response","212","2582085","0.0-18.0-0.15","67463b2b120657eb73598c91","67619bf32066d179f8b4b1ec","67894a76435c3cd1c8059ad1","passed","","","","","","","","","","","","","","","","","ballFalling","322.3","379.3711431702997","245.25","1","fallScene","false","","","","","40","",""
"","","","","","html-keyboard-response","213","2582573","0.0-18.0-1.15","67463b2b120657eb73598c91","67619bf32066d179f8b4b1ec","67894a76435c3cd1c8059ad1","passed","","485","","","","","","","","","","","","","","j","yesOrNo","","","","1","","","mid","3000","","","40","390.27114317029975","300"
"","","","","","html-keyboard-response","214","2584132","0.0-18.0-0.16","67463b2b120657eb73598c91","67619bf32066d179f8b4b1ec","67894a76435c3cd1c8059ad1","passed","","","","","","","","","","","","","","","","","ballFalling","604.4000000000001","575.4211431702997","266.76","12","fallScene","true","","","","","41","",""
"","","","","","html-keyboard-response","215","2584539","0.0-18.0-1.16","67463b2b120657eb73598c91","67619bf32066d179f8b4b1ec","67894a76435c3cd1c8059ad1","passed","","404","","","","","","","","","","","","","","j","yesOrNo","","","","12","","","mid","3000","","","41","536.4288568297004","300"
"","","","","","html-keyboard-response","216","2586097","0.0-18.0-0.17","67463b2b120657eb73598c91","67619bf32066d179f8b4b1ec","67894a76435c3cd1c8059ad1","passed","","","","","","","","","","","","","","","","","ballFalling","322.3","296.07114317029976","371.46","3","fallScene","false","","","","","42","",""
"","","","","","html-keyboard-response","217","2586838","0.0-18.0-1.17","67463b2b120657eb73598c91","67619bf32066d179f8b4b1ec","67894a76435c3cd1c8059ad1","passed","","738","","","","","","","","","","","","","","j","yesOrNo","","","","3","","","mid","3000","","","42","321.3","300"
"","","","","","html-keyboard-response","218","2588844","0.0-18.0-0.18","67463b2b120657eb73598c91","67619bf32066d179f8b4b1ec","67894a76435c3cd1c8059ad1","passed","","","","","","","","","","","","","","","","","ballFalling","500","510.8711431702997","369.03","8","fallScene","true","","","","","43","",""
"","","","","","html-keyboard-response","219","2589580","0.0-18.0-1.18","67463b2b120657eb73598c91","67619bf32066d179f8b4b1ec","67894a76435c3cd1c8059ad1","passed","","733","","","","","","","","","","","","","","f","yesOrNo","","","","8","","","mid","3000","","","43","501","300"
"","","","","","html-keyboard-response","220","2591374","0.0-18.0-0.19","67463b2b120657eb73598c91","67619bf32066d179f8b4b1ec","67894a76435c3cd1c8059ad1","passed","","","","","","","","","","","","","","","","","ballFalling","322.3","308.07114317029976","253.89","2","fallScene","true","","","","","44","",""
"","","","","","html-keyboard-response","221","2592079","0.0-18.0-1.19","67463b2b120657eb73598c91","67619bf32066d179f8b4b1ec","67894a76435c3cd1c8059ad1","passed","","702","","","","","","","","","","","","","","j","yesOrNo","","","","2","","","mid","3000","","","44","321.3","300"
"","","","","","html-keyboard-response","222","2593638","0.0-18.0-0.20","67463b2b120657eb73598c91","67619bf32066d179f8b4b1ec","67894a76435c3cd1c8059ad1","passed","","","","","","","","","","","","","","","","","ballFalling","322.3","356.42114317029973","357.87","4","fallScene","false","","","","","45","",""
"","","","","","html-keyboard-response","223","2594440","0.0-18.0-1.20","67463b2b120657eb73598c91","67619bf32066d179f8b4b1ec","67894a76435c3cd1c8059ad1","passed","","799","","","","","","","","","","","","","","j","yesOrNo","","","","4","","","gt","3000","","","45","356.42114317029973","357.87"
"","","","","","html-keyboard-response","224","2596019","0.0-18.0-0.21","67463b2b120657eb73598c91","67619bf32066d179f8b4b1ec","67894a76435c3cd1c8059ad1","passed","","","","","","","","","","","","","","","","","ballFalling","500","553.4711431702997","282.51","7","fallScene","false","","","","","46","",""
"","","","","","html-keyboard-response","225","2596168","0.0-18.0-1.21","67463b2b120657eb73598c91","67619bf32066d179f8b4b1ec","67894a76435c3cd1c8059ad1","passed","","147","","","","","","","","","","","","","","j","yesOrNo","","","","7","","","lp","3000","","","46","501","227.2843295913261"
"","","","","","html-keyboard-response","226","2598167","0.0-18.0-0.22","67463b2b120657eb73598c91","67619bf32066d179f8b4b1ec","67894a76435c3cd1c8059ad1","passed","","","","","","","","","","","","","","","","","ballFalling","604.4000000000001","596.8711431702998","394.5","10","fallScene","true","","","","","47","",""
"","","","","","html-keyboard-response","227","2598670","0.0-18.0-1.22","67463b2b120657eb73598c91","67619bf32066d179f8b4b1ec","67894a76435c3cd1c8059ad1","passed","","501","","","","","","","","","","","","","","j","yesOrNo","","","","10","","","mid","3000","","","47","536.4288568297004","300"
"","","","","","html-keyboard-response","228","2600680","0.0-18.0-0.23","67463b2b120657eb73598c91","67619bf32066d179f8b4b1ec","67894a76435c3cd1c8059ad1","passed","","","","","","","","","","","","","","","","","ballFalling","500","510.8711431702997","369.03","8","fallScene","true","","","","","48","",""
"","","","","","html-keyboard-response","229","2600731","0.0-18.0-1.23","67463b2b120657eb73598c91","67619bf32066d179f8b4b1ec","67894a76435c3cd1c8059ad1","passed","","48","","","","","","","","","","","","","","j","yesOrNo","","","","8","","","gt","3000","","","48","510.8711431702997","369.03"
"","","","","","html-keyboard-response","230","2602201","0.0-19.0","67463b2b120657eb73598c91","67619bf32066d179f8b4b1ec","67894a76435c3cd1c8059ad1","passed","","1469","","","","","","","","","","","","","<p><span style=""font-size:40px;"">BLOCK 3</span></p><p><span style=""font-size:25px;"">You have <strong>3 second(s)</strong> to respond to the following trials.</span><br></p><p></p> <!-- Blank line -->
                <p id=""blinking-text"" style=""font-weight; animation: blink 2s infinite;"">Press Space to continue</p>
                <style>
                    @keyframes blink {
                        50% {
                            opacity: 0;
                        }
                    }
                </style></p>"," ","","","","","","","","","","","","","",""
"","","","","","html-keyboard-response","231","2603760","0.0-20.0-0.0","67463b2b120657eb73598c91","67619bf32066d179f8b4b1ec","67894a76435c3cd1c8059ad1","passed","","","","","","","","","","","","","","","","","ballFalling","604.4000000000001","575.4211431702997","266.76","12","fallScene","true","","","","","49","",""
"","","","","","html-keyboard-response","232","2604078","0.0-20.0-1.0","67463b2b120657eb73598c91","67619bf32066d179f8b4b1ec","67894a76435c3cd1c8059ad1","passed","","315","","","","","","","","","","","","","","j","yesOrNo","","","","12","","","lp","3000","","","49","603.4000000000001","151"
"","","","","","html-keyboard-response","233","2605625","0.0-20.0-0.1","67463b2b120657eb73598c91","67619bf32066d179f8b4b1ec","67894a76435c3cd1c8059ad1","passed","","","","","","","","","","","","","","","","","ballFalling","604.4000000000001","650.0211431702996","404.58000000000004","11","fallScene","false","","","","","50","",""
"","","","","","html-keyboard-response","234","2605958","0.0-20.0-1.1","67463b2b120657eb73598c91","67619bf32066d179f8b4b1ec","67894a76435c3cd1c8059ad1","passed","","331","","","","","","","","","","","","","","j","yesOrNo","","","","11","","","lp","3000","","","50","605.4000000000001","372.6340973215488"
"","","","","","html-keyboard-response","235","2607489","0.0-20.0-0.2","67463b2b120657eb73598c91","67619bf32066d179f8b4b1ec","67894a76435c3cd1c8059ad1","passed","","","","","","","","","","","","","","","","","ballFalling","604.4000000000001","650.0211431702996","404.58000000000004","11","fallScene","false","","","","","51","",""
"","","","","","html-keyboard-response","236","2607781","0.0-20.0-1.2","67463b2b120657eb73598c91","67619bf32066d179f8b4b1ec","67894a76435c3cd1c8059ad1","passed","","290","","","","","","","","","","","","","","j","yesOrNo","","","","11","","","lp","3000","","","51","605.4000000000001","372.6340973215488"
"","","","","","html-keyboard-response","237","2609337","0.0-20.0-0.3","67463b2b120657eb73598c91","67619bf32066d179f8b4b1ec","67894a76435c3cd1c8059ad1","passed","","","","","","","","","","","","","","","","","ballFalling","322.3","296.07114317029976","371.46","3","fallScene","true","","","","","52","",""
"","","","","","html-keyboard-response","238","2609606","0.0-20.0-1.3","67463b2b120657eb73598c91","67619bf32066d179f8b4b1ec","67894a76435c3cd1c8059ad1","passed","","266","","","","","","","","","","","","","","j","yesOrNo","","","","3","","","lp","3000","","","52","321.3","287.3327096511259"
"","","","","","html-keyboard-response","239","2611185","0.0-20.0-0.4","67463b2b120657eb73598c91","67619bf32066d179f8b4b1ec","67894a76435c3cd1c8059ad1","passed","","","","","","","","","","","","","","","","","ballFalling","500","553.4711431702997","282.51","7","fallScene","false","","","","","53","",""
"","","","","","html-keyboard-response","240","2611341","0.0-20.0-1.4","67463b2b120657eb73598c91","67619bf32066d179f8b4b1ec","67894a76435c3cd1c8059ad1","passed","","153","","","","","","","","","","","","","","f","yesOrNo","","","","7","","","gt","3000","","","53","553.4711431702997","282.51"
"","","","","","html-keyboard-response","241","2612900","0.0-20.0-0.5","67463b2b120657eb73598c91","67619bf32066d179f8b4b1ec","67894a76435c3cd1c8059ad1","passed","","","","","","","","","","","","","","","","","ballFalling","500","453.67114317029973","210.33","5","fallScene","true","","","","","54","",""
"","","","","","html-keyboard-response","242","2612918","0.0-20.0-1.5","67463b2b120657eb73598c91","67619bf32066d179f8b4b1ec","67894a76435c3cd1c8059ad1","passed","","15","","","","","","","","","","","","","","f","yesOrNo","","","","5","","","lp","3000","","","54","499","151"
"","","","","","html-keyboard-response","243","2614914","0.0-20.0-0.6","67463b2b120657eb73598c91","67619bf32066d179f8b4b1ec","67894a76435c3cd1c8059ad1","passed","","","","","","","","","","","","","","","","","ballFalling","604.4000000000001","596.8711431702998","394.5","10","fallScene","true","","","","","55","",""
"","","","","","html-keyboard-response","244","2615217","0.0-20.0-1.6","67463b2b120657eb73598c91","67619bf32066d179f8b4b1ec","67894a76435c3cd1c8059ad1","passed","","300","","","","","","","","","","","","","","j","yesOrNo","","","","10","","","gt","3000","","","55","596.8711431702998","394.5"
"","","","","","html-keyboard-response","245","2616761","0.0-20.0-0.7","67463b2b120657eb73598c91","67619bf32066d179f8b4b1ec","67894a76435c3cd1c8059ad1","passed","","","","","","","","","","","","","","","","","ballFalling","604.4000000000001","650.0211431702996","404.58000000000004","11","fallScene","false","","","","","56","",""
"","","","","","html-keyboard-response","246","2617005","0.0-20.0-1.7","67463b2b120657eb73598c91","67619bf32066d179f8b4b1ec","67894a76435c3cd1c8059ad1","passed","","240","","","","","","","","","","","","","","j","yesOrNo","","","","11","","","mid","3000","","","56","605.4000000000001","300"
"","","","","","html-keyboard-response","247","2619010","0.0-20.0-0.8","67463b2b120657eb73598c91","67619bf32066d179f8b4b1ec","67894a76435c3cd1c8059ad1","passed","","","","","","","","","","","","","","","","","ballFalling","500","510.8711431702997","369.03","8","fallScene","false","","","","","57","",""
"","","","","","html-keyboard-response","248","2619515","0.0-20.0-1.8","67463b2b120657eb73598c91","67619bf32066d179f8b4b1ec","67894a76435c3cd1c8059ad1","passed","","500","","","","","","","","","","","","","","j","yesOrNo","","","","8","","","lp","3000","","","57","501","151"
"","","","","","html-keyboard-response","249","2621074","0.0-20.0-0.9","67463b2b120657eb73598c91","67619bf32066d179f8b4b1ec","67894a76435c3cd1c8059ad1","passed","","","","","","","","","","","","","","","","","ballFalling","322.3","379.3711431702997","245.25","1","fallScene","false","","","","","58","",""
"","","","","","html-keyboard-response","250","2621444","0.0-20.0-1.9","67463b2b120657eb73598c91","67619bf32066d179f8b4b1ec","67894a76435c3cd1c8059ad1","passed","","367","","","","","","","","","","","","","","j","yesOrNo","","","","1","","","lp","3000","","","58","323.3","217.74551669457017"
"","","","","","html-keyboard-response","251","2623006","0.0-20.0-0.10","67463b2b120657eb73598c91","67619bf32066d179f8b4b1ec","67894a76435c3cd1c8059ad1","passed","","","","","","","","","","","","","","","","","ballFalling","322.3","379.3711431702997","245.25","1","fallScene","false","","","","","59","",""
"","","","","","html-keyboard-response","252","2623373","0.0-20.0-1.10","67463b2b120657eb73598c91","67619bf32066d179f8b4b1ec","67894a76435c3cd1c8059ad1","passed","","365","","","","","","","","","","","","","","j","yesOrNo","","","","1","","","lp","3000","","","59","323.3","217.74551669457017"
"","","","","","html-keyboard-response","253","2624937","0.0-20.0-0.11","67463b2b120657eb73598c91","67619bf32066d179f8b4b1ec","67894a76435c3cd1c8059ad1","passed","","","","","","","","","","","","","","","","","ballFalling","322.3","356.42114317029973","357.87","4","fallScene","false","","","","","60","",""
"","","","","","html-keyboard-response","254","2625331","0.0-20.0-1.11","67463b2b120657eb73598c91","67619bf32066d179f8b4b1ec","67894a76435c3cd1c8059ad1","passed","","391","","","","","","","","","","","","","","j","yesOrNo","","","","4","","","lp","3000","","","60","323.3","297.4070551689986"
"","","","","","html-keyboard-response","255","2627333","0.0-20.0-0.12","67463b2b120657eb73598c91","67619bf32066d179f8b4b1ec","67894a76435c3cd1c8059ad1","passed","","","","","","","","","","","","","","","","","ballFalling","604.4000000000001","596.8711431702998","394.5","10","fallScene","false","","","","","61","",""
"","","","","","html-keyboard-response","256","2627700","0.0-20.0-1.12","67463b2b120657eb73598c91","67619bf32066d179f8b4b1ec","67894a76435c3cd1c8059ad1","passed","","364","","","","","","","","","","","","","","j","yesOrNo","","","","10","","","mid","3000","","","61","536.4288568297004","300"
"","","","","","html-keyboard-response","257","2629695","0.0-20.0-0.13","67463b2b120657eb73598c91","67619bf32066d179f8b4b1ec","67894a76435c3cd1c8059ad1","passed","","","","","","","","","","","","","","","","","ballFalling","500","510.8711431702997","369.03","8","fallScene","false","","","","","62","",""
"","","","","","html-keyboard-response","258","2629955","0.0-20.0-1.13","67463b2b120657eb73598c91","67619bf32066d179f8b4b1ec","67894a76435c3cd1c8059ad1","passed","","256","","","","","","","","","","","","","","j","yesOrNo","","","","8","","","mid","3000","","","62","501","300"
"","","","","","html-keyboard-response","259","2631745","0.0-20.0-0.14","67463b2b120657eb73598c91","67619bf32066d179f8b4b1ec","67894a76435c3cd1c8059ad1","passed","","","","","","","","","","","","","","","","","ballFalling","322.3","308.07114317029976","253.89","2","fallScene","true","","","","","63","",""
"","","","","","html-keyboard-response","260","2632231","0.0-20.0-1.14","67463b2b120657eb73598c91","67619bf32066d179f8b4b1ec","67894a76435c3cd1c8059ad1","passed","","482","","","","","","","","","","","","","","j","yesOrNo","","","","2","","","gt","3000","","","63","308.07114317029976","253.89"
"","","","","","html-keyboard-response","261","2633893","0.0-20.0-0.15","67463b2b120657eb73598c91","67619bf32066d179f8b4b1ec","67894a76435c3cd1c8059ad1","passed","","","","","","","","","","","","","","","","","ballFalling","500","479.92114317029973","330.87","6","fallScene","false","","","","","64","",""
"","","","","","html-keyboard-response","262","2634243","0.0-20.0-1.15","67463b2b120657eb73598c91","67619bf32066d179f8b4b1ec","67894a76435c3cd1c8059ad1","passed","","347","","","","","","","","","","","","","","j","yesOrNo","","","","6","","","gt","3000","","","64","479.9211431702998","330.87"
"","","","","","html-keyboard-response","263","2635791","0.0-20.0-0.16","67463b2b120657eb73598c91","67619bf32066d179f8b4b1ec","67894a76435c3cd1c8059ad1","passed","","","","","","","","","","","","","","","","","ballFalling","604.4000000000001","575.4211431702997","266.76","12","fallScene","false","","","","","65","",""
"","","","","","html-keyboard-response","264","2636218","0.0-20.0-1.16","67463b2b120657eb73598c91","67619bf32066d179f8b4b1ec","67894a76435c3cd1c8059ad1","passed","","425","","","","","","","","","","","","","","f","yesOrNo","","","","12","","","gt","3000","","","65","575.4211431702997","266.76"
"","","","","","html-keyboard-response","265","2637772","0.0-20.0-0.17","67463b2b120657eb73598c91","67619bf32066d179f8b4b1ec","67894a76435c3cd1c8059ad1","passed","","","","","","","","","","","","","","","","","ballFalling","604.4000000000001","650.0211431702996","404.58000000000004","11","fallScene","true","","","","","66","",""
"","","","","","html-keyboard-response","266","2638339","0.0-20.0-1.17","67463b2b120657eb73598c91","67619bf32066d179f8b4b1ec","67894a76435c3cd1c8059ad1","passed","","565","","","","","","","","","","","","","","f","yesOrNo","","","","11","","","mid","3000","","","66","605.4000000000001","300"
"","","","","","html-keyboard-response","267","2640120","0.0-20.0-0.18","67463b2b120657eb73598c91","67619bf32066d179f8b4b1ec","67894a76435c3cd1c8059ad1","passed","","","","","","","","","","","","","","","","","ballFalling","322.3","308.07114317029976","253.89","2","fallScene","true","","","","","67","",""
"","","","","","html-keyboard-response","268","2640355","0.0-20.0-1.18","67463b2b120657eb73598c91","67619bf32066d179f8b4b1ec","67894a76435c3cd1c8059ad1","passed","","232","","","","","","","","","","","","","","j","yesOrNo","","","","2","","","lp","3000","","","67","321.3","151"
"","","","","","html-keyboard-response","269","2641933","0.0-20.0-0.19","67463b2b120657eb73598c91","67619bf32066d179f8b4b1ec","67894a76435c3cd1c8059ad1","passed","","","","","","","","","","","","","","","","","ballFalling","500","553.4711431702997","282.51","7","fallScene","true","","","","","68","",""
"","","","","","html-keyboard-response","270","2642234","0.0-20.0-1.19","67463b2b120657eb73598c91","67619bf32066d179f8b4b1ec","67894a76435c3cd1c8059ad1","passed","","298","","","","","","","","","","","","","","j","yesOrNo","","","","7","","","lp","3000","","","68","501","227.2843295913261"
"","","","","","html-keyboard-response","271","2643781","0.0-20.0-0.20","67463b2b120657eb73598c91","67619bf32066d179f8b4b1ec","67894a76435c3cd1c8059ad1","passed","","","","","","","","","","","","","","","","","ballFalling","322.3","379.3711431702997","245.25","1","fallScene","true","","","","","69","",""
"","","","","","html-keyboard-response","272","2644789","0.0-20.0-1.20","67463b2b120657eb73598c91","67619bf32066d179f8b4b1ec","67894a76435c3cd1c8059ad1","passed","","1005","","","","","","","","","","","","","","f","yesOrNo","","","","1","","","mid","3000","","","69","390.27114317029975","300"
"","","","","","html-keyboard-response","273","2646279","0.0-20.0-0.21","67463b2b120657eb73598c91","67619bf32066d179f8b4b1ec","67894a76435c3cd1c8059ad1","passed","","","","","","","","","","","","","","","","","ballFalling","604.4000000000001","667.6211431702998","201.78","9","fallScene","true","","","","","70","",""
"","","","","","html-keyboard-response","274","2646970","0.0-20.0-1.21","67463b2b120657eb73598c91","67619bf32066d179f8b4b1ec","67894a76435c3cd1c8059ad1","passed","","689","","","","","","","","","","","","","","j","yesOrNo","","","","9","","","gt","3000","","","70","667.6211431702998","201.78"
"","","","","","html-keyboard-response","275","2648975","0.0-20.0-0.22","67463b2b120657eb73598c91","67619bf32066d179f8b4b1ec","67894a76435c3cd1c8059ad1","passed","","","","","","","","","","","","","","","","","ballFalling","500","510.8711431702997","369.03","8","fallScene","true","","","","","71","",""
"","","","","","html-keyboard-response","276","2649661","0.0-20.0-1.22","67463b2b120657eb73598c91","67619bf32066d179f8b4b1ec","67894a76435c3cd1c8059ad1","passed","","683","","","","","","","","","","","","","","f","yesOrNo","","","","8","","","lp","3000","","","71","501","151"
"","","","","","html-keyboard-response","277","2651323","0.0-20.0-0.23","67463b2b120657eb73598c91","67619bf32066d179f8b4b1ec","67894a76435c3cd1c8059ad1","passed","","","","","","","","","","","","","","","","","ballFalling","500","479.92114317029973","330.87","6","fallScene","false","","","","","72","",""
"","","","","","html-keyboard-response","278","2651923","0.0-20.0-1.23","67463b2b120657eb73598c91","67619bf32066d179f8b4b1ec","67894a76435c3cd1c8059ad1","passed","","597","","","","","","","","","","","","","","j","yesOrNo","","","","6","","","gt","3000","","","72","479.9211431702998","330.87"
"","","","","","html-keyboard-response","279","2652903","0.0-21.0","67463b2b120657eb73598c91","67619bf32066d179f8b4b1ec","67894a76435c3cd1c8059ad1","passed","","979","","","","","","","","","","","","","<p><span style=""font-size:40px;"">BLOCK 4</span></p><p><span style=""font-size:25px;"">You have <strong>1 second(s)</strong> to respond to the following trials.</span><br></p><p></p> <!-- Blank line -->
                <p id=""blinking-text"" style=""font-weight; animation: blink 2s infinite;"">Press Space to continue</p>
                <style>
                    @keyframes blink {
                        50% {
                            opacity: 0;
                        }
                    }
                </style></p>"," ","","","","","","","","","","","","","",""
"","","","","","html-keyboard-response","280","2654453","0.0-22.0-0.0","67463b2b120657eb73598c91","67619bf32066d179f8b4b1ec","67894a76435c3cd1c8059ad1","passed","","","","","","","","","","","","","","","","","ballFalling","322.3","379.3711431702997","245.25","1","fallScene","true","","","","","73","",""
"","","","","","html-keyboard-response","281","2654764","0.0-22.0-1.0","67463b2b120657eb73598c91","67619bf32066d179f8b4b1ec","67894a76435c3cd1c8059ad1","passed","","309","","","","","","","","","","","","","","j","yesOrNo","","","","1","","","lp","1000","","","73","323.3","217.74551669457017"
"","","","","","html-keyboard-response","282","2656316","0.0-22.0-0.1","67463b2b120657eb73598c91","67619bf32066d179f8b4b1ec","67894a76435c3cd1c8059ad1","passed","","","","","","","","","","","","","","","","","ballFalling","500","453.67114317029973","210.33","5","fallScene","false","","","","","74","",""
"","","","","","html-keyboard-response","283","2656603","0.0-22.0-1.1","67463b2b120657eb73598c91","67619bf32066d179f8b4b1ec","67894a76435c3cd1c8059ad1","passed","","284","","","","","","","","","","","","","","j","yesOrNo","","","","5","","","gt","1000","","","74","453.6711431702998","210.33"
"","","","","","html-keyboard-response","284","2658165","0.0-22.0-0.2","67463b2b120657eb73598c91","67619bf32066d179f8b4b1ec","67894a76435c3cd1c8059ad1","passed","","","","","","","","","","","","","","","","","ballFalling","322.3","296.07114317029976","371.46","3","fallScene","false","","","","","75","",""
"","","","","","html-keyboard-response","285","2658766","0.0-22.0-1.2","67463b2b120657eb73598c91","67619bf32066d179f8b4b1ec","67894a76435c3cd1c8059ad1","passed","","598","","","","","","","","","","","","","","j","yesOrNo","","","","3","","","lp","1000","","","75","321.3","287.3327096511259"
