"success","timeout","failed_images","failed_audio","failed_video","trial_type","trial_index","time_elapsed","internal_node_id","subject_id","study_id","session_id","practiceTestResult","view_history","rt","width","height","webaudio","browser","browser_version","mobile","os","fullscreen","vsync_rate","webcam","microphone","url","stimulus","response","task","ball_X","obstacle_groundTruth_x","obstacle_groundTruth_y","stimulus_idx","trial_name","flipped","choice","timeLimit","question_order","comprehensionCheck","currentTrial","obstacle_choice_x","obstacle_choice_y"
"true","false","[]","[]","[]","preload","0","119","0.0-0.0","6786ac17e77313e8449a8912","67619bf32066d179f8b4b1ec","67894a39a3974d34e9cfae92","passed","","","","","","","","","","","","","","","","","","","","","","","","","","","","","",""
"","","","","","instructions","1","16877","0.0-1.0","6786ac17e77313e8449a8912","67619bf32066d179f8b4b1ec","67894a39a3974d34e9cfae92","passed","[{""page_index"":0,""viewing_time"":16757}]","16758","","","","","","","","","","","","","","","","","","","","","","","","","","","",""
"","","","","","browser-check","2","17876","0.0-2.0","6786ac17e77313e8449a8912","67619bf32066d179f8b4b1ec","67894a39a3974d34e9cfae92","passed","","","1942","935","true","chrome","132.0.0","false","Windows 10","true","60.16","true","true","","","","","","","","","","","","","","","","",""
"","","","","","external-html","3","24482","0.0-3.0","6786ac17e77313e8449a8912","67619bf32066d179f8b4b1ec","67894a39a3974d34e9cfae92","passed","","6555","","","","","","","","","","","","consent.html","","","","","","","","","","","","","","","",""
"true","","","","","fullscreen","4","67046","0.0-4.0","6786ac17e77313e8449a8912","67619bf32066d179f8b4b1ec","67894a39a3974d34e9cfae92","passed","","42247","","","","","","","","","","","","","","","","","","","","","","","","","","","",""
"","","","","","browser-check","5","68043","0.0-5.0","6786ac17e77313e8449a8912","67619bf32066d179f8b4b1ec","67894a39a3974d34e9cfae92","passed","","","1942","1093","true","chrome","132.0.0","false","Windows 10","true","60.23","true","true","","","","","","","","","","","","","","","","",""
"","","","","","html-keyboard-response","6","72676","0.0-6.0","6786ac17e77313e8449a8912","67619bf32066d179f8b4b1ec","67894a39a3974d34e9cfae92","passed","","4632","","","","","","","","","","","","","<p><b>This experiment requires keyboard input.</b></p> 
        <p><b>To ensure your response will be recorded successfully, please press 'Space' to continue.</b></p>
        <p>If you can't proceed, you won't be able to complete this study.</p>
        <p></p> <!-- Blank line -->
        <p id=""blinking-text"" style=""font-weight; animation: blink 2s infinite;"">Press Space to continue</p>
        <style>
            @keyframes blink {
                50% {
                    opacity: 0;
                }
            }
        </style>"," ","","","","","","","","","","","","","",""
"","","","","","html-keyboard-response","7","82276","0.0-7.0","6786ac17e77313e8449a8912","67619bf32066d179f8b4b1ec","67894a39a3974d34e9cfae92","passed","","9600","","","","","","","","","","","","","<p><b>This experiment requires keyboard input.</b></p> 
        <p><b>To ensure your response will be recorded successfully, please press the 'f' key to continue.</b></p>
        <p>If you can't proceed, you won't be able to complete this study.</p>
        <p></p> <!-- Blank line -->
        <p id=""blinking-text"" style=""font-weight; animation: blink 2s infinite;"">Press f to continue</p>
        <style>
            @keyframes blink {
                50% {
                    opacity: 0;
                }
            }
        </style>","f","","","","","","","","","","","","","",""
"","","","","","html-keyboard-response","8","85158","0.0-8.0","6786ac17e77313e8449a8912","67619bf32066d179f8b4b1ec","67894a39a3974d34e9cfae92","passed","","2881","","","","","","","","","","","","","<p><b>This experiment requires keyboard input.</b></p> 
        <p><b>To ensure your response will be recorded successfully, please press the 'j' key to continue.</b></p>
        <p>If you can't proceed, you won't be able to complete this study.</p>
        <p></p> <!-- Blank line -->
        <p id=""blinking-text"" style=""font-weight; animation: blink 2s infinite;"">Press j to continue</p>
        <style>
            @keyframes blink {
                50% {
                    opacity: 0;
                }
            }
        </style>","j","","","","","","","","","","","","","",""
"","","","","","browser-check","9","86160","0.0-9.0","6786ac17e77313e8449a8912","67619bf32066d179f8b4b1ec","67894a39a3974d34e9cfae92","passed","","","1942","1093","true","chrome","132.0.0","false","Windows 10","true","60.02","true","true","","","","","","","","","","","","","","","","",""
"","","","","","survey-text","10","91926","0.0-10.0","6786ac17e77313e8449a8912","67619bf32066d179f8b4b1ec","67894a39a3974d34e9cfae92","passed","","5764","","","","","","","","","","","","","","{""prolificID"":""6786ac17e77313e8449a8912""}","","","","","","","","","","","","","",""
"","","","","","instructions","11","176052","0.0-11.0-0.0-0.0","6786ac17e77313e8449a8912","67619bf32066d179f8b4b1ec","67894a39a3974d34e9cfae92","passed","[{""page_index"":0,""viewing_time"":33558},{""page_index"":1,""viewing_time"":18698},{""page_index"":2,""viewing_time"":25240},{""page_index"":3,""viewing_time"":6630}]","84126","","","","","","","","","","","","","","","","","","","","","","","","","","","",""
"","","","","","html-keyboard-response","12","189152","0.0-11.0-0.0-1.0","6786ac17e77313e8449a8912","67619bf32066d179f8b4b1ec","67894a39a3974d34e9cfae92","passed","","12595","","","","","","","","","","","","","<br>Remember! After a ball falls, the screen will disappear, and you'll decide if the proposed position is where the hidden triangle was. <br>You will now practice this by watching a few videos and making decisions.<p>To respond:<br style=""margin-bottom: 5px; text-indent: -20px; padding-left: 20px;"">- Press <b style=""color: #12AD2B;"">J for Yes</b>, if you think the triangle is in the correct position.<br style=""margin-top: 0; text-indent: -20px; padding-left: 20px;"">- Press <b style=""color: orange;"">F for No</b>, if you think the triangle is not in the correct position.</p><p>In this practice round, there is no time limit. Focus on getting comfortable with the task first.<br>Press either J or F to begin your practice trials.</p><img src = ""YesOrNo_instruction.png"" style=""width: 65%;""></img>","f","","","","","","","","","","","","","",""
"","","","","","html-keyboard-response","13","191243","0.0-11.0-0.0-2.0-0.0","6786ac17e77313e8449a8912","67619bf32066d179f8b4b1ec","67894a39a3974d34e9cfae92","passed","","","","","","","","","","","","","","","","","ballFalling_prac","660","666","350","3","fallScene","false","","","","","","",""
"","","","","","html-keyboard-response","14","193360","0.0-11.0-0.0-2.0-1.0","6786ac17e77313e8449a8912","67619bf32066d179f8b4b1ec","67894a39a3974d34e9cfae92","passed","","2114","","","","","","","","","","","","","","f","yesOrNo_prac_noTimed","","","","3","","","wrong direction","NA","","","","",""
"","","","","","html-keyboard-response","15","194927","0.0-11.0-0.0-2.0-0.1","6786ac17e77313e8449a8912","67619bf32066d179f8b4b1ec","67894a39a3974d34e9cfae92","passed","","","","","","","","","","","","","","","","","ballFalling_prac","416","464","296","1","fallScene","false","","","","","","",""
"","","","","","html-keyboard-response","16","196505","0.0-11.0-0.0-2.0-1.1","6786ac17e77313e8449a8912","67619bf32066d179f8b4b1ec","67894a39a3974d34e9cfae92","passed","","1577","","","","","","","","","","","","","","j","yesOrNo_prac_noTimed","","","","1","","","gt","NA","","","","",""
"","","","","","html-keyboard-response","17","198077","0.0-11.0-0.0-2.0-0.2","6786ac17e77313e8449a8912","67619bf32066d179f8b4b1ec","67894a39a3974d34e9cfae92","passed","","","","","","","","","","","","","","","","","ballFalling_prac","441","414","302","5","fallScene","true","","","","","","",""
"","","","","","html-keyboard-response","18","199859","0.0-11.0-0.0-2.0-1.2","6786ac17e77313e8449a8912","67619bf32066d179f8b4b1ec","67894a39a3974d34e9cfae92","passed","","1782","","","","","","","","","","","","","","j","yesOrNo_prac_noTimed","","","","5","","","close gt","NA","","","","",""
"","","","","","instructions","19","358789","0.0-11.0-0.0-3.0","6786ac17e77313e8449a8912","67619bf32066d179f8b4b1ec","67894a39a3974d34e9cfae92","passed","[{""page_index"":0,""viewing_time"":22951},{""page_index"":1,""viewing_time"":135978}]","158929","","","","","","","","","","","","","","","","","","","","","","","","","","","",""
"","","","","","html-button-response","20","366206","0.0-11.0-0.0-4.0","6786ac17e77313e8449a8912","67619bf32066d179f8b4b1ec","67894a39a3974d34e9cfae92","passed","","6907","","","","","","","","","","","","","<p>To make sure you understood the task, we just have a <b>brief quiz</b> here.</p><p>If you need to review the instructions, click 'Previous'.</p><p>It's important to understand the task to do the study, so you have to pass the quiz to move to the study.</p>","0","","","","","","","","","","","","","",""
"","","","","","instructions","21","374208","0.0-11.0-0.1-0.1","6786ac17e77313e8449a8912","67619bf32066d179f8b4b1ec","67894a39a3974d34e9cfae92","passed","[{""page_index"":0,""viewing_time"":4117},{""page_index"":1,""viewing_time"":1462},{""page_index"":2,""viewing_time"":1651},{""page_index"":3,""viewing_time"":771}]","8001","","","","","","","","","","","","","","","","","","","","","","","","","","","",""
"","","","","","html-keyboard-response","22","379241","0.0-11.0-0.1-1.1","6786ac17e77313e8449a8912","67619bf32066d179f8b4b1ec","67894a39a3974d34e9cfae92","passed","","4531","","","","","","","","","","","","","<br>Remember! After a ball falls, the screen will disappear, and you'll decide if the proposed position is where the hidden triangle was. <br>You will now practice this by watching a few videos and making decisions.<p>To respond:<br style=""margin-bottom: 5px; text-indent: -20px; padding-left: 20px;"">- Press <b style=""color: #12AD2B;"">J for Yes</b>, if you think the triangle is in the correct position.<br style=""margin-top: 0; text-indent: -20px; padding-left: 20px;"">- Press <b style=""color: orange;"">F for No</b>, if you think the triangle is not in the correct position.</p><p>In this practice round, there is no time limit. Focus on getting comfortable with the task first.<br>Press either J or F to begin your practice trials.</p><img src = ""YesOrNo_instruction.png"" style=""width: 65%;""></img>","f","","","","","","","","","","","","","",""
"","","","","","html-keyboard-response","23","380793","0.0-11.0-0.1-2.1-0.3","6786ac17e77313e8449a8912","67619bf32066d179f8b4b1ec","67894a39a3974d34e9cfae92","passed","","","","","","","","","","","","","","","","","ballFalling_prac","441","414","302","5","fallScene","true","","","","","","",""
"","","","","","html-keyboard-response","24","381361","0.0-11.0-0.1-2.1-1.3","6786ac17e77313e8449a8912","67619bf32066d179f8b4b1ec","67894a39a3974d34e9cfae92","passed","","567","","","","","","","","","","","","","","f","yesOrNo_prac_noTimed","","","","5","","","close gt","NA","","","","",""
"","","","","","html-keyboard-response","25","383476","0.0-11.0-0.1-2.1-0.4","6786ac17e77313e8449a8912","67619bf32066d179f8b4b1ec","67894a39a3974d34e9cfae92","passed","","","","","","","","","","","","","","","","","ballFalling_prac","660","666","350","3","fallScene","false","","","","","","",""
"","","","","","html-keyboard-response","26","384159","0.0-11.0-0.1-2.1-1.4","6786ac17e77313e8449a8912","67619bf32066d179f8b4b1ec","67894a39a3974d34e9cfae92","passed","","681","","","","","","","","","","","","","","j","yesOrNo_prac_noTimed","","","","3","","","wrong direction","NA","","","","",""
"","","","","","html-keyboard-response","27","385710","0.0-11.0-0.1-2.1-0.5","6786ac17e77313e8449a8912","67619bf32066d179f8b4b1ec","67894a39a3974d34e9cfae92","passed","","","","","","","","","","","","","","","","","ballFalling_prac","416","464","296","1","fallScene","false","","","","","","",""
"","","","","","html-keyboard-response","28","386623","0.0-11.0-0.1-2.1-1.5","6786ac17e77313e8449a8912","67619bf32066d179f8b4b1ec","67894a39a3974d34e9cfae92","passed","","912","","","","","","","","","","","","","","f","yesOrNo_prac_noTimed","","","","1","","","gt","NA","","","","",""
"","","","","","instructions","29","1715244","0.0-11.0-0.1-3.1","6786ac17e77313e8449a8912","67619bf32066d179f8b4b1ec","67894a39a3974d34e9cfae92","passed","[{""page_index"":0,""viewing_time"":2600},{""page_index"":1,""viewing_time"":1326020}]","1328621","","","","","","","","","","","","","","","","","","","","","","","","","","","",""
"","","","","","html-button-response","30","1719865","0.0-11.0-0.1-4.1","6786ac17e77313e8449a8912","67619bf32066d179f8b4b1ec","67894a39a3974d34e9cfae92","passed","","4118","","","","","","","","","","","","","<p>To make sure you understood the task, we just have a <b>brief quiz</b> here.</p><p>If you need to review the instructions, click 'Previous'.</p><p>It's important to understand the task to do the study, so you have to pass the quiz to move to the study.</p>","1","","","","","","","","","","","","","",""
"","","","","","survey-multi-choice","31","1771173","0.0-11.0-1.0-0.0","6786ac17e77313e8449a8912","67619bf32066d179f8b4b1ec","67894a39a3974d34e9cfae92","passed","","51306","","","","","","","","","","","","","","{""generalProcedure"":""Watch a video of a ball falling, some of it behind a gray screen. After each video, decide if the triangle is at the spot where the ball hit the triangle behind the screen. There is time limit for the response.""}","","","","","","","","","","[0]","","","",""
"","","","","","survey-multi-choice","32","1789437","0.0-11.0-1.0-1.0","6786ac17e77313e8449a8912","67619bf32066d179f8b4b1ec","67894a39a3974d34e9cfae92","passed","","18263","","","","","","","","","","","","","","{""checkBallHitObstacle"":""No.""}","","","","","","","","","","[0]","","","",""
"","","","","","survey-multi-choice","33","1797050","0.0-11.0-1.0-2.0","6786ac17e77313e8449a8912","67619bf32066d179f8b4b1ec","67894a39a3974d34e9cfae92","passed","","7612","","","","","","","","","","","","","","{""checkTriangleVisibility"":""No, the triangle is hidden behind the gray screen.""}","","","","","","","","","","[0]","","","",""
"","","","","","survey-multi-choice","34","1804557","0.0-11.0-1.0-3.0","6786ac17e77313e8449a8912","67619bf32066d179f8b4b1ec","67894a39a3974d34e9cfae92","passed","","7506","","","","","","","","","","","","","","{""checkTimedResponse"":""Your response will not be recorded, and the trial will move to the next one.""}","","","","","","","","","","[0]","","","",""
"","","","","","survey-multi-choice","35","1811322","0.0-11.0-1.0-4.0","6786ac17e77313e8449a8912","67619bf32066d179f8b4b1ec","67894a39a3974d34e9cfae92","passed","","6765","","","","","","","","","","","","","","{""checkTimeBlockNotice"":""At the beginning of each block.""}","","","","","","","","","","[0]","","","",""
"","","","","","survey-multi-choice","36","1817255","0.0-11.0-1.0-5.0","6786ac17e77313e8449a8912","67619bf32066d179f8b4b1ec","67894a39a3974d34e9cfae92","passed","","5932","","","","","","","","","","","","","","{""checkTimeBlockSameness"":""No, the time limit changes for each trial within a block.""}","","","","","","","","","","[0]","","","",""
"","","","","","survey-multi-choice","37","1861331","0.0-11.0-1.0-6.0","6786ac17e77313e8449a8912","67619bf32066d179f8b4b1ec","67894a39a3974d34e9cfae92","passed","","44075","","","","","","","","","","","","","","{""checkTrianglePrecision"":""No. The proposed purple triangle is not in the correct position because it doesn't match the location of the white triangle exactly.""}","","","","","","","","","","[0]","","","",""
"","","","","","html-button-response","38","1866090","0.0-11.0-2.0-0.0","6786ac17e77313e8449a8912","67619bf32066d179f8b4b1ec","67894a39a3974d34e9cfae92","passed","","4758","","","","","","","","","","","","","<p>Oops! You did not pass the quiz.</p><p>You will now repeat the instructions and practice.</p>","0","","","","","","","","","","","failed","","",""
"","","","","","instructions","39","1912721","0.0-11.1-0.2-0.2","6786ac17e77313e8449a8912","67619bf32066d179f8b4b1ec","67894a39a3974d34e9cfae92","passed","[{""page_index"":0,""viewing_time"":17709},{""page_index"":1,""viewing_time"":18414},{""page_index"":2,""viewing_time"":2138},{""page_index"":3,""viewing_time"":8371}]","46631","","","","","","","","","","","","","","","","","","","","","","","","","","","",""
"","","","","","html-keyboard-response","40","1927781","0.0-11.1-0.2-1.2","6786ac17e77313e8449a8912","67619bf32066d179f8b4b1ec","67894a39a3974d34e9cfae92","passed","","14554","","","","","","","","","","","","","<br>Remember! After a ball falls, the screen will disappear, and you'll decide if the proposed position is where the hidden triangle was. <br>You will now practice this by watching a few videos and making decisions.<p>To respond:<br style=""margin-bottom: 5px; text-indent: -20px; padding-left: 20px;"">- Press <b style=""color: #12AD2B;"">J for Yes</b>, if you think the triangle is in the correct position.<br style=""margin-top: 0; text-indent: -20px; padding-left: 20px;"">- Press <b style=""color: orange;"">F for No</b>, if you think the triangle is not in the correct position.</p><p>In this practice round, there is no time limit. Focus on getting comfortable with the task first.<br>Press either J or F to begin your practice trials.</p><img src = ""YesOrNo_instruction.png"" style=""width: 65%;""></img>","j","","","","","","","","","","","","","",""
"","","","","","html-keyboard-response","41","1929326","0.0-11.1-0.2-2.2-0.6","6786ac17e77313e8449a8912","67619bf32066d179f8b4b1ec","67894a39a3974d34e9cfae92","passed","","","","","","","","","","","","","","","","","ballFalling_prac","416","464","296","1","fallScene","false","","","","","","",""
"","","","","","html-keyboard-response","42","1930442","0.0-11.1-0.2-2.2-1.6","6786ac17e77313e8449a8912","67619bf32066d179f8b4b1ec","67894a39a3974d34e9cfae92","passed","","1114","","","","","","","","","","","","","","f","yesOrNo_prac_noTimed","","","","1","","","gt","NA","","","","",""
"","","","","","html-keyboard-response","43","1932009","0.0-11.1-0.2-2.2-0.7","6786ac17e77313e8449a8912","67619bf32066d179f8b4b1ec","67894a39a3974d34e9cfae92","passed","","","","","","","","","","","","","","","","","ballFalling_prac","441","414","302","5","fallScene","true","","","","","","",""
"","","","","","html-keyboard-response","44","1933609","0.0-11.1-0.2-2.2-1.7","6786ac17e77313e8449a8912","67619bf32066d179f8b4b1ec","67894a39a3974d34e9cfae92","passed","","1598","","","","","","","","","","","","","","j","yesOrNo_prac_noTimed","","","","5","","","close gt","NA","","","","",""
"","","","","","html-keyboard-response","45","1935726","0.0-11.1-0.2-2.2-0.8","6786ac17e77313e8449a8912","67619bf32066d179f8b4b1ec","67894a39a3974d34e9cfae92","passed","","","","","","","","","","","","","","","","","ballFalling_prac","660","666","350","3","fallScene","false","","","","","","",""
"","","","","","html-keyboard-response","46","1936283","0.0-11.1-0.2-2.2-1.8","6786ac17e77313e8449a8912","67619bf32066d179f8b4b1ec","67894a39a3974d34e9cfae92","passed","","556","","","","","","","","","","","","","","f","yesOrNo_prac_noTimed","","","","3","","","wrong direction","NA","","","","",""
"","","","","","instructions","47","1993239","0.0-11.1-0.2-3.2","6786ac17e77313e8449a8912","67619bf32066d179f8b4b1ec","67894a39a3974d34e9cfae92","passed","[{""page_index"":0,""viewing_time"":21711},{""page_index"":1,""viewing_time"":35245}]","56956","","","","","","","","","","","","","","","","","","","","","","","","","","","",""
"","","","","","html-button-response","48","1995579","0.0-11.1-0.2-4.2","6786ac17e77313e8449a8912","67619bf32066d179f8b4b1ec","67894a39a3974d34e9cfae92","passed","","1832","","","","","","","","","","","","","<p>To make sure you understood the task, we just have a <b>brief quiz</b> here.</p><p>If you need to review the instructions, click 'Previous'.</p><p>It's important to understand the task to do the study, so you have to pass the quiz to move to the study.</p>","1","","","","","","","","","","","","","",""
"","","","","","survey-multi-choice","49","2032385","0.0-11.1-1.1-0.1","6786ac17e77313e8449a8912","67619bf32066d179f8b4b1ec","67894a39a3974d34e9cfae92","passed","","36805","","","","","","","","","","","","","","{""generalProcedure"":""Watch a video of a ball falling, some of it behind a gray screen. After each video, decide if the triangle is at the spot where the ball hit the triangle behind the screen. There is time limit for the response.""}","","","","","","","","","","[0]","","","",""
"","","","","","survey-multi-choice","50","2051742","0.0-11.1-1.1-1.1","6786ac17e77313e8449a8912","67619bf32066d179f8b4b1ec","67894a39a3974d34e9cfae92","passed","","19357","","","","","","","","","","","","","","{""checkBallHitObstacle"":""No.""}","","","","","","","","","","[0]","","","",""
"","","","","","survey-multi-choice","51","2055514","0.0-11.1-1.1-2.1","6786ac17e77313e8449a8912","67619bf32066d179f8b4b1ec","67894a39a3974d34e9cfae92","passed","","3771","","","","","","","","","","","","","","{""checkTriangleVisibility"":""No, the triangle is hidden behind the gray screen.""}","","","","","","","","","","[0]","","","",""
"","","","","","survey-multi-choice","52","2058822","0.0-11.1-1.1-3.1","6786ac17e77313e8449a8912","67619bf32066d179f8b4b1ec","67894a39a3974d34e9cfae92","passed","","3307","","","","","","","","","","","","","","{""checkTimedResponse"":""Your response will not be recorded, and the trial will move to the next one.""}","","","","","","","","","","[0]","","","",""
"","","","","","survey-multi-choice","53","2068611","0.0-11.1-1.1-4.1","6786ac17e77313e8449a8912","67619bf32066d179f8b4b1ec","67894a39a3974d34e9cfae92","passed","","9789","","","","","","","","","","","","","","{""checkTimeBlockNotice"":""At the beginning of each block.""}","","","","","","","","","","[0]","","","",""
"","","","","","survey-multi-choice","54","2077715","0.0-11.1-1.1-5.1","6786ac17e77313e8449a8912","67619bf32066d179f8b4b1ec","67894a39a3974d34e9cfae92","passed","","9102","","","","","","","","","","","","","","{""checkTimeBlockSameness"":""Yes, the time limit is the same for all trials within a block.""}","","","","","","","","","","[0]","","","",""
"","","","","","survey-multi-choice","55","2084316","0.0-11.1-1.1-6.1","6786ac17e77313e8449a8912","67619bf32066d179f8b4b1ec","67894a39a3974d34e9cfae92","passed","","6601","","","","","","","","","","","","","","{""checkTrianglePrecision"":""No. The proposed purple triangle is not in the correct position because it doesn't match the location of the white triangle exactly.""}","","","","","","","","","","[0]","","","",""
"","","","","","html-button-response","56","2088327","0.0-11.1-2.1-0.1","6786ac17e77313e8449a8912","67619bf32066d179f8b4b1ec","67894a39a3974d34e9cfae92","passed","","4011","","","","","","","","","","","","","<p>Oops! You did not pass the quiz.</p><p>You will now repeat the instructions and practice.</p>","0","","","","","","","","","","","failed","","",""
"","","","","","instructions","57","2092543","0.0-11.2-0.3-0.3","6786ac17e77313e8449a8912","67619bf32066d179f8b4b1ec","67894a39a3974d34e9cfae92","passed","[{""page_index"":0,""viewing_time"":2168},{""page_index"":1,""viewing_time"":467},{""page_index"":2,""viewing_time"":899},{""page_index"":3,""viewing_time"":682}]","4215","","","","","","","","","","","","","","","","","","","","","","","","","","","",""
"","","","","","html-keyboard-response","58","2095947","0.0-11.2-0.3-1.3","6786ac17e77313e8449a8912","67619bf32066d179f8b4b1ec","67894a39a3974d34e9cfae92","passed","","2902","","","","","","","","","","","","","<br>Remember! After a ball falls, the screen will disappear, and you'll decide if the proposed position is where the hidden triangle was. <br>You will now practice this by watching a few videos and making decisions.<p>To respond:<br style=""margin-bottom: 5px; text-indent: -20px; padding-left: 20px;"">- Press <b style=""color: #12AD2B;"">J for Yes</b>, if you think the triangle is in the correct position.<br style=""margin-top: 0; text-indent: -20px; padding-left: 20px;"">- Press <b style=""color: orange;"">F for No</b>, if you think the triangle is not in the correct position.</p><p>In this practice round, there is no time limit. Focus on getting comfortable with the task first.<br>Press either J or F to begin your practice trials.</p><img src = ""YesOrNo_instruction.png"" style=""width: 65%;""></img>","j","","","","","","","","","","","","","",""
"","","","","","html-keyboard-response","59","2098042","0.0-11.2-0.3-2.3-0.9","6786ac17e77313e8449a8912","67619bf32066d179f8b4b1ec","67894a39a3974d34e9cfae92","passed","","","","","","","","","","","","","","","","","ballFalling_prac","660","666","350","3","fallScene","false","","","","","","",""
"","","","","","html-keyboard-response","60","2099938","0.0-11.2-0.3-2.3-1.9","6786ac17e77313e8449a8912","67619bf32066d179f8b4b1ec","67894a39a3974d34e9cfae92","passed","","1894","","","","","","","","","","","","","","j","yesOrNo_prac_noTimed","","","","3","","","wrong direction","NA","","","","",""
"","","","","","html-keyboard-response","61","2101517","0.0-11.2-0.3-2.3-0.10","6786ac17e77313e8449a8912","67619bf32066d179f8b4b1ec","67894a39a3974d34e9cfae92","passed","","","","","","","","","","","","","","","","","ballFalling_prac","441","414","302","5","fallScene","true","","","","","","",""
"","","","","","html-keyboard-response","62","2101926","0.0-11.2-0.3-2.3-1.10","6786ac17e77313e8449a8912","67619bf32066d179f8b4b1ec","67894a39a3974d34e9cfae92","passed","","409","","","","","","","","","","","","","","f","yesOrNo_prac_noTimed","","","","5","","","close gt","NA","","","","",""
"","","","","","html-keyboard-response","63","2103493","0.0-11.2-0.3-2.3-0.11","6786ac17e77313e8449a8912","67619bf32066d179f8b4b1ec","67894a39a3974d34e9cfae92","passed","","","","","","","","","","","","","","","","","ballFalling_prac","416","464","296","1","fallScene","false","","","","","","",""
"","","","","","html-keyboard-response","64","2103780","0.0-11.2-0.3-2.3-1.11","6786ac17e77313e8449a8912","67619bf32066d179f8b4b1ec","67894a39a3974d34e9cfae92","passed","","286","","","","","","","","","","","","","","j","yesOrNo_prac_noTimed","","","","1","","","gt","NA","","","","",""
"","","","","","instructions","65","2107379","0.0-11.2-0.3-3.3","6786ac17e77313e8449a8912","67619bf32066d179f8b4b1ec","67894a39a3974d34e9cfae92","passed","[{""page_index"":0,""viewing_time"":2348},{""page_index"":1,""viewing_time"":1251}]","3599","","","","","","","","","","","","","","","","","","","","","","","","","","","",""
"","","","","","html-button-response","66","2108812","0.0-11.2-0.3-4.3","6786ac17e77313e8449a8912","67619bf32066d179f8b4b1ec","67894a39a3974d34e9cfae92","passed","","928","","","","","","","","","","","","","<p>To make sure you understood the task, we just have a <b>brief quiz</b> here.</p><p>If you need to review the instructions, click 'Previous'.</p><p>It's important to understand the task to do the study, so you have to pass the quiz to move to the study.</p>","1","","","","","","","","","","","","","",""
"","","","","","survey-multi-choice","67","2114691","0.0-11.2-1.2-0.2","6786ac17e77313e8449a8912","67619bf32066d179f8b4b1ec","67894a39a3974d34e9cfae92","passed","","5879","","","","","","","","","","","","","","{""generalProcedure"":""Watch a video of a ball falling, some of it behind a gray screen. After each video, decide if the triangle is at the spot where the ball hit the triangle behind the screen. There is time limit for the response.""}","","","","","","","","","","[0]","","","",""
"","","","","","survey-multi-choice","68","2118936","0.0-11.2-1.2-1.2","6786ac17e77313e8449a8912","67619bf32066d179f8b4b1ec","67894a39a3974d34e9cfae92","passed","","4244","","","","","","","","","","","","","","{""checkBallHitObstacle"":""Yes.""}","","","","","","","","","","[0]","","","",""
"","","","","","survey-multi-choice","69","2123519","0.0-11.2-1.2-2.2","6786ac17e77313e8449a8912","67619bf32066d179f8b4b1ec","67894a39a3974d34e9cfae92","passed","","4582","","","","","","","","","","","","","","{""checkTriangleVisibility"":""No, the triangle is hidden behind the gray screen.""}","","","","","","","","","","[0]","","","",""
"","","","","","survey-multi-choice","70","2127263","0.0-11.2-1.2-3.2","6786ac17e77313e8449a8912","67619bf32066d179f8b4b1ec","67894a39a3974d34e9cfae92","passed","","3743","","","","","","","","","","","","","","{""checkTimedResponse"":""Your response will not be recorded, and the trial will move to the next one.""}","","","","","","","","","","[0]","","","",""
"","","","","","survey-multi-choice","71","2129939","0.0-11.2-1.2-4.2","6786ac17e77313e8449a8912","67619bf32066d179f8b4b1ec","67894a39a3974d34e9cfae92","passed","","2676","","","","","","","","","","","","","","{""checkTimeBlockNotice"":""At the beginning of each block.""}","","","","","","","","","","[0]","","","",""
"","","","","","survey-multi-choice","72","2133825","0.0-11.2-1.2-5.2","6786ac17e77313e8449a8912","67619bf32066d179f8b4b1ec","67894a39a3974d34e9cfae92","passed","","3885","","","","","","","","","","","","","","{""checkTimeBlockSameness"":""Yes, the time limit is the same for all trials within a block.""}","","","","","","","","","","[0]","","","",""
"","","","","","survey-multi-choice","73","2138841","0.0-11.2-1.2-6.2","6786ac17e77313e8449a8912","67619bf32066d179f8b4b1ec","67894a39a3974d34e9cfae92","passed","","5015","","","","","","","","","","","","","","{""checkTrianglePrecision"":""No. The proposed purple triangle is not in the correct position because it doesn't match the location of the white triangle exactly.""}","","","","","","","","","","[0]","","","",""
"","","","","","instructions","74","2172406","0.0-12.0","6786ac17e77313e8449a8912","67619bf32066d179f8b4b1ec","67894a39a3974d34e9cfae92","passed","[{""page_index"":0,""viewing_time"":3503},{""page_index"":1,""viewing_time"":11415},{""page_index"":2,""viewing_time"":12647},{""page_index"":3,""viewing_time"":6000}]","33565","","","","","","","","","","","","","","","","","","","","","","","","","","","",""
"","","","","","instructions","75","2175946","0.0-13.0-0.0","6786ac17e77313e8449a8912","67619bf32066d179f8b4b1ec","67894a39a3974d34e9cfae92","passed","[{""page_index"":0,""viewing_time"":3540}]","3540","","","","","","","","","","","","","","","","","","","","","","","","","","","",""
"","","","","","html-keyboard-response","76","2181477","0.0-13.0-1.0","6786ac17e77313e8449a8912","67619bf32066d179f8b4b1ec","67894a39a3974d34e9cfae92","passed","","5531","","","","","","","","","","","","","<p><span style=""font-size:40px;"">Practice BLOCK 1</span></p><p><span style=""font-size:25px;"">You have <strong>3 second(s)</strong> to respond to the following trials.</span><br></p><p id=""blinking-text"" style=""font-weight; animation: blink 2s infinite;"">Press Space to continue</p><style>
                    @keyframes blink {
                        50% {
                            opacity: 0;
                        }
                    }
                </style>"," ","","","","","","","","","","","","","",""
"","","","","","html-keyboard-response","77","2183043","0.0-13.0-2.0-0.0","6786ac17e77313e8449a8912","67619bf32066d179f8b4b1ec","67894a39a3974d34e9cfae92","passed","","","","","","","","","","","","","","","","","ballFalling_prac","584","536","296","1","fallScene","true","","","","","","",""
"","","","","","html-keyboard-response","78","2183324","0.0-13.0-2.0-1.0","6786ac17e77313e8449a8912","67619bf32066d179f8b4b1ec","67894a39a3974d34e9cfae92","passed","","280","","","","","","","","","","","","","","j","yesOrNo_prac","","","","1","","","close gt","3000","","","","",""
"","","","","","html-keyboard-response","79","2184893","0.0-13.0-2.0-0.1","6786ac17e77313e8449a8912","67619bf32066d179f8b4b1ec","67894a39a3974d34e9cfae92","passed","","","","","","","","","","","","","","","","","ballFalling_prac","660","610","263","4","fallScene","false","","","","","","",""
"","","","","","html-keyboard-response","80","2184936","0.0-13.0-2.0-1.1","6786ac17e77313e8449a8912","67619bf32066d179f8b4b1ec","67894a39a3974d34e9cfae92","passed","","43","","","","","","","","","","","","","","f","yesOrNo_prac","","","","4","","","gt","3000","","","","",""
"","","","","","html-keyboard-response","81","2186492","0.0-13.0-2.0-0.2","6786ac17e77313e8449a8912","67619bf32066d179f8b4b1ec","67894a39a3974d34e9cfae92","passed","","","","","","","","","","","","","","","","","ballFalling_prac","416","464","296","1","fallScene","false","","","","","","",""
"","","","","","html-keyboard-response","82","2186646","0.0-13.0-2.0-1.2","6786ac17e77313e8449a8912","67619bf32066d179f8b4b1ec","67894a39a3974d34e9cfae92","passed","","152","","","","","","","","","","","","","","f","yesOrNo_prac","","","","1","","","far gt","3000","","","","",""
"","","","","","html-keyboard-response","83","2189069","0.0-13.0-3.0","6786ac17e77313e8449a8912","67619bf32066d179f8b4b1ec","67894a39a3974d34e9cfae92","passed","","2423","","","","","","","","","","","","","<p><span style=""font-size:40px;"">Practice BLOCK 2</span></p><p><span style=""font-size:25px;"">You have <strong>1 second(s)</strong> to respond to the following trials.</span><br></p><p id=""blinking-text"" style=""font-weight; animation: blink 2s infinite;"">Press Space to continue</p><style>
                    @keyframes blink {
                        50% {
                            opacity: 0;
                        }
                    }
                </style>"," ","","","","","","","","","","","","","",""
"","","","","","html-keyboard-response","84","2190626","0.0-13.0-4.0-0.0","6786ac17e77313e8449a8912","67619bf32066d179f8b4b1ec","67894a39a3974d34e9cfae92","passed","","","","","","","","","","","","","","","","","ballFalling_prac","441","500","317","6","fallScene","true","","","","","","",""
"","","","","","html-keyboard-response","85","2191634","0.0-13.0-4.0-1.0","6786ac17e77313e8449a8912","67619bf32066d179f8b4b1ec","67894a39a3974d34e9cfae92","passed","","null","","","","","","","","","","","","","","null","yesOrNo_prac","","","","6","","","gt","1000","","","","",""
"","","","","","html-keyboard-response","86","2193209","0.0-13.0-4.0-0.1","6786ac17e77313e8449a8912","67619bf32066d179f8b4b1ec","67894a39a3974d34e9cfae92","passed","","","","","","","","","","","","","","","","","ballFalling_prac","660","610","263","4","fallScene","false","","","","","","",""
"","","","","","html-keyboard-response","87","2194210","0.0-13.0-4.0-1.1","6786ac17e77313e8449a8912","67619bf32066d179f8b4b1ec","67894a39a3974d34e9cfae92","passed","","null","","","","","","","","","","","","","","null","yesOrNo_prac","","","","4","","","far gt","1000","","","","",""
"","","","","","html-keyboard-response","88","2196326","0.0-13.0-4.0-0.2","6786ac17e77313e8449a8912","67619bf32066d179f8b4b1ec","67894a39a3974d34e9cfae92","passed","","","","","","","","","","","","","","","","","ballFalling_prac","340","334","350","3","fallScene","true","","","","","","",""
"","","","","","html-keyboard-response","89","2197327","0.0-13.0-4.0-1.2","6786ac17e77313e8449a8912","67619bf32066d179f8b4b1ec","67894a39a3974d34e9cfae92","passed","","null","","","","","","","","","","","","","","null","yesOrNo_prac","","","","3","","","close gt","1000","","","","",""
"","","","","","instructions","90","2202933","0.0-13.0-5.0","6786ac17e77313e8449a8912","67619bf32066d179f8b4b1ec","67894a39a3974d34e9cfae92","passed","[{""page_index"":0,""viewing_time"":5606}]","5606","","","","","","","","","","","","","","","","","","","","","","","","","","","",""
"","","","","","html-keyboard-response","91","2206685","0.0-13.0-6.0","6786ac17e77313e8449a8912","67619bf32066d179f8b4b1ec","67894a39a3974d34e9cfae92","passed","","3751","","","","","","","","","","","","","<p><span style=""font-size:40px;"">Practice Test BLOCK 1</span></p><p><span style=""font-size:25px;"">You have <strong>1 second(s)</strong> to respond to the following trials.</span><br></p><p id=""blinking-text"" style=""font-weight; animation: blink 2s infinite;"">Press Space to continue</p><style>
                    @keyframes blink {
                        50% {
                            opacity: 0;
                        }
                    }
                </style>"," ","","","","","","","","","","","","","",""
"","","","","","html-keyboard-response","92","2208260","0.0-13.0-7.0-0.0","6786ac17e77313e8449a8912","67619bf32066d179f8b4b1ec","67894a39a3974d34e9cfae92","passed","","","","","","","","","","","","","","","","","ballFalling_prac","559","586","302","5","fallScene","false","","","","","","",""
"","","","","","html-keyboard-response","93","2208492","0.0-13.0-7.0-1.0","6786ac17e77313e8449a8912","67619bf32066d179f8b4b1ec","67894a39a3974d34e9cfae92","passed","","231","","","","","","","","","","","","","","j","yesOrNo_prac","","","","5","","","gt","1000","","","","",""
"","","","","","html-keyboard-response","94","2210063","0.0-13.0-7.0-0.1","6786ac17e77313e8449a8912","67619bf32066d179f8b4b1ec","67894a39a3974d34e9cfae92","passed","","","","","","","","","","","","","","","","","ballFalling_prac","340","390","263","4","fallScene","true","","","","","","",""
"","","","","","html-keyboard-response","95","2210820","0.0-13.0-7.0-1.1","6786ac17e77313e8449a8912","67619bf32066d179f8b4b1ec","67894a39a3974d34e9cfae92","passed","","756","","","","","","","","","","","","","","f","yesOrNo_prac","","","","4","","","far gt","1000","","","","",""
"","","","","","html-keyboard-response","96","2212376","0.0-13.0-7.0-0.2","6786ac17e77313e8449a8912","67619bf32066d179f8b4b1ec","67894a39a3974d34e9cfae92","passed","","","","","","","","","","","","","","","","","ballFalling_prac","441","500","317","6","fallScene","true","","","","","","",""
"","","","","","html-keyboard-response","97","2212922","0.0-13.0-7.0-1.2","6786ac17e77313e8449a8912","67619bf32066d179f8b4b1ec","67894a39a3974d34e9cfae92","passed","","545","","","","","","","","","","","","","","f","yesOrNo_prac","","","","6","","","close gt","1000","","","","",""
"","","","","","html-keyboard-response","98","2214107","0.0-13.0-8.0","6786ac17e77313e8449a8912","67619bf32066d179f8b4b1ec","67894a39a3974d34e9cfae92","passed","","1185","","","","","","","","","","","","","<p><span style=""font-size:40px;"">Practice Test BLOCK 2</span></p><p><span style=""font-size:25px;"">You have <strong>3 second(s)</strong> to respond to the following trials.</span><br></p><p id=""blinking-text"" style=""font-weight; animation: blink 2s infinite;"">Press Space to continue</p><style>
                    @keyframes blink {
                        50% {
                            opacity: 0;
                        }
                    }
                </style>"," ","","","","","","","","","","","","","",""
"","","","","","html-keyboard-response","99","2215685","0.0-13.0-9.0-0.0","6786ac17e77313e8449a8912","67619bf32066d179f8b4b1ec","67894a39a3974d34e9cfae92","passed","","","","","","","","","","","","","","","","","ballFalling_prac","559","586","302","5","fallScene","false","","","","","","",""
"","","","","","html-keyboard-response","100","2215764","0.0-13.0-9.0-1.0","6786ac17e77313e8449a8912","67619bf32066d179f8b4b1ec","67894a39a3974d34e9cfae92","passed","","78","","","","","","","","","","","","","","j","yesOrNo_prac","","","","5","","","far gt","3000","","","","",""
"","","","","","html-keyboard-response","101","2217353","0.0-13.0-9.0-0.1","6786ac17e77313e8449a8912","67619bf32066d179f8b4b1ec","67894a39a3974d34e9cfae92","passed","","","","","","","","","","","","","","","","","ballFalling_prac","416","365","249","2","fallScene","false","","","","","","",""
"","","","","","html-keyboard-response","102","2217648","0.0-13.0-9.0-1.1","6786ac17e77313e8449a8912","67619bf32066d179f8b4b1ec","67894a39a3974d34e9cfae92","passed","","294","","","","","","","","","","","","","","f","yesOrNo_prac","","","","2","","","gt","3000","","","","",""
"","","","","","html-keyboard-response","103","2219228","0.0-13.0-9.0-0.2","6786ac17e77313e8449a8912","67619bf32066d179f8b4b1ec","67894a39a3974d34e9cfae92","passed","","","","","","","","","","","","","","","","","ballFalling_prac","340","390","263","4","fallScene","true","","","","","","",""
"","","","","","html-keyboard-response","104","2219570","0.0-13.0-9.0-1.2","6786ac17e77313e8449a8912","67619bf32066d179f8b4b1ec","67894a39a3974d34e9cfae92","passed","","340","","","","","","","","","","","","","","j","yesOrNo_prac","","","","4","","","close gt","3000","","","","",""
"","","","","","instructions","105","2222180","0.0-14.0","6786ac17e77313e8449a8912","67619bf32066d179f8b4b1ec","67894a39a3974d34e9cfae92","passed","[{""page_index"":0,""viewing_time"":2610}]","2610","","","","","","","","","","","","","","","","","","","","","","","","","","","",""
"","","","","","html-keyboard-response","106","2225152","0.0-15.0","6786ac17e77313e8449a8912","67619bf32066d179f8b4b1ec","67894a39a3974d34e9cfae92","passed","","2971","","","","","","","","","","","","","<p><span style=""font-size:40px;"">BLOCK 1</span></p><p><span style=""font-size:25px;"">You have <strong>3 second(s)</strong> to respond to the following trials.</span><br></p><p></p> <!-- Blank line -->
                <p id=""blinking-text"" style=""font-weight; animation: blink 2s infinite;"">Press Space to continue</p>
                <style>
                    @keyframes blink {
                        50% {
                            opacity: 0;
                        }
                    }
                </style></p>"," ","","","","","","","","","","","","","",""
"","","","","","html-keyboard-response","107","2226709","0.0-16.0-0.0","6786ac17e77313e8449a8912","67619bf32066d179f8b4b1ec","67894a39a3974d34e9cfae92","passed","","","","","","","","","","","","","","","","","ballFalling","322.3","356.42114317029973","357.87","4","fallScene","false","","","","","1","",""
"","","","","","html-keyboard-response","108","2226921","0.0-16.0-1.0","6786ac17e77313e8449a8912","67619bf32066d179f8b4b1ec","67894a39a3974d34e9cfae92","passed","","211","","","","","","","","","","","","","","j","yesOrNo","","","","4","","","gt","3000","","","1","356.42114317029973","357.87"
"","","","","","html-keyboard-response","109","2228476","0.0-16.0-0.1","6786ac17e77313e8449a8912","67619bf32066d179f8b4b1ec","67894a39a3974d34e9cfae92","passed","","","","","","","","","","","","","","","","","ballFalling","500","453.67114317029973","210.33","5","fallScene","false","","","","","2","",""
"","","","","","html-keyboard-response","110","2229211","0.0-16.0-1.1","6786ac17e77313e8449a8912","67619bf32066d179f8b4b1ec","67894a39a3974d34e9cfae92","passed","","734","","","","","","","","","","","","","","f","yesOrNo","","","","5","","","mid","3000","","","2","499","300"
"","","","","","html-keyboard-response","111","2230776","0.0-16.0-0.2","6786ac17e77313e8449a8912","67619bf32066d179f8b4b1ec","67894a39a3974d34e9cfae92","passed","","","","","","","","","","","","","","","","","ballFalling","500","453.67114317029973","210.33","5","fallScene","true","","","","","3","",""
"","","","","","html-keyboard-response","112","2231116","0.0-16.0-1.2","6786ac17e77313e8449a8912","67619bf32066d179f8b4b1ec","67894a39a3974d34e9cfae92","passed","","339","","","","","","","","","","","","","","j","yesOrNo","","","","5","","","gt","3000","","","3","453.6711431702998","210.33"
"","","","","","html-keyboard-response","113","2232676","0.0-16.0-0.3","6786ac17e77313e8449a8912","67619bf32066d179f8b4b1ec","67894a39a3974d34e9cfae92","passed","","","","","","","","","","","","","","","","","ballFalling","322.3","296.07114317029976","371.46","3","fallScene","true","","","","","4","",""
"","","","","","html-keyboard-response","114","2233192","0.0-16.0-1.3","6786ac17e77313e8449a8912","67619bf32066d179f8b4b1ec","67894a39a3974d34e9cfae92","passed","","515","","","","","","","","","","","","","","j","yesOrNo","","","","3","","","mid","3000","","","4","321.3","300"
"","","","","","html-keyboard-response","115","2234676","0.0-16.0-0.4","6786ac17e77313e8449a8912","67619bf32066d179f8b4b1ec","67894a39a3974d34e9cfae92","passed","","","","","","","","","","","","","","","","","ballFalling","604.4000000000001","667.6211431702998","201.78","9","fallScene","true","","","","","5","",""
"","","","","","html-keyboard-response","116","2235269","0.0-16.0-1.4","6786ac17e77313e8449a8912","67619bf32066d179f8b4b1ec","67894a39a3974d34e9cfae92","passed","","592","","","","","","","","","","","","","","f","yesOrNo","","","","9","","","lp","3000","","","5","605.4000000000001","151"
"","","","","","html-keyboard-response","117","2236826","0.0-16.0-0.5","6786ac17e77313e8449a8912","67619bf32066d179f8b4b1ec","67894a39a3974d34e9cfae92","passed","","","","","","","","","","","","","","","","","ballFalling","322.3","296.07114317029976","371.46","3","fallScene","false","","","","","6","",""
"","","","","","html-keyboard-response","118","2237814","0.0-16.0-1.5","6786ac17e77313e8449a8912","67619bf32066d179f8b4b1ec","67894a39a3974d34e9cfae92","passed","","986","","","","","","","","","","","","","","j","yesOrNo","","","","3","","","gt","3000","","","6","296.07114317029976","371.46"
"","","","","","html-keyboard-response","119","2239476","0.0-16.0-0.6","6786ac17e77313e8449a8912","67619bf32066d179f8b4b1ec","67894a39a3974d34e9cfae92","passed","","","","","","","","","","","","","","","","","ballFalling","500","479.92114317029973","330.87","6","fallScene","true","","","","","7","",""
"","","","","","html-keyboard-response","120","2239966","0.0-16.0-1.6","6786ac17e77313e8449a8912","67619bf32066d179f8b4b1ec","67894a39a3974d34e9cfae92","passed","","489","","","","","","","","","","","","","","j","yesOrNo","","","","6","","","lp","3000","","","7","499","189.92909825697632"
"","","","","","html-keyboard-response","121","2241976","0.0-16.0-0.7","6786ac17e77313e8449a8912","67619bf32066d179f8b4b1ec","67894a39a3974d34e9cfae92","passed","","","","","","","","","","","","","","","","","ballFalling","604.4000000000001","596.8711431702998","394.5","10","fallScene","true","","","","","8","",""
"","","","","","html-keyboard-response","122","2242897","0.0-16.0-1.7","6786ac17e77313e8449a8912","67619bf32066d179f8b4b1ec","67894a39a3974d34e9cfae92","passed","","920","","","","","","","","","","","","","","j","yesOrNo","","","","10","","","lp","3000","","","8","603.4000000000001","215.50214355555383"
"","","","","","html-keyboard-response","123","2244692","0.0-16.0-0.8","6786ac17e77313e8449a8912","67619bf32066d179f8b4b1ec","67894a39a3974d34e9cfae92","passed","","","","","","","","","","","","","","","","","ballFalling","322.3","308.07114317029976","253.89","2","fallScene","false","","","","","9","",""
"","","","","","html-keyboard-response","124","2245324","0.0-16.0-1.8","6786ac17e77313e8449a8912","67619bf32066d179f8b4b1ec","67894a39a3974d34e9cfae92","passed","","630","","","","","","","","","","","","","","f","yesOrNo","","","","2","","","lp","3000","","","9","321.3","151"
"","","","","","html-keyboard-response","125","2247326","0.0-16.0-0.9","6786ac17e77313e8449a8912","67619bf32066d179f8b4b1ec","67894a39a3974d34e9cfae92","passed","","","","","","","","","","","","","","","","","ballFalling","604.4000000000001","596.8711431702998","394.5","10","fallScene","false","","","","","10","",""
"","","","","","html-keyboard-response","126","2248330","0.0-16.0-1.9","6786ac17e77313e8449a8912","67619bf32066d179f8b4b1ec","67894a39a3974d34e9cfae92","passed","","1003","","","","","","","","","","","","","","f","yesOrNo","","","","10","","","mid","3000","","","10","536.4288568297004","300"
"","","","","","html-keyboard-response","127","2249893","0.0-16.0-0.10","6786ac17e77313e8449a8912","67619bf32066d179f8b4b1ec","67894a39a3974d34e9cfae92","passed","","","","","","","","","","","","","","","","","ballFalling","322.3","379.3711431702997","245.25","1","fallScene","true","","","","","11","",""
"","","","","","html-keyboard-response","128","2250718","0.0-16.0-1.10","6786ac17e77313e8449a8912","67619bf32066d179f8b4b1ec","67894a39a3974d34e9cfae92","passed","","825","","","","","","","","","","","","","","j","yesOrNo","","","","1","","","lp","3000","","","11","323.3","217.74551669457017"
"","","","","","html-keyboard-response","129","2252276","0.0-16.0-0.11","6786ac17e77313e8449a8912","67619bf32066d179f8b4b1ec","67894a39a3974d34e9cfae92","passed","","","","","","","","","","","","","","","","","ballFalling","604.4000000000001","575.4211431702997","266.76","12","fallScene","false","","","","","12","",""
"","","","","","html-keyboard-response","130","2255277","0.0-16.0-1.11","6786ac17e77313e8449a8912","67619bf32066d179f8b4b1ec","67894a39a3974d34e9cfae92","passed","","null","","","","","","","","","","","","","","null","yesOrNo","","","","12","","","mid","3000","","","12","536.4288568297004","300"
"","","","","","html-keyboard-response","131","2256860","0.0-16.0-0.12","6786ac17e77313e8449a8912","67619bf32066d179f8b4b1ec","67894a39a3974d34e9cfae92","passed","","","","","","","","","","","","","","","","","ballFalling","500","553.4711431702997","282.51","7","fallScene","true","","","","","13","",""
"","","","","","html-keyboard-response","132","2257239","0.0-16.0-1.12","6786ac17e77313e8449a8912","67619bf32066d179f8b4b1ec","67894a39a3974d34e9cfae92","passed","","378","","","","","","","","","","","","","","j","yesOrNo","","","","7","","","mid","3000","","","13","501","300"
"","","","","","html-keyboard-response","133","2258793","0.0-16.0-0.13","6786ac17e77313e8449a8912","67619bf32066d179f8b4b1ec","67894a39a3974d34e9cfae92","passed","","","","","","","","","","","","","","","","","ballFalling","322.3","379.3711431702997","245.25","1","fallScene","true","","","","","14","",""
"","","","","","html-keyboard-response","134","2260248","0.0-16.0-1.13","6786ac17e77313e8449a8912","67619bf32066d179f8b4b1ec","67894a39a3974d34e9cfae92","passed","","1455","","","","","","","","","","","","","","f","yesOrNo","","","","1","","","mid","3000","","","14","390.27114317029975","300"
"","","","","","html-keyboard-response","135","2261809","0.0-16.0-0.14","6786ac17e77313e8449a8912","67619bf32066d179f8b4b1ec","67894a39a3974d34e9cfae92","passed","","","","","","","","","","","","","","","","","ballFalling","500","453.67114317029973","210.33","5","fallScene","false","","","","","15","",""
"","","","","","html-keyboard-response","136","2263717","0.0-16.0-1.14","6786ac17e77313e8449a8912","67619bf32066d179f8b4b1ec","67894a39a3974d34e9cfae92","passed","","1908","","","","","","","","","","","","","","j","yesOrNo","","","","5","","","lp","3000","","","15","499","151"
"","","","","","html-keyboard-response","137","2265292","0.0-16.0-0.15","6786ac17e77313e8449a8912","67619bf32066d179f8b4b1ec","67894a39a3974d34e9cfae92","passed","","","","","","","","","","","","","","","","","ballFalling","500","553.4711431702997","282.51","7","fallScene","true","","","","","16","",""
"","","","","","html-keyboard-response","138","2267404","0.0-16.0-1.15","6786ac17e77313e8449a8912","67619bf32066d179f8b4b1ec","67894a39a3974d34e9cfae92","passed","","2110","","","","","","","","","","","","","","f","yesOrNo","","","","7","","","gt","3000","","","16","553.4711431702997","282.51"
"","","","","","html-keyboard-response","139","2268959","0.0-16.0-0.16","6786ac17e77313e8449a8912","67619bf32066d179f8b4b1ec","67894a39a3974d34e9cfae92","passed","","","","","","","","","","","","","","","","","ballFalling","322.3","379.3711431702997","245.25","1","fallScene","true","","","","","17","",""
"","","","","","html-keyboard-response","140","2269908","0.0-16.0-1.16","6786ac17e77313e8449a8912","67619bf32066d179f8b4b1ec","67894a39a3974d34e9cfae92","passed","","947","","","","","","","","","","","","","","j","yesOrNo","","","","1","","","gt","3000","","","17","379.3711431702997","245.25"
"","","","","","html-keyboard-response","141","2271393","0.0-16.0-0.17","6786ac17e77313e8449a8912","67619bf32066d179f8b4b1ec","67894a39a3974d34e9cfae92","passed","","","","","","","","","","","","","","","","","ballFalling","604.4000000000001","667.6211431702998","201.78","9","fallScene","false","","","","","18","",""
"","","","","","html-keyboard-response","142","2272449","0.0-16.0-1.17","6786ac17e77313e8449a8912","67619bf32066d179f8b4b1ec","67894a39a3974d34e9cfae92","passed","","1055","","","","","","","","","","","","","","f","yesOrNo","","","","9","","","gt","3000","","","18","667.6211431702998","201.78"
"","","","","","html-keyboard-response","143","2274026","0.0-16.0-0.18","6786ac17e77313e8449a8912","67619bf32066d179f8b4b1ec","67894a39a3974d34e9cfae92","passed","","","","","","","","","","","","","","","","","ballFalling","500","553.4711431702997","282.51","7","fallScene","true","","","","","19","",""
"","","","","","html-keyboard-response","144","2274585","0.0-16.0-1.18","6786ac17e77313e8449a8912","67619bf32066d179f8b4b1ec","67894a39a3974d34e9cfae92","passed","","558","","","","","","","","","","","","","","j","yesOrNo","","","","7","","","lp","3000","","","19","501","227.2843295913261"
"","","","","","html-keyboard-response","145","2276143","0.0-16.0-0.19","6786ac17e77313e8449a8912","67619bf32066d179f8b4b1ec","67894a39a3974d34e9cfae92","passed","","","","","","","","","","","","","","","","","ballFalling","322.3","356.42114317029973","357.87","4","fallScene","true","","","","","20","",""
"","","","","","html-keyboard-response","146","2278288","0.0-16.0-1.19","6786ac17e77313e8449a8912","67619bf32066d179f8b4b1ec","67894a39a3974d34e9cfae92","passed","","2145","","","","","","","","","","","","","","j","yesOrNo","","","","4","","","gt","3000","","","20","356.42114317029973","357.87"
"","","","","","html-keyboard-response","147","2279843","0.0-16.0-0.20","6786ac17e77313e8449a8912","67619bf32066d179f8b4b1ec","67894a39a3974d34e9cfae92","passed","","","","","","","","","","","","","","","","","ballFalling","604.4000000000001","650.0211431702996","404.58000000000004","11","fallScene","true","","","","","21","",""
"","","","","","html-keyboard-response","148","2280657","0.0-16.0-1.20","6786ac17e77313e8449a8912","67619bf32066d179f8b4b1ec","67894a39a3974d34e9cfae92","passed","","813","","","","","","","","","","","","","","f","yesOrNo","","","","11","","","mid","3000","","","21","605.4000000000001","300"
"","","","","","html-keyboard-response","149","2282209","0.0-16.0-0.21","6786ac17e77313e8449a8912","67619bf32066d179f8b4b1ec","67894a39a3974d34e9cfae92","passed","","","","","","","","","","","","","","","","","ballFalling","604.4000000000001","650.0211431702996","404.58000000000004","11","fallScene","false","","","","","22","",""
"","","","","","html-keyboard-response","150","2282425","0.0-16.0-1.21","6786ac17e77313e8449a8912","67619bf32066d179f8b4b1ec","67894a39a3974d34e9cfae92","passed","","215","","","","","","","","","","","","","","j","yesOrNo","","","","11","","","mid","3000","","","22","605.4000000000001","300"
"","","","","","html-keyboard-response","151","2284209","0.0-16.0-0.22","6786ac17e77313e8449a8912","67619bf32066d179f8b4b1ec","67894a39a3974d34e9cfae92","passed","","","","","","","","","","","","","","","","","ballFalling","322.3","308.07114317029976","253.89","2","fallScene","true","","","","","23","",""
"","","","","","html-keyboard-response","152","2284699","0.0-16.0-1.22","6786ac17e77313e8449a8912","67619bf32066d179f8b4b1ec","67894a39a3974d34e9cfae92","passed","","489","","","","","","","","","","","","","","j","yesOrNo","","","","2","","","gt","3000","","","23","308.07114317029976","253.89"
"","","","","","html-keyboard-response","153","2286259","0.0-16.0-0.23","6786ac17e77313e8449a8912","67619bf32066d179f8b4b1ec","67894a39a3974d34e9cfae92","passed","","","","","","","","","","","","","","","","","ballFalling","322.3","296.07114317029976","371.46","3","fallScene","true","","","","","24","",""
"","","","","","html-keyboard-response","154","2286930","0.0-16.0-1.23","6786ac17e77313e8449a8912","67619bf32066d179f8b4b1ec","67894a39a3974d34e9cfae92","passed","","670","","","","","","","","","","","","","","f","yesOrNo","","","","3","","","gt","3000","","","24","296.07114317029976","371.46"
"","","","","","html-keyboard-response","155","2288949","0.0-17.0","6786ac17e77313e8449a8912","67619bf32066d179f8b4b1ec","67894a39a3974d34e9cfae92","passed","","2018","","","","","","","","","","","","","<p><span style=""font-size:40px;"">BLOCK 2</span></p><p><span style=""font-size:25px;"">You have <strong>1 second(s)</strong> to respond to the following trials.</span><br></p><p></p> <!-- Blank line -->
                <p id=""blinking-text"" style=""font-weight; animation: blink 2s infinite;"">Press Space to continue</p>
                <style>
                    @keyframes blink {
                        50% {
                            opacity: 0;
                        }
                    }
                </style></p>"," ","","","","","","","","","","","","","",""
"","","","","","html-keyboard-response","156","2290509","0.0-18.0-0.0","6786ac17e77313e8449a8912","67619bf32066d179f8b4b1ec","67894a39a3974d34e9cfae92","passed","","","","","","","","","","","","","","","","","ballFalling","604.4000000000001","650.0211431702996","404.58000000000004","11","fallScene","true","","","","","25","",""
"","","","","","html-keyboard-response","157","2290781","0.0-18.0-1.0","6786ac17e77313e8449a8912","67619bf32066d179f8b4b1ec","67894a39a3974d34e9cfae92","passed","","271","","","","","","","","","","","","","","j","yesOrNo","","","","11","","","lp","1000","","","25","605.4000000000001","372.6340973215488"
"","","","","","html-keyboard-response","158","2292343","0.0-18.0-0.1","6786ac17e77313e8449a8912","67619bf32066d179f8b4b1ec","67894a39a3974d34e9cfae92","passed","","","","","","","","","","","","","","","","","ballFalling","604.4000000000001","575.4211431702997","266.76","12","fallScene","true","","","","","26","",""
"","","","","","html-keyboard-response","159","2292892","0.0-18.0-1.1","6786ac17e77313e8449a8912","67619bf32066d179f8b4b1ec","67894a39a3974d34e9cfae92","passed","","548","","","","","","","","","","","","","","f","yesOrNo","","","","12","","","lp","1000","","","26","603.4000000000001","151"
"","","","","","html-keyboard-response","160","2294892","0.0-18.0-0.2","6786ac17e77313e8449a8912","67619bf32066d179f8b4b1ec","67894a39a3974d34e9cfae92","passed","","","","","","","","","","","","","","","","","ballFalling","500","510.8711431702997","369.03","8","fallScene","false","","","","","27","",""
"","","","","","html-keyboard-response","161","2295359","0.0-18.0-1.2","6786ac17e77313e8449a8912","67619bf32066d179f8b4b1ec","67894a39a3974d34e9cfae92","passed","","466","","","","","","","","","","","","","","j","yesOrNo","","","","8","","","gt","1000","","","27","510.8711431702997","369.03"
"","","","","","html-keyboard-response","162","2296927","0.0-18.0-0.3","6786ac17e77313e8449a8912","67619bf32066d179f8b4b1ec","67894a39a3974d34e9cfae92","passed","","","","","","","","","","","","","","","","","ballFalling","500","453.67114317029973","210.33","5","fallScene","true","","","","","28","",""
"","","","","","html-keyboard-response","163","2297594","0.0-18.0-1.3","6786ac17e77313e8449a8912","67619bf32066d179f8b4b1ec","67894a39a3974d34e9cfae92","passed","","666","","","","","","","","","","","","","","j","yesOrNo","","","","5","","","lp","1000","","","28","499","151"
"","","","","","html-keyboard-response","164","2299159","0.0-18.0-0.4","6786ac17e77313e8449a8912","67619bf32066d179f8b4b1ec","67894a39a3974d34e9cfae92","passed","","","","","","","","","","","","","","","","","ballFalling","604.4000000000001","575.4211431702997","266.76","12","fallScene","true","","","","","29","",""
"","","","","","html-keyboard-response","165","2299960","0.0-18.0-1.4","6786ac17e77313e8449a8912","67619bf32066d179f8b4b1ec","67894a39a3974d34e9cfae92","passed","","799","","","","","","","","","","","","","","j","yesOrNo","","","","12","","","lp","1000","","","29","603.4000000000001","151"
"","","","","","html-keyboard-response","166","2301543","0.0-18.0-0.5","6786ac17e77313e8449a8912","67619bf32066d179f8b4b1ec","67894a39a3974d34e9cfae92","passed","","","","","","","","","","","","","","","","","ballFalling","500","553.4711431702997","282.51","7","fallScene","true","","","","","30","",""
"","","","","","html-keyboard-response","167","2302115","0.0-18.0-1.5","6786ac17e77313e8449a8912","67619bf32066d179f8b4b1ec","67894a39a3974d34e9cfae92","passed","","572","","","","","","","","","","","","","","j","yesOrNo","","","","7","","","mid","1000","","","30","501","300"
"","","","","","html-keyboard-response","168","2303609","0.0-18.0-0.6","6786ac17e77313e8449a8912","67619bf32066d179f8b4b1ec","67894a39a3974d34e9cfae92","passed","","","","","","","","","","","","","","","","","ballFalling","604.4000000000001","667.6211431702998","201.78","9","fallScene","false","","","","","31","",""
"","","","","","html-keyboard-response","169","2304214","0.0-18.0-1.6","6786ac17e77313e8449a8912","67619bf32066d179f8b4b1ec","67894a39a3974d34e9cfae92","passed","","603","","","","","","","","","","","","","","f","yesOrNo","","","","9","","","gt","1000","","","31","667.6211431702998","201.78"
"","","","","","html-keyboard-response","170","2305776","0.0-18.0-0.7","6786ac17e77313e8449a8912","67619bf32066d179f8b4b1ec","67894a39a3974d34e9cfae92","passed","","","","","","","","","","","","","","","","","ballFalling","322.3","356.42114317029973","357.87","4","fallScene","false","","","","","32","",""
"","","","","","html-keyboard-response","171","2306465","0.0-18.0-1.7","6786ac17e77313e8449a8912","67619bf32066d179f8b4b1ec","67894a39a3974d34e9cfae92","passed","","689","","","","","","","","","","","","","","j","yesOrNo","","","","4","","","lp","1000","","","32","323.3","297.4070551689986"
"","","","","","html-keyboard-response","172","2308126","0.0-18.0-0.8","6786ac17e77313e8449a8912","67619bf32066d179f8b4b1ec","67894a39a3974d34e9cfae92","passed","","","","","","","","","","","","","","","","","ballFalling","500","479.92114317029973","330.87","6","fallScene","false","","","","","33","",""
"","","","","","html-keyboard-response","173","2309065","0.0-18.0-1.8","6786ac17e77313e8449a8912","67619bf32066d179f8b4b1ec","67894a39a3974d34e9cfae92","passed","","939","","","","","","","","","","","","","","j","yesOrNo","","","","6","","","gt","1000","","","33","479.9211431702998","330.87"
"","","","","","html-keyboard-response","174","2310626","0.0-18.0-0.9","6786ac17e77313e8449a8912","67619bf32066d179f8b4b1ec","67894a39a3974d34e9cfae92","passed","","","","","","","","","","","","","","","","","ballFalling","500","453.67114317029973","210.33","5","fallScene","false","","","","","34","",""
"","","","","","html-keyboard-response","175","2311630","0.0-18.0-1.9","6786ac17e77313e8449a8912","67619bf32066d179f8b4b1ec","67894a39a3974d34e9cfae92","passed","","null","","","","","","","","","","","","","","null","yesOrNo","","","","5","","","lp","1000","","","34","499","151"
"","","","","","html-keyboard-response","176","2313426","0.0-18.0-0.10","6786ac17e77313e8449a8912","67619bf32066d179f8b4b1ec","67894a39a3974d34e9cfae92","passed","","","","","","","","","","","","","","","","","ballFalling","322.3","308.07114317029976","253.89","2","fallScene","true","","","","","35","",""
"","","","","","html-keyboard-response","177","2314434","0.0-18.0-1.10","6786ac17e77313e8449a8912","67619bf32066d179f8b4b1ec","67894a39a3974d34e9cfae92","passed","","null","","","","","","","","","","","","","","null","yesOrNo","","","","2","","","mid","1000","","","35","321.3","300"
"","","","","","html-keyboard-response","178","2316009","0.0-18.0-0.11","6786ac17e77313e8449a8912","67619bf32066d179f8b4b1ec","67894a39a3974d34e9cfae92","passed","","","","","","","","","","","","","","","","","ballFalling","500","553.4711431702997","282.51","7","fallScene","true","","","","","36","",""
"","","","","","html-keyboard-response","179","2316165","0.0-18.0-1.11","6786ac17e77313e8449a8912","67619bf32066d179f8b4b1ec","67894a39a3974d34e9cfae92","passed","","155","","","","","","","","","","","","","","j","yesOrNo","","","","7","","","lp","1000","","","36","501","227.2843295913261"
"","","","","","html-keyboard-response","180","2317738","0.0-18.0-0.12","6786ac17e77313e8449a8912","67619bf32066d179f8b4b1ec","67894a39a3974d34e9cfae92","passed","","","","","","","","","","","","","","","","","ballFalling","322.3","356.42114317029973","357.87","4","fallScene","true","","","","","37","",""
"","","","","","html-keyboard-response","181","2318743","0.0-18.0-1.12","6786ac17e77313e8449a8912","67619bf32066d179f8b4b1ec","67894a39a3974d34e9cfae92","passed","","null","","","","","","","","","","","","","","null","yesOrNo","","","","4","","","mid","1000","","","37","390.27114317029975","300"
"","","","","","html-keyboard-response","182","2320292","0.0-18.0-0.13","6786ac17e77313e8449a8912","67619bf32066d179f8b4b1ec","67894a39a3974d34e9cfae92","passed","","","","","","","","","","","","","","","","","ballFalling","322.3","356.42114317029973","357.87","4","fallScene","false","","","","","38","",""
"","","","","","html-keyboard-response","183","2321306","0.0-18.0-1.13","6786ac17e77313e8449a8912","67619bf32066d179f8b4b1ec","67894a39a3974d34e9cfae92","passed","","null","","","","","","","","","","","","","","null","yesOrNo","","","","4","","","lp","1000","","","38","323.3","297.4070551689986"
"","","","","","html-keyboard-response","184","2323310","0.0-18.0-0.14","6786ac17e77313e8449a8912","67619bf32066d179f8b4b1ec","67894a39a3974d34e9cfae92","passed","","","","","","","","","","","","","","","","","ballFalling","604.4000000000001","596.8711431702998","394.5","10","fallScene","true","","","","","39","",""
"","","","","","html-keyboard-response","185","2323483","0.0-18.0-1.14","6786ac17e77313e8449a8912","67619bf32066d179f8b4b1ec","67894a39a3974d34e9cfae92","passed","","172","","","","","","","","","","","","","","f","yesOrNo","","","","10","","","mid","1000","","","39","536.4288568297004","300"
"","","","","","html-keyboard-response","186","2325059","0.0-18.0-0.15","6786ac17e77313e8449a8912","67619bf32066d179f8b4b1ec","67894a39a3974d34e9cfae92","passed","","","","","","","","","","","","","","","","","ballFalling","500","553.4711431702997","282.51","7","fallScene","true","","","","","40","",""
"","","","","","html-keyboard-response","187","2325736","0.0-18.0-1.15","6786ac17e77313e8449a8912","67619bf32066d179f8b4b1ec","67894a39a3974d34e9cfae92","passed","","676","","","","","","","","","","","","","","j","yesOrNo","","","","7","","","gt","1000","","","40","553.4711431702997","282.51"
"","","","","","html-keyboard-response","188","2327292","0.0-18.0-0.16","6786ac17e77313e8449a8912","67619bf32066d179f8b4b1ec","67894a39a3974d34e9cfae92","passed","","","","","","","","","","","","","","","","","ballFalling","322.3","379.3711431702997","245.25","1","fallScene","false","","","","","41","",""
"","","","","","html-keyboard-response","189","2327834","0.0-18.0-1.16","6786ac17e77313e8449a8912","67619bf32066d179f8b4b1ec","67894a39a3974d34e9cfae92","passed","","541","","","","","","","","","","","","","","j","yesOrNo","","","","1","","","gt","1000","","","41","379.3711431702997","245.25"
"","","","","","html-keyboard-response","190","2329393","0.0-18.0-0.17","6786ac17e77313e8449a8912","67619bf32066d179f8b4b1ec","67894a39a3974d34e9cfae92","passed","","","","","","","","","","","","","","","","","ballFalling","322.3","379.3711431702997","245.25","1","fallScene","true","","","","","42","",""
"","","","","","html-keyboard-response","191","2329931","0.0-18.0-1.17","6786ac17e77313e8449a8912","67619bf32066d179f8b4b1ec","67894a39a3974d34e9cfae92","passed","","537","","","","","","","","","","","","","","j","yesOrNo","","","","1","","","mid","1000","","","42","390.27114317029975","300"
"","","","","","html-keyboard-response","192","2331502","0.0-18.0-0.18","6786ac17e77313e8449a8912","67619bf32066d179f8b4b1ec","67894a39a3974d34e9cfae92","passed","","","","","","","","","","","","","","","","","ballFalling","604.4000000000001","650.0211431702996","404.58000000000004","11","fallScene","true","","","","","43","",""
"","","","","","html-keyboard-response","193","2331988","0.0-18.0-1.18","6786ac17e77313e8449a8912","67619bf32066d179f8b4b1ec","67894a39a3974d34e9cfae92","passed","","486","","","","","","","","","","","","","","j","yesOrNo","","","","11","","","lp","1000","","","43","605.4000000000001","372.6340973215488"
"","","","","","html-keyboard-response","194","2333542","0.0-18.0-0.19","6786ac17e77313e8449a8912","67619bf32066d179f8b4b1ec","67894a39a3974d34e9cfae92","passed","","","","","","","","","","","","","","","","","ballFalling","322.3","356.42114317029973","357.87","4","fallScene","false","","","","","44","",""
"","","","","","html-keyboard-response","195","2334047","0.0-18.0-1.19","6786ac17e77313e8449a8912","67619bf32066d179f8b4b1ec","67894a39a3974d34e9cfae92","passed","","504","","","","","","","","","","","","","","j","yesOrNo","","","","4","","","gt","1000","","","44","356.42114317029973","357.87"
"","","","","","html-keyboard-response","196","2336059","0.0-18.0-0.20","6786ac17e77313e8449a8912","67619bf32066d179f8b4b1ec","67894a39a3974d34e9cfae92","passed","","","","","","","","","","","","","","","","","ballFalling","604.4000000000001","596.8711431702998","394.5","10","fallScene","false","","","","","45","",""
"","","","","","html-keyboard-response","197","2336570","0.0-18.0-1.20","6786ac17e77313e8449a8912","67619bf32066d179f8b4b1ec","67894a39a3974d34e9cfae92","passed","","511","","","","","","","","","","","","","","f","yesOrNo","","","","10","","","lp","1000","","","45","603.4000000000001","215.50214355555383"
"","","","","","html-keyboard-response","198","2338126","0.0-18.0-0.21","6786ac17e77313e8449a8912","67619bf32066d179f8b4b1ec","67894a39a3974d34e9cfae92","passed","","","","","","","","","","","","","","","","","ballFalling","500","453.67114317029973","210.33","5","fallScene","true","","","","","46","",""
"","","","","","html-keyboard-response","199","2338751","0.0-18.0-1.21","6786ac17e77313e8449a8912","67619bf32066d179f8b4b1ec","67894a39a3974d34e9cfae92","passed","","625","","","","","","","","","","","","","","j","yesOrNo","","","","5","","","gt","1000","","","46","453.6711431702998","210.33"
"","","","","","html-keyboard-response","200","2340313","0.0-18.0-0.22","6786ac17e77313e8449a8912","67619bf32066d179f8b4b1ec","67894a39a3974d34e9cfae92","passed","","","","","","","","","","","","","","","","","ballFalling","604.4000000000001","575.4211431702997","266.76","12","fallScene","true","","","","","47","",""
"","","","","","html-keyboard-response","201","2341321","0.0-18.0-1.22","6786ac17e77313e8449a8912","67619bf32066d179f8b4b1ec","67894a39a3974d34e9cfae92","passed","","null","","","","","","","","","","","","","","null","yesOrNo","","","","12","","","gt","1000","","","47","575.4211431702997","266.76"
"","","","","","html-keyboard-response","202","2342876","0.0-18.0-0.23","6786ac17e77313e8449a8912","67619bf32066d179f8b4b1ec","67894a39a3974d34e9cfae92","passed","","","","","","","","","","","","","","","","","ballFalling","322.3","379.3711431702997","245.25","1","fallScene","false","","","","","48","",""
"","","","","","html-keyboard-response","203","2343367","0.0-18.0-1.23","6786ac17e77313e8449a8912","67619bf32066d179f8b4b1ec","67894a39a3974d34e9cfae92","passed","","490","","","","","","","","","","","","","","j","yesOrNo","","","","1","","","lp","1000","","","48","323.3","217.74551669457017"
"","","","","","html-keyboard-response","204","2347499","0.0-19.0","6786ac17e77313e8449a8912","67619bf32066d179f8b4b1ec","67894a39a3974d34e9cfae92","passed","","4132","","","","","","","","","","","","","<p><span style=""font-size:40px;"">BLOCK 3</span></p><p><span style=""font-size:25px;"">You have <strong>1 second(s)</strong> to respond to the following trials.</span><br></p><p></p> <!-- Blank line -->
                <p id=""blinking-text"" style=""font-weight; animation: blink 2s infinite;"">Press Space to continue</p>
                <style>
                    @keyframes blink {
                        50% {
                            opacity: 0;
                        }
                    }
                </style></p>"," ","","","","","","","","","","","","","",""
"","","","","","html-keyboard-response","205","2349159","0.0-20.0-0.0","6786ac17e77313e8449a8912","67619bf32066d179f8b4b1ec","67894a39a3974d34e9cfae92","passed","","","","","","","","","","","","","","","","","ballFalling","500","479.92114317029973","330.87","6","fallScene","true","","","","","49","",""
"","","","","","html-keyboard-response","206","2349945","0.0-20.0-1.0","6786ac17e77313e8449a8912","67619bf32066d179f8b4b1ec","67894a39a3974d34e9cfae92","passed","","785","","","","","","","","","","","","","","j","yesOrNo","","","","6","","","lp","1000","","","49","499","189.92909825697632"
"","","","","","html-keyboard-response","207","2351509","0.0-20.0-0.1","6786ac17e77313e8449a8912","67619bf32066d179f8b4b1ec","67894a39a3974d34e9cfae92","passed","","","","","","","","","","","","","","","","","ballFalling","604.4000000000001","650.0211431702996","404.58000000000004","11","fallScene","false","","","","","50","",""
"","","","","","html-keyboard-response","208","2352022","0.0-20.0-1.1","6786ac17e77313e8449a8912","67619bf32066d179f8b4b1ec","67894a39a3974d34e9cfae92","passed","","513","","","","","","","","","","","","","","j","yesOrNo","","","","11","","","mid","1000","","","50","605.4000000000001","300"
"","","","","","html-keyboard-response","209","2354026","0.0-20.0-0.2","6786ac17e77313e8449a8912","67619bf32066d179f8b4b1ec","67894a39a3974d34e9cfae92","passed","","","","","","","","","","","","","","","","","ballFalling","500","510.8711431702997","369.03","8","fallScene","true","","","","","51","",""
"","","","","","html-keyboard-response","210","2354759","0.0-20.0-1.2","6786ac17e77313e8449a8912","67619bf32066d179f8b4b1ec","67894a39a3974d34e9cfae92","passed","","732","","","","","","","","","","","","","","f","yesOrNo","","","","8","","","lp","1000","","","51","501","151"
"","","","","","html-keyboard-response","211","2356326","0.0-20.0-0.3","6786ac17e77313e8449a8912","67619bf32066d179f8b4b1ec","67894a39a3974d34e9cfae92","passed","","","","","","","","","","","","","","","","","ballFalling","322.3","296.07114317029976","371.46","3","fallScene","true","","","","","52","",""
"","","","","","html-keyboard-response","212","2357327","0.0-20.0-1.3","6786ac17e77313e8449a8912","67619bf32066d179f8b4b1ec","67894a39a3974d34e9cfae92","passed","","null","","","","","","","","","","","","","","null","yesOrNo","","","","3","","","mid","1000","","","52","321.3","300"
"","","","","","html-keyboard-response","213","2358892","0.0-20.0-0.4","6786ac17e77313e8449a8912","67619bf32066d179f8b4b1ec","67894a39a3974d34e9cfae92","passed","","","","","","","","","","","","","","","","","ballFalling","322.3","356.42114317029973","357.87","4","fallScene","true","","","","","53","",""
"","","","","","html-keyboard-response","214","2359362","0.0-20.0-1.4","6786ac17e77313e8449a8912","67619bf32066d179f8b4b1ec","67894a39a3974d34e9cfae92","passed","","469","","","","","","","","","","","","","","j","yesOrNo","","","","4","","","gt","1000","","","53","356.42114317029973","357.87"
"","","","","","html-keyboard-response","215","2360926","0.0-20.0-0.5","6786ac17e77313e8449a8912","67619bf32066d179f8b4b1ec","67894a39a3974d34e9cfae92","passed","","","","","","","","","","","","","","","","","ballFalling","604.4000000000001","650.0211431702996","404.58000000000004","11","fallScene","false","","","","","54","",""
"","","","","","html-keyboard-response","216","2361399","0.0-20.0-1.5","6786ac17e77313e8449a8912","67619bf32066d179f8b4b1ec","67894a39a3974d34e9cfae92","passed","","472","","","","","","","","","","","","","","j","yesOrNo","","","","11","","","gt","1000","","","54","650.0211431702996","404.58"
"","","","","","html-keyboard-response","217","2362971","0.0-20.0-0.6","6786ac17e77313e8449a8912","67619bf32066d179f8b4b1ec","67894a39a3974d34e9cfae92","passed","","","","","","","","","","","","","","","","","ballFalling","604.4000000000001","650.0211431702996","404.58000000000004","11","fallScene","false","","","","","55","",""
"","","","","","html-keyboard-response","218","2363361","0.0-20.0-1.6","6786ac17e77313e8449a8912","67619bf32066d179f8b4b1ec","67894a39a3974d34e9cfae92","passed","","389","","","","","","","","","","","","","","j","yesOrNo","","","","11","","","gt","1000","","","55","650.0211431702996","404.58"
"","","","","","html-keyboard-response","219","2364926","0.0-20.0-0.7","6786ac17e77313e8449a8912","67619bf32066d179f8b4b1ec","67894a39a3974d34e9cfae92","passed","","","","","","","","","","","","","","","","","ballFalling","500","453.67114317029973","210.33","5","fallScene","false","","","","","56","",""
"","","","","","html-keyboard-response","220","2365591","0.0-20.0-1.7","6786ac17e77313e8449a8912","67619bf32066d179f8b4b1ec","67894a39a3974d34e9cfae92","passed","","665","","","","","","","","","","","","","","f","yesOrNo","","","","5","","","mid","1000","","","56","499","300"
"","","","","","html-keyboard-response","221","2367142","0.0-20.0-0.8","6786ac17e77313e8449a8912","67619bf32066d179f8b4b1ec","67894a39a3974d34e9cfae92","passed","","","","","","","","","","","","","","","","","ballFalling","604.4000000000001","575.4211431702997","266.76","12","fallScene","false","","","","","57","",""
"","","","","","html-keyboard-response","222","2367884","0.0-20.0-1.8","6786ac17e77313e8449a8912","67619bf32066d179f8b4b1ec","67894a39a3974d34e9cfae92","passed","","740","","","","","","","","","","","","","","f","yesOrNo","","","","12","","","mid","1000","","","57","536.4288568297004","300"
"","","","","","html-keyboard-response","223","2369892","0.0-20.0-0.9","6786ac17e77313e8449a8912","67619bf32066d179f8b4b1ec","67894a39a3974d34e9cfae92","passed","","","","","","","","","","","","","","","","","ballFalling","604.4000000000001","596.8711431702998","394.5","10","fallScene","false","","","","","58","",""
"","","","","","html-keyboard-response","224","2370347","0.0-20.0-1.9","6786ac17e77313e8449a8912","67619bf32066d179f8b4b1ec","67894a39a3974d34e9cfae92","passed","","453","","","","","","","","","","","","","","j","yesOrNo","","","","10","","","gt","1000","","","58","596.8711431702998","394.5"
"","","","","","html-keyboard-response","225","2371926","0.0-20.0-0.10","6786ac17e77313e8449a8912","67619bf32066d179f8b4b1ec","67894a39a3974d34e9cfae92","passed","","","","","","","","","","","","","","","","","ballFalling","500","553.4711431702997","282.51","7","fallScene","true","","","","","59","",""
"","","","","","html-keyboard-response","226","2372546","0.0-20.0-1.10","6786ac17e77313e8449a8912","67619bf32066d179f8b4b1ec","67894a39a3974d34e9cfae92","passed","","618","","","","","","","","","","","","","","j","yesOrNo","","","","7","","","mid","1000","","","59","501","300"
"","","","","","html-keyboard-response","227","2374111","0.0-20.0-0.11","6786ac17e77313e8449a8912","67619bf32066d179f8b4b1ec","67894a39a3974d34e9cfae92","passed","","","","","","","","","","","","","","","","","ballFalling","500","453.67114317029973","210.33","5","fallScene","true","","","","","60","",""
"","","","","","html-keyboard-response","228","2374701","0.0-20.0-1.11","6786ac17e77313e8449a8912","67619bf32066d179f8b4b1ec","67894a39a3974d34e9cfae92","passed","","589","","","","","","","","","","","","","","j","yesOrNo","","","","5","","","mid","1000","","","60","499","300"
"","","","","","html-keyboard-response","229","2376492","0.0-20.0-0.12","6786ac17e77313e8449a8912","67619bf32066d179f8b4b1ec","67894a39a3974d34e9cfae92","passed","","","","","","","","","","","","","","","","","ballFalling","322.3","308.07114317029976","253.89","2","fallScene","true","","","","","61","",""
"","","","","","html-keyboard-response","230","2377283","0.0-20.0-1.12","6786ac17e77313e8449a8912","67619bf32066d179f8b4b1ec","67894a39a3974d34e9cfae92","passed","","790","","","","","","","","","","","","","","f","yesOrNo","","","","2","","","gt","1000","","","61","308.07114317029976","253.89"
"","","","","","html-keyboard-response","231","2379085","0.0-20.0-0.13","6786ac17e77313e8449a8912","67619bf32066d179f8b4b1ec","67894a39a3974d34e9cfae92","passed","","","","","","","","","","","","","","","","","ballFalling","322.3","308.07114317029976","253.89","2","fallScene","false","","","","","62","",""
"","","","","","html-keyboard-response","232","2379594","0.0-20.0-1.13","6786ac17e77313e8449a8912","67619bf32066d179f8b4b1ec","67894a39a3974d34e9cfae92","passed","","508","","","","","","","","","","","","","","j","yesOrNo","","","","2","","","mid","1000","","","62","321.3","300"
"","","","","","html-keyboard-response","233","2381259","0.0-20.0-0.14","6786ac17e77313e8449a8912","67619bf32066d179f8b4b1ec","67894a39a3974d34e9cfae92","passed","","","","","","","","","","","","","","","","","ballFalling","500","479.92114317029973","330.87","6","fallScene","false","","","","","63","",""
"","","","","","html-keyboard-response","234","2382077","0.0-20.0-1.14","6786ac17e77313e8449a8912","67619bf32066d179f8b4b1ec","67894a39a3974d34e9cfae92","passed","","817","","","","","","","","","","","","","","f","yesOrNo","","","","6","","","mid","1000","","","63","499","300"
"","","","","","html-keyboard-response","235","2383643","0.0-20.0-0.15","6786ac17e77313e8449a8912","67619bf32066d179f8b4b1ec","67894a39a3974d34e9cfae92","passed","","","","","","","","","","","","","","","","","ballFalling","322.3","296.07114317029976","371.46","3","fallScene","true","","","","","64","",""
"","","","","","html-keyboard-response","236","2384648","0.0-20.0-1.15","6786ac17e77313e8449a8912","67619bf32066d179f8b4b1ec","67894a39a3974d34e9cfae92","passed","","null","","","","","","","","","","","","","","null","yesOrNo","","","","3","","","mid","1000","","","64","321.3","300"
"","","","","","html-keyboard-response","237","2386309","0.0-20.0-0.16","6786ac17e77313e8449a8912","67619bf32066d179f8b4b1ec","67894a39a3974d34e9cfae92","passed","","","","","","","","","","","","","","","","","ballFalling","500","479.92114317029973","330.87","6","fallScene","true","","","","","65","",""
"","","","","","html-keyboard-response","238","2387381","0.0-20.0-1.16","6786ac17e77313e8449a8912","67619bf32066d179f8b4b1ec","67894a39a3974d34e9cfae92","passed","","null","","","","","","","","","","","","","","null","yesOrNo","","","","6","","","mid","1000","","","65","499","300"
"","","","","","html-keyboard-response","239","2389493","0.0-20.0-0.17","6786ac17e77313e8449a8912","67619bf32066d179f8b4b1ec","67894a39a3974d34e9cfae92","passed","","","","","","","","","","","","","","","","","ballFalling","500","479.92114317029973","330.87","6","fallScene","true","","","","","66","",""
"","","","","","html-keyboard-response","240","2389809","0.0-20.0-1.17","6786ac17e77313e8449a8912","67619bf32066d179f8b4b1ec","67894a39a3974d34e9cfae92","passed","","315","","","","","","","","","","","","","","j","yesOrNo","","","","6","","","gt","1000","","","66","479.9211431702998","330.87"
"","","","","","html-keyboard-response","241","2391359","0.0-20.0-0.18","6786ac17e77313e8449a8912","67619bf32066d179f8b4b1ec","67894a39a3974d34e9cfae92","passed","","","","","","","","","","","","","","","","","ballFalling","604.4000000000001","650.0211431702996","404.58000000000004","11","fallScene","false","","","","","67","",""
"","","","","","html-keyboard-response","242","2391820","0.0-20.0-1.18","6786ac17e77313e8449a8912","67619bf32066d179f8b4b1ec","67894a39a3974d34e9cfae92","passed","","460","","","","","","","","","","","","","","j","yesOrNo","","","","11","","","mid","1000","","","67","605.4000000000001","300"
"","","","","","html-keyboard-response","243","2393376","0.0-20.0-0.19","6786ac17e77313e8449a8912","67619bf32066d179f8b4b1ec","67894a39a3974d34e9cfae92","passed","","","","","","","","","","","","","","","","","ballFalling","604.4000000000001","575.4211431702997","266.76","12","fallScene","true","","","","","68","",""
"","","","","","html-keyboard-response","244","2393824","0.0-20.0-1.19","6786ac17e77313e8449a8912","67619bf32066d179f8b4b1ec","67894a39a3974d34e9cfae92","passed","","447","","","","","","","","","","","","","","j","yesOrNo","","","","12","","","gt","1000","","","68","575.4211431702997","266.76"
"","","","","","html-keyboard-response","245","2395376","0.0-20.0-0.20","6786ac17e77313e8449a8912","67619bf32066d179f8b4b1ec","67894a39a3974d34e9cfae92","passed","","","","","","","","","","","","","","","","","ballFalling","604.4000000000001","575.4211431702997","266.76","12","fallScene","false","","","","","69","",""
"","","","","","html-keyboard-response","246","2395977","0.0-20.0-1.20","6786ac17e77313e8449a8912","67619bf32066d179f8b4b1ec","67894a39a3974d34e9cfae92","passed","","600","","","","","","","","","","","","","","j","yesOrNo","","","","12","","","mid","1000","","","69","536.4288568297004","300"
"","","","","","html-keyboard-response","247","2397476","0.0-20.0-0.21","6786ac17e77313e8449a8912","67619bf32066d179f8b4b1ec","67894a39a3974d34e9cfae92","passed","","","","","","","","","","","","","","","","","ballFalling","604.4000000000001","667.6211431702998","201.78","9","fallScene","true","","","","","70","",""
"","","","","","html-keyboard-response","248","2398489","0.0-20.0-1.21","6786ac17e77313e8449a8912","67619bf32066d179f8b4b1ec","67894a39a3974d34e9cfae92","passed","","null","","","","","","","","","","","","","","null","yesOrNo","","","","9","","","mid","1000","","","70","605.4000000000001","300"
"","","","","","html-keyboard-response","249","2400059","0.0-20.0-0.22","6786ac17e77313e8449a8912","67619bf32066d179f8b4b1ec","67894a39a3974d34e9cfae92","passed","","","","","","","","","","","","","","","","","ballFalling","500","553.4711431702997","282.51","7","fallScene","true","","","","","71","",""
"","","","","","html-keyboard-response","250","2400927","0.0-20.0-1.22","6786ac17e77313e8449a8912","67619bf32066d179f8b4b1ec","67894a39a3974d34e9cfae92","passed","","866","","","","","","","","","","","","","","j","yesOrNo","","","","7","","","gt","1000","","","71","553.4711431702997","282.51"
"","","","","","html-keyboard-response","251","2402943","0.0-20.0-0.23","6786ac17e77313e8449a8912","67619bf32066d179f8b4b1ec","67894a39a3974d34e9cfae92","passed","","","","","","","","","","","","","","","","","ballFalling","604.4000000000001","596.8711431702998","394.5","10","fallScene","true","","","","","72","",""
"","","","","","html-keyboard-response","252","2403316","0.0-20.0-1.23","6786ac17e77313e8449a8912","67619bf32066d179f8b4b1ec","67894a39a3974d34e9cfae92","passed","","372","","","","","","","","","","","","","","j","yesOrNo","","","","10","","","gt","1000","","","72","596.8711431702998","394.5"
"","","","","","html-keyboard-response","253","2468378","0.0-21.0","6786ac17e77313e8449a8912","67619bf32066d179f8b4b1ec","67894a39a3974d34e9cfae92","passed","","65061","","","","","","","","","","","","","<p><span style=""font-size:40px;"">BLOCK 4</span></p><p><span style=""font-size:25px;"">You have <strong>1 second(s)</strong> to respond to the following trials.</span><br></p><p></p> <!-- Blank line -->
                <p id=""blinking-text"" style=""font-weight; animation: blink 2s infinite;"">Press Space to continue</p>
                <style>
                    @keyframes blink {
                        50% {
                            opacity: 0;
                        }
                    }
                </style></p>"," ","","","","","","","","","","","","","",""
"","","","","","html-keyboard-response","254","2469951","0.0-22.0-0.0","6786ac17e77313e8449a8912","67619bf32066d179f8b4b1ec","67894a39a3974d34e9cfae92","passed","","","","","","","","","","","","","","","","","ballFalling","322.3","379.3711431702997","245.25","1","fallScene","true","","","","","73","",""
"","","","","","html-keyboard-response","255","2470959","0.0-22.0-1.0","6786ac17e77313e8449a8912","67619bf32066d179f8b4b1ec","67894a39a3974d34e9cfae92","passed","","null","","","","","","","","","","","","","","null","yesOrNo","","","","1","","","gt","1000","","","73","379.3711431702997","245.25"
"","","","","","html-keyboard-response","256","2472442","0.0-22.0-0.1","6786ac17e77313e8449a8912","67619bf32066d179f8b4b1ec","67894a39a3974d34e9cfae92","passed","","","","","","","","","","","","","","","","","ballFalling","604.4000000000001","667.6211431702998","201.78","9","fallScene","false","","","","","74","",""
"","","","","","html-keyboard-response","257","2472860","0.0-22.0-1.1","6786ac17e77313e8449a8912","67619bf32066d179f8b4b1ec","67894a39a3974d34e9cfae92","passed","","417","","","","","","","","","","","","","","j","yesOrNo","","","","9","","","mid","1000","","","74","605.4000000000001","300"
"","","","","","html-keyboard-response","258","2474876","0.0-22.0-0.2","6786ac17e77313e8449a8912","67619bf32066d179f8b4b1ec","67894a39a3974d34e9cfae92","passed","","","","","","","","","","","","","","","","","ballFalling","500","510.8711431702997","369.03","8","fallScene","true","","","","","75","",""
"","","","","","html-keyboard-response","259","2475887","0.0-22.0-1.2","6786ac17e77313e8449a8912","67619bf32066d179f8b4b1ec","67894a39a3974d34e9cfae92","passed","","null","","","","","","","","","","","","","","null","yesOrNo","","","","8","","","mid","1000","","","75","501","300"
"","","","","","html-keyboard-response","260","2477460","0.0-22.0-0.3","6786ac17e77313e8449a8912","67619bf32066d179f8b4b1ec","67894a39a3974d34e9cfae92","passed","","","","","","","","","","","","","","","","","ballFalling","500","553.4711431702997","282.51","7","fallScene","true","","","","","76","",""
"","","","","","html-keyboard-response","261","2478463","0.0-22.0-1.3","6786ac17e77313e8449a8912","67619bf32066d179f8b4b1ec","67894a39a3974d34e9cfae92","passed","","null","","","","","","","","","","","","","","null","yesOrNo","","","","7","","","lp","1000","","","76","501","227.2843295913261"
"","","","","","html-keyboard-response","262","2480026","0.0-22.0-0.4","6786ac17e77313e8449a8912","67619bf32066d179f8b4b1ec","67894a39a3974d34e9cfae92","passed","","","","","","","","","","","","","","","","","ballFalling","322.3","356.42114317029973","357.87","4","fallScene","false","","","","","77","",""
"","","","","","html-keyboard-response","263","2480897","0.0-22.0-1.4","6786ac17e77313e8449a8912","67619bf32066d179f8b4b1ec","67894a39a3974d34e9cfae92","passed","","870","","","","","","","","","","","","","","j","yesOrNo","","","","4","","","mid","1000","","","77","390.27114317029975","300"
"","","","","","html-keyboard-response","264","2482459","0.0-22.0-0.5","6786ac17e77313e8449a8912","67619bf32066d179f8b4b1ec","67894a39a3974d34e9cfae92","passed","","","","","","","","","","","","","","","","","ballFalling","322.3","296.07114317029976","371.46","3","fallScene","true","","","","","78","",""
"","","","","","html-keyboard-response","265","2482915","0.0-22.0-1.5","6786ac17e77313e8449a8912","67619bf32066d179f8b4b1ec","67894a39a3974d34e9cfae92","passed","","454","","","","","","","","","","","","","","j","yesOrNo","","","","3","","","lp","1000","","","78","321.3","287.3327096511259"
"","","","","","html-keyboard-response","266","2484476","0.0-22.0-0.6","6786ac17e77313e8449a8912","67619bf32066d179f8b4b1ec","67894a39a3974d34e9cfae92","passed","","","","","","","","","","","","","","","","","ballFalling","500","453.67114317029973","210.33","5","fallScene","true","","","","","79","",""
"","","","","","html-keyboard-response","267","2485478","0.0-22.0-1.6","6786ac17e77313e8449a8912","67619bf32066d179f8b4b1ec","67894a39a3974d34e9cfae92","passed","","null","","","","","","","","","","","","","","null","yesOrNo","","","","5","","","gt","1000","","","79","453.6711431702998","210.33"
"","","","","","html-keyboard-response","268","2487276","0.0-22.0-0.7","6786ac17e77313e8449a8912","67619bf32066d179f8b4b1ec","67894a39a3974d34e9cfae92","passed","","","","","","","","","","","","","","","","","ballFalling","322.3","308.07114317029976","253.89","2","fallScene","false","","","","","80","",""
"","","","","","html-keyboard-response","269","2487813","0.0-22.0-1.7","6786ac17e77313e8449a8912","67619bf32066d179f8b4b1ec","67894a39a3974d34e9cfae92","passed","","536","","","","","","","","","","","","","","j","yesOrNo","","","","2","","","gt","1000","","","80","308.07114317029976","253.89"
"","","","","","html-keyboard-response","270","2489841","0.0-22.0-0.8","6786ac17e77313e8449a8912","67619bf32066d179f8b4b1ec","67894a39a3974d34e9cfae92","passed","","","","","","","","","","","","","","","","","ballFalling","500","510.8711431702997","369.03","8","fallScene","true","","","","","81","",""
"","","","","","html-keyboard-response","271","2490842","0.0-22.0-1.8","6786ac17e77313e8449a8912","67619bf32066d179f8b4b1ec","67894a39a3974d34e9cfae92","passed","","null","","","","","","","","","","","","","","null","yesOrNo","","","","8","","","lp","1000","","","81","501","151"
"","","","","","html-keyboard-response","272","2492393","0.0-22.0-0.9","6786ac17e77313e8449a8912","67619bf32066d179f8b4b1ec","67894a39a3974d34e9cfae92","passed","","","","","","","","","","","","","","","","","ballFalling","322.3","379.3711431702997","245.25","1","fallScene","true","","","","","82","",""
"","","","","","html-keyboard-response","273","2492814","0.0-22.0-1.9","6786ac17e77313e8449a8912","67619bf32066d179f8b4b1ec","67894a39a3974d34e9cfae92","passed","","421","","","","","","","","","","","","","","j","yesOrNo","","","","1","","","lp","1000","","","82","323.3","217.74551669457017"
"","","","","","html-keyboard-response","274","2494613","0.0-22.0-0.10","6786ac17e77313e8449a8912","67619bf32066d179f8b4b1ec","67894a39a3974d34e9cfae92","passed","","","","","","","","","","","","","","","","","ballFalling","322.3","308.07114317029976","253.89","2","fallScene","true","","","","","83","",""
"","","","","","html-keyboard-response","275","2494872","0.0-22.0-1.10","6786ac17e77313e8449a8912","67619bf32066d179f8b4b1ec","67894a39a3974d34e9cfae92","passed","","258","","","","","","","","","","","","","","j","yesOrNo","","","","2","","","lp","1000","","","83","321.3","151"
"","","","","","html-keyboard-response","276","2496426","0.0-22.0-0.11","6786ac17e77313e8449a8912","67619bf32066d179f8b4b1ec","67894a39a3974d34e9cfae92","passed","","","","","","","","","","","","","","","","","ballFalling","322.3","296.07114317029976","371.46","3","fallScene","false","","","","","84","",""
"","","","","","html-keyboard-response","277","2496990","0.0-22.0-1.11","6786ac17e77313e8449a8912","67619bf32066d179f8b4b1ec","67894a39a3974d34e9cfae92","passed","","563","","","","","","","","","","","","","","j","yesOrNo","","","","3","","","lp","1000","","","84","321.3","287.3327096511259"
"","","","","","html-keyboard-response","278","2498543","0.0-22.0-0.12","6786ac17e77313e8449a8912","67619bf32066d179f8b4b1ec","67894a39a3974d34e9cfae92","passed","","","","","","","","","","","","","","","","","ballFalling","322.3","296.07114317029976","371.46","3","fallScene","true","","","","","85","",""
"","","","","","html-keyboard-response","279","2499550","0.0-22.0-1.12","6786ac17e77313e8449a8912","67619bf32066d179f8b4b1ec","67894a39a3974d34e9cfae92","passed","","null","","","","","","","","","","","","","","null","yesOrNo","","","","3","","","gt","1000","","","85","296.07114317029976","371.46"
"","","","","","html-keyboard-response","280","2501560","0.0-22.0-0.13","6786ac17e77313e8449a8912","67619bf32066d179f8b4b1ec","67894a39a3974d34e9cfae92","passed","","","","","","","","","","","","","","","","","ballFalling","500","510.8711431702997","369.03","8","fallScene","false","","","","","86","",""
"","","","","","html-keyboard-response","281","2502000","0.0-22.0-1.13","6786ac17e77313e8449a8912","67619bf32066d179f8b4b1ec","67894a39a3974d34e9cfae92","passed","","439","","","","","","","","","","","","","","j","yesOrNo","","","","8","","","gt","1000","","","86","510.8711431702997","369.03"
"","","","","","html-keyboard-response","282","2503809","0.0-22.0-0.14","6786ac17e77313e8449a8912","67619bf32066d179f8b4b1ec","67894a39a3974d34e9cfae92","passed","","","","","","","","","","","","","","","","","ballFalling","322.3","308.07114317029976","253.89","2","fallScene","false","","","","","87","",""
"","","","","","html-keyboard-response","283","2504810","0.0-22.0-1.14","6786ac17e77313e8449a8912","67619bf32066d179f8b4b1ec","67894a39a3974d34e9cfae92","passed","","null","","","","","","","","","","","","","","null","yesOrNo","","","","2","","","lp","1000","","","87","321.3","151"
"","","","","","html-keyboard-response","284","2506831","0.0-22.0-0.15","6786ac17e77313e8449a8912","67619bf32066d179f8b4b1ec","67894a39a3974d34e9cfae92","passed","","","","","","","","","","","","","","","","","ballFalling","604.4000000000001","596.8711431702998","394.5","10","fallScene","false","","","","","88","",""
"","","","","","html-keyboard-response","285","2507750","0.0-22.0-1.15","6786ac17e77313e8449a8912","67619bf32066d179f8b4b1ec","67894a39a3974d34e9cfae92","passed","","918","","","","","","","","","","","","","","j","yesOrNo","","","","10","","","mid","1000","","","88","536.4288568297004","300"
"","","","","","html-keyboard-response","286","2509759","0.0-22.0-0.16","6786ac17e77313e8449a8912","67619bf32066d179f8b4b1ec","67894a39a3974d34e9cfae92","passed","","","","","","","","","","","","","","","","","ballFalling","500","510.8711431702997","369.03","8","fallScene","false","","","","","89","",""
"","","","","","html-keyboard-response","287","2510175","0.0-22.0-1.16","6786ac17e77313e8449a8912","67619bf32066d179f8b4b1ec","67894a39a3974d34e9cfae92","passed","","414","","","","","","","","","","","","","","j","yesOrNo","","","","8","","","mid","1000","","","89","501","300"
"","","","","","html-keyboard-response","288","2512177","0.0-22.0-0.17","6786ac17e77313e8449a8912","67619bf32066d179f8b4b1ec","67894a39a3974d34e9cfae92","passed","","","","","","","","","","","","","","","","","ballFalling","604.4000000000001","596.8711431702998","394.5","10","fallScene","false","","","","","90","",""
"","","","","","html-keyboard-response","289","2513188","0.0-22.0-1.17","6786ac17e77313e8449a8912","67619bf32066d179f8b4b1ec","67894a39a3974d34e9cfae92","passed","","null","","","","","","","","","","","","","","null","yesOrNo","","","","10","","","lp","1000","","","90","603.4000000000001","215.50214355555383"
"","","","","","html-keyboard-response","290","2514842","0.0-22.0-0.18","6786ac17e77313e8449a8912","67619bf32066d179f8b4b1ec","67894a39a3974d34e9cfae92","passed","","","","","","","","","","","","","","","","","ballFalling","500","479.92114317029973","330.87","6","fallScene","false","","","","","91","",""
"","","","","","html-keyboard-response","291","2515843","0.0-22.0-1.18","6786ac17e77313e8449a8912","67619bf32066d179f8b4b1ec","67894a39a3974d34e9cfae92","passed","","null","","","","","","","","","","","","","","null","yesOrNo","","","","6","","","lp","1000","","","91","499","189.92909825697632"
"","","","","","html-keyboard-response","292","2517343","0.0-22.0-0.19","6786ac17e77313e8449a8912","67619bf32066d179f8b4b1ec","67894a39a3974d34e9cfae92","passed","","","","","","","","","","","","","","","","","ballFalling","604.4000000000001","667.6211431702998","201.78","9","fallScene","true","","","","","92","",""
