"success","timeout","failed_images","failed_audio","failed_video","trial_type","trial_index","time_elapsed","internal_node_id","subject_id","study_id","session_id","practiceTestResult","view_history","rt","width","height","webaudio","browser","browser_version","mobile","os","fullscreen","vsync_rate","webcam","microphone","url","stimulus","response","task","ball_X","obstacle_groundTruth_x","obstacle_groundTruth_y","stimulus_idx","trial_name","flipped","choice","timeLimit","question_order","currentTrial","obstacle_choice_x","obstacle_choice_y"
"true","false","[]","[]","[]","preload","0","85","0.0-0.0","58a0c507890ea500014c4e9b","6796e1c0ff24ca17c453c51c","67c7115adf212260a0bf18f8","passed","","","","","","","","","","","","","","","","","","","","","","","","","","","","",""
"","","","","","instructions","1","7350","0.0-1.0","58a0c507890ea500014c4e9b","6796e1c0ff24ca17c453c51c","67c7115adf212260a0bf18f8","passed","[{""page_index"":0,""viewing_time"":7264}]","7264","","","","","","","","","","","","","","","","","","","","","","","","","","",""
"","","","","","browser-check","2","8353","0.0-2.0","58a0c507890ea500014c4e9b","6796e1c0ff24ca17c453c51c","67c7115adf212260a0bf18f8","passed","","","1536","791","true","chrome","133.0.0","false","Windows 10","true","60.27","true","true","","","","","","","","","","","","","","","",""
"","","","","","external-html","3","17858","0.0-3.0","58a0c507890ea500014c4e9b","6796e1c0ff24ca17c453c51c","67c7115adf212260a0bf18f8","passed","","9418","","","","","","","","","","","","consent.html","","","","","","","","","","","","","","",""
"true","","","","","fullscreen","4","25019","0.0-4.0","58a0c507890ea500014c4e9b","6796e1c0ff24ca17c453c51c","67c7115adf212260a0bf18f8","passed","","6854","","","","","","","","","","","","","","","","","","","","","","","","","","",""
"","","","","","browser-check","5","26136","0.0-5.0","58a0c507890ea500014c4e9b","6796e1c0ff24ca17c453c51c","67c7115adf212260a0bf18f8","passed","","","1536","960","true","chrome","133.0.0","false","Windows 10","true","60.11","true","true","","","","","","","","","","","","","","","",""
"","","","","","html-keyboard-response","6","29869","0.0-6.0","58a0c507890ea500014c4e9b","6796e1c0ff24ca17c453c51c","67c7115adf212260a0bf18f8","passed","","3732","","","","","","","","","","","","","<p><b>This experiment requires keyboard input.</b></p> 
        <p><b>To ensure your response will be recorded successfully, please press 'Space' to continue.</b></p>
        <p>If you can't proceed, you won't be able to complete this study.</p>
        <p></p> <!-- Blank line -->
        <p id=""blinking-text"" style=""font-weight; animation: blink 2s infinite;"">Press Space to continue</p>
        <style>
            @keyframes blink {
                50% {
                    opacity: 0;
                }
            }
        </style>"," ","","","","","","","","","","","","",""
"","","","","","html-keyboard-response","7","32048","0.0-7.0","58a0c507890ea500014c4e9b","6796e1c0ff24ca17c453c51c","67c7115adf212260a0bf18f8","passed","","2178","","","","","","","","","","","","","<p><b>This experiment requires keyboard input.</b></p> 
        <p><b>To ensure your response will be recorded successfully, please press the 'f' key to continue.</b></p>
        <p>If you can't proceed, you won't be able to complete this study.</p>
        <p></p> <!-- Blank line -->
        <p id=""blinking-text"" style=""font-weight; animation: blink 2s infinite;"">Press f to continue</p>
        <style>
            @keyframes blink {
                50% {
                    opacity: 0;
                }
            }
        </style>","f","","","","","","","","","","","","",""
"","","","","","html-keyboard-response","8","33176","0.0-8.0","58a0c507890ea500014c4e9b","6796e1c0ff24ca17c453c51c","67c7115adf212260a0bf18f8","passed","","1127","","","","","","","","","","","","","<p><b>This experiment requires keyboard input.</b></p> 
        <p><b>To ensure your response will be recorded successfully, please press the 'j' key to continue.</b></p>
        <p>If you can't proceed, you won't be able to complete this study.</p>
        <p></p> <!-- Blank line -->
        <p id=""blinking-text"" style=""font-weight; animation: blink 2s infinite;"">Press j to continue</p>
        <style>
            @keyframes blink {
                50% {
                    opacity: 0;
                }
            }
        </style>","j","","","","","","","","","","","","",""
"","","","","","browser-check","9","34187","0.0-9.0","58a0c507890ea500014c4e9b","6796e1c0ff24ca17c453c51c","67c7115adf212260a0bf18f8","passed","","","1536","960","true","chrome","133.0.0","false","Windows 10","true","59.93","true","true","","","","","","","","","","","","","","","",""
"","","","","","survey-text","10","42236","0.0-10.0","58a0c507890ea500014c4e9b","6796e1c0ff24ca17c453c51c","67c7115adf212260a0bf18f8","passed","","8038","","","","","","","","","","","","","","{""prolificID"":""58a0c507890ea500014c4e9b""}","","","","","","","","","","","","",""
"","","","","","instructions","11","91511","0.0-11.0-0.0-0.0","58a0c507890ea500014c4e9b","6796e1c0ff24ca17c453c51c","67c7115adf212260a0bf18f8","passed","[{""page_index"":0,""viewing_time"":18667},{""page_index"":1,""viewing_time"":11784},{""page_index"":2,""viewing_time"":7557},{""page_index"":3,""viewing_time"":11264}]","49274","","","","","","","","","","","","","","","","","","","","","","","","","","",""
"","","","","","html-keyboard-response","12","105943","0.0-11.0-0.0-1.0","58a0c507890ea500014c4e9b","6796e1c0ff24ca17c453c51c","67c7115adf212260a0bf18f8","passed","","13893","","","","","","","","","","","","","<br>Remember! After a ball falls, the screen will disappear, and you'll decide if the proposed position is where the hidden triangle was. <br>You will now practice this by watching a few videos and making decisions.<p>To respond:<br style=""margin-bottom: 5px; text-indent: -20px; padding-left: 20px;"">- Press <b style=""color: #12AD2B;"">J for Yes</b>, if you think the triangle is in the correct position.<br style=""margin-top: 0; text-indent: -20px; padding-left: 20px;"">- Press <b style=""color: orange;"">F for No</b>, if you think the triangle is not in the correct position.</p><p>In this practice round, there is no time limit. Focus on getting comfortable with the task first.<br>Press either J or F to begin your practice trials.</p><img src = ""YesOrNo_instruction.png"" style=""width: 65%;""></img>","j","","","","","","","","","","","","",""
"","","","","","html-keyboard-response","13","107502","0.0-11.0-0.0-2.0-0.0","58a0c507890ea500014c4e9b","6796e1c0ff24ca17c453c51c","67c7115adf212260a0bf18f8","passed","","","","","","","","","","","","","","","","","ballFalling_prac","441","414","302","5","fallScene","true","","","","","",""
"","","","","","html-keyboard-response","14","108820","0.0-11.0-0.0-2.0-1.0","58a0c507890ea500014c4e9b","6796e1c0ff24ca17c453c51c","67c7115adf212260a0bf18f8","passed","","1299","","","","","","","","","","","","","","j","yesOrNo_prac_noTimed","","","","5","","","close gt","NA","","","",""
"","","","","","html-keyboard-response","15","110384","0.0-11.0-0.0-2.0-0.1","58a0c507890ea500014c4e9b","6796e1c0ff24ca17c453c51c","67c7115adf212260a0bf18f8","passed","","","","","","","","","","","","","","","","","ballFalling_prac","416","464","296","1","fallScene","false","","","","","",""
"","","","","","html-keyboard-response","16","115329","0.0-11.0-0.0-2.0-1.1","58a0c507890ea500014c4e9b","6796e1c0ff24ca17c453c51c","67c7115adf212260a0bf18f8","passed","","4942","","","","","","","","","","","","","","j","yesOrNo_prac_noTimed","","","","1","","","gt","NA","","","",""
"","","","","","html-keyboard-response","17","117434","0.0-11.0-0.0-2.0-0.2","58a0c507890ea500014c4e9b","6796e1c0ff24ca17c453c51c","67c7115adf212260a0bf18f8","passed","","","","","","","","","","","","","","","","","ballFalling_prac","660","666","350","3","fallScene","false","","","","","",""
"","","","","","html-keyboard-response","18","119469","0.0-11.0-0.0-2.0-1.2","58a0c507890ea500014c4e9b","6796e1c0ff24ca17c453c51c","67c7115adf212260a0bf18f8","passed","","2034","","","","","","","","","","","","","","f","yesOrNo_prac_noTimed","","","","3","","","wrong direction","NA","","","",""
"","","","","","instructions","19","157306","0.0-11.0-0.0-3.0","58a0c507890ea500014c4e9b","6796e1c0ff24ca17c453c51c","67c7115adf212260a0bf18f8","passed","[{""page_index"":0,""viewing_time"":19942},{""page_index"":1,""viewing_time"":17893}]","37835","","","","","","","","","","","","","","","","","","","","","","","","","","",""
"","","","","","html-button-response","20","161675","0.0-11.0-0.0-4.0","58a0c507890ea500014c4e9b","6796e1c0ff24ca17c453c51c","67c7115adf212260a0bf18f8","passed","","3860","","","","","","","","","","","","","<p>To make sure you understood the task, we just have a <b>brief quiz</b> here.</p><p>If you need to review the instructions, click 'Previous'.</p><p>It's important to understand the task to do the study, so you have to pass the quiz to move to the study.</p>","1","","","","","","","","","","","","",""
"","","","","","survey-multi-choice","21","173061","0.0-11.0-1.0-0.0","58a0c507890ea500014c4e9b","6796e1c0ff24ca17c453c51c","67c7115adf212260a0bf18f8","passed","","11384","","","","","","","","","","","","","","{""generalProcedure"":""Watch a video of a ball falling, some of it behind a gray screen. After each video, decide if the triangle is at the spot where the ball hit the triangle behind the screen. There is time limit for the response.""}","","","","","","","","","","[0]","","",""
"","","","","","survey-multi-choice","22","176261","0.0-11.0-1.0-1.0","58a0c507890ea500014c4e9b","6796e1c0ff24ca17c453c51c","67c7115adf212260a0bf18f8","passed","","3199","","","","","","","","","","","","","","{""checkBallHitObstacle"":""Yes.""}","","","","","","","","","","[0]","","",""
"","","","","","survey-multi-choice","23","179546","0.0-11.0-1.0-2.0","58a0c507890ea500014c4e9b","6796e1c0ff24ca17c453c51c","67c7115adf212260a0bf18f8","passed","","3283","","","","","","","","","","","","","","{""checkTriangleVisibility"":""No, the triangle is hidden behind the gray screen.""}","","","","","","","","","","[0]","","",""
"","","","","","survey-multi-choice","24","183819","0.0-11.0-1.0-3.0","58a0c507890ea500014c4e9b","6796e1c0ff24ca17c453c51c","67c7115adf212260a0bf18f8","passed","","4273","","","","","","","","","","","","","","{""checkTimedResponse"":""Your response will not be recorded, and the trial will move to the next one.""}","","","","","","","","","","[0]","","",""
"","","","","","survey-multi-choice","25","188598","0.0-11.0-1.0-4.0","58a0c507890ea500014c4e9b","6796e1c0ff24ca17c453c51c","67c7115adf212260a0bf18f8","passed","","4778","","","","","","","","","","","","","","{""checkTimeBlockNotice"":""At the beginning of each block.""}","","","","","","","","","","[0]","","",""
"","","","","","survey-multi-choice","26","192309","0.0-11.0-1.0-5.0","58a0c507890ea500014c4e9b","6796e1c0ff24ca17c453c51c","67c7115adf212260a0bf18f8","passed","","3710","","","","","","","","","","","","","","{""checkTimeBlockSameness"":""Yes, the time limit is the same for all trials within a block.""}","","","","","","","","","","[0]","","",""
"","","","","","survey-multi-choice","27","207687","0.0-11.0-1.0-6.0","58a0c507890ea500014c4e9b","6796e1c0ff24ca17c453c51c","67c7115adf212260a0bf18f8","passed","","15376","","","","","","","","","","","","","","{""checkTrianglePrecision"":""No. The proposed purple triangle is not in the correct position because it doesn't match the location of the white triangle exactly.""}","","","","","","","","","","[0]","","",""
"","","","","","instructions","28","234423","0.0-12.0","58a0c507890ea500014c4e9b","6796e1c0ff24ca17c453c51c","67c7115adf212260a0bf18f8","passed","[{""page_index"":0,""viewing_time"":5846},{""page_index"":1,""viewing_time"":6303},{""page_index"":2,""viewing_time"":7100},{""page_index"":3,""viewing_time"":7486}]","26735","","","","","","","","","","","","","","","","","","","","","","","","","","",""
"","","","","","instructions","29","242612","0.0-13.0-0.0","58a0c507890ea500014c4e9b","6796e1c0ff24ca17c453c51c","67c7115adf212260a0bf18f8","passed","[{""page_index"":0,""viewing_time"":8187}]","8188","","","","","","","","","","","","","","","","","","","","","","","","","","",""
"","","","","","html-keyboard-response","30","244772","0.0-13.0-1.0","58a0c507890ea500014c4e9b","6796e1c0ff24ca17c453c51c","67c7115adf212260a0bf18f8","passed","","2158","","","","","","","","","","","","","<p><span style=""font-size:40px;"">Practice BLOCK 1</span></p><p><span style=""font-size:25px;"">You have <b style=""color: #FF644F;""><strong>3 second(s)</strong></b> to respond to the following trials.</span><br></p><p id=""blinking-text"" style=""font-weight; animation: blink 2s infinite;"">Press Space to continue</p><style>
                    @keyframes blink {
                        50% {
                            opacity: 0;
                        }
                    }
                </style>"," ","","","","","","","","","","","","",""
"","","","","","html-keyboard-response","31","246343","0.0-13.0-2.0-0.0","58a0c507890ea500014c4e9b","6796e1c0ff24ca17c453c51c","67c7115adf212260a0bf18f8","passed","","","","","","","","","","","","","","","","","ballFalling_prac","660","610","263","4","fallScene","false","","","","","",""
"","","","","","html-keyboard-response","32","249358","0.0-13.0-2.0-1.0","58a0c507890ea500014c4e9b","6796e1c0ff24ca17c453c51c","67c7115adf212260a0bf18f8","passed","","1341","","","","","","","","","","","","","","f","yesOrNo_prac","","","","4","","","gt","3000","","","",""
"","","","","","html-keyboard-response","33","251009","0.0-13.0-2.0-0.1","58a0c507890ea500014c4e9b","6796e1c0ff24ca17c453c51c","67c7115adf212260a0bf18f8","passed","","","","","","","","","","","","","","","","","ballFalling_prac","416","464","296","1","fallScene","false","","","","","",""
"","","","","","html-keyboard-response","34","254025","0.0-13.0-2.0-1.1","58a0c507890ea500014c4e9b","6796e1c0ff24ca17c453c51c","67c7115adf212260a0bf18f8","passed","","1831","","","","","","","","","","","","","","f","yesOrNo_prac","","","","1","","","far gt","3000","","","",""
"","","","","","html-keyboard-response","35","255576","0.0-13.0-2.0-0.2","58a0c507890ea500014c4e9b","6796e1c0ff24ca17c453c51c","67c7115adf212260a0bf18f8","passed","","","","","","","","","","","","","","","","","ballFalling_prac","584","536","296","1","fallScene","true","","","","","",""
"","","","","","html-keyboard-response","36","258591","0.0-13.0-2.0-1.2","58a0c507890ea500014c4e9b","6796e1c0ff24ca17c453c51c","67c7115adf212260a0bf18f8","passed","","1034","","","","","","","","","","","","","","f","yesOrNo_prac","","","","1","","","close gt","3000","","","",""
"","","","","","html-keyboard-response","37","260554","0.0-13.0-3.0","58a0c507890ea500014c4e9b","6796e1c0ff24ca17c453c51c","67c7115adf212260a0bf18f8","passed","","1961","","","","","","","","","","","","","<p><span style=""font-size:40px;"">Practice BLOCK 2</span></p><p><span style=""font-size:25px;"">You have <b style=""color: #FF644F;""><strong>0.7 second(s)</strong></b> to respond to the following trials.</span><br></p><p id=""blinking-text"" style=""font-weight; animation: blink 2s infinite;"">Press Space to continue</p><style>
                    @keyframes blink {
                        50% {
                            opacity: 0;
                        }
                    }
                </style>"," ","","","","","","","","","","","","",""
"","","","","","html-keyboard-response","38","262109","0.0-13.0-4.0-0.0","58a0c507890ea500014c4e9b","6796e1c0ff24ca17c453c51c","67c7115adf212260a0bf18f8","passed","","","","","","","","","","","","","","","","","ballFalling_prac","441","500","317","6","fallScene","true","","","","","",""
"","","","","","html-keyboard-response","39","262811","0.0-13.0-4.0-1.0","58a0c507890ea500014c4e9b","6796e1c0ff24ca17c453c51c","67c7115adf212260a0bf18f8","passed","","null","","","","","","","","","","","","","","null","yesOrNo_prac","","","","6","","","gt","700","","","",""
"","","","","","html-keyboard-response","40","264926","0.0-13.0-4.0-0.1","58a0c507890ea500014c4e9b","6796e1c0ff24ca17c453c51c","67c7115adf212260a0bf18f8","passed","","","","","","","","","","","","","","","","","ballFalling_prac","340","334","350","3","fallScene","true","","","","","",""
"","","","","","html-keyboard-response","41","265630","0.0-13.0-4.0-1.1","58a0c507890ea500014c4e9b","6796e1c0ff24ca17c453c51c","67c7115adf212260a0bf18f8","passed","","548","","","","","","","","","","","","","","j","yesOrNo_prac","","","","3","","","close gt","700","","","",""
"","","","","","html-keyboard-response","42","267222","0.0-13.0-4.0-0.2","58a0c507890ea500014c4e9b","6796e1c0ff24ca17c453c51c","67c7115adf212260a0bf18f8","passed","","","","","","","","","","","","","","","","","ballFalling_prac","660","610","263","4","fallScene","false","","","","","",""
"","","","","","html-keyboard-response","43","267926","0.0-13.0-4.0-1.2","58a0c507890ea500014c4e9b","6796e1c0ff24ca17c453c51c","67c7115adf212260a0bf18f8","passed","","569","","","","","","","","","","","","","","f","yesOrNo_prac","","","","4","","","far gt","700","","","",""
"","","","","","instructions","44","278975","0.0-13.0-5.0","58a0c507890ea500014c4e9b","6796e1c0ff24ca17c453c51c","67c7115adf212260a0bf18f8","passed","[{""page_index"":0,""viewing_time"":11048}]","11048","","","","","","","","","","","","","","","","","","","","","","","","","","",""
"","","","","","html-keyboard-response","45","281850","0.0-13.0-6.0","58a0c507890ea500014c4e9b","6796e1c0ff24ca17c453c51c","67c7115adf212260a0bf18f8","passed","","2874","","","","","","","","","","","","","<p><span style=""font-size:40px;"">Practice Test BLOCK 1</span></p><p><span style=""font-size:25px;"">You have <b style=""color: #FF644F;""><strong>0.7 second(s)</strong></b> to respond to the following trials.</span><br></p><p id=""blinking-text"" style=""font-weight; animation: blink 2s infinite;"">Press Space to continue</p><style>
                    @keyframes blink {
                        50% {
                            opacity: 0;
                        }
                    }
                </style>"," ","","","","","","","","","","","","",""
"","","","","","html-keyboard-response","46","283408","0.0-13.0-7.0-0.0","58a0c507890ea500014c4e9b","6796e1c0ff24ca17c453c51c","67c7115adf212260a0bf18f8","passed","","","","","","","","","","","","","","","","","ballFalling_prac","441","500","317","6","fallScene","true","","","","","",""
"","","","","","html-keyboard-response","47","284122","0.0-13.0-7.0-1.0","58a0c507890ea500014c4e9b","6796e1c0ff24ca17c453c51c","67c7115adf212260a0bf18f8","passed","","689","","","","","","","","","","","","","","f","yesOrNo_prac","","","","6","","","close gt","700","","","",""
"","","","","","html-keyboard-response","48","285691","0.0-13.0-7.0-0.1","58a0c507890ea500014c4e9b","6796e1c0ff24ca17c453c51c","67c7115adf212260a0bf18f8","passed","","","","","","","","","","","","","","","","","ballFalling_prac","559","586","302","5","fallScene","false","","","","","",""
"","","","","","html-keyboard-response","49","286407","0.0-13.0-7.0-1.1","58a0c507890ea500014c4e9b","6796e1c0ff24ca17c453c51c","67c7115adf212260a0bf18f8","passed","","624","","","","","","","","","","","","","","f","yesOrNo_prac","","","","5","","","gt","700","","","",""
"","","","","","html-keyboard-response","50","287974","0.0-13.0-7.0-0.2","58a0c507890ea500014c4e9b","6796e1c0ff24ca17c453c51c","67c7115adf212260a0bf18f8","passed","","","","","","","","","","","","","","","","","ballFalling_prac","340","390","263","4","fallScene","true","","","","","",""
"","","","","","html-keyboard-response","51","288678","0.0-13.0-7.0-1.2","58a0c507890ea500014c4e9b","6796e1c0ff24ca17c453c51c","67c7115adf212260a0bf18f8","passed","","534","","","","","","","","","","","","","","j","yesOrNo_prac","","","","4","","","far gt","700","","","",""
"","","","","","html-keyboard-response","52","290136","0.0-13.0-8.0","58a0c507890ea500014c4e9b","6796e1c0ff24ca17c453c51c","67c7115adf212260a0bf18f8","passed","","1457","","","","","","","","","","","","","<p><span style=""font-size:40px;"">Practice Test BLOCK 2</span></p><p><span style=""font-size:25px;"">You have <b style=""color: #FF644F;""><strong>3 second(s)</strong></b> to respond to the following trials.</span><br></p><p id=""blinking-text"" style=""font-weight; animation: blink 2s infinite;"">Press Space to continue</p><style>
                    @keyframes blink {
                        50% {
                            opacity: 0;
                        }
                    }
                </style>"," ","","","","","","","","","","","","",""
"","","","","","html-keyboard-response","53","291707","0.0-13.0-9.0-0.0","58a0c507890ea500014c4e9b","6796e1c0ff24ca17c453c51c","67c7115adf212260a0bf18f8","passed","","","","","","","","","","","","","","","","","ballFalling_prac","340","390","263","4","fallScene","true","","","","","",""
"","","","","","html-keyboard-response","54","294712","0.0-13.0-9.0-1.0","58a0c507890ea500014c4e9b","6796e1c0ff24ca17c453c51c","67c7115adf212260a0bf18f8","passed","","1022","","","","","","","","","","","","","","f","yesOrNo_prac","","","","4","","","close gt","3000","","","",""
"","","","","","html-keyboard-response","55","296291","0.0-13.0-9.0-0.1","58a0c507890ea500014c4e9b","6796e1c0ff24ca17c453c51c","67c7115adf212260a0bf18f8","passed","","","","","","","","","","","","","","","","","ballFalling_prac","416","365","249","2","fallScene","false","","","","","",""
"","","","","","html-keyboard-response","56","299306","0.0-13.0-9.0-1.1","58a0c507890ea500014c4e9b","6796e1c0ff24ca17c453c51c","67c7115adf212260a0bf18f8","passed","","1117","","","","","","","","","","","","","","j","yesOrNo_prac","","","","2","","","gt","3000","","","",""
"","","","","","html-keyboard-response","57","300874","0.0-13.0-9.0-0.2","58a0c507890ea500014c4e9b","6796e1c0ff24ca17c453c51c","67c7115adf212260a0bf18f8","passed","","","","","","","","","","","","","","","","","ballFalling_prac","559","586","302","5","fallScene","false","","","","","",""
"","","","","","html-keyboard-response","58","303889","0.0-13.0-9.0-1.2","58a0c507890ea500014c4e9b","6796e1c0ff24ca17c453c51c","67c7115adf212260a0bf18f8","passed","","1821","","","","","","","","","","","","","","f","yesOrNo_prac","","","","5","","","far gt","3000","","","",""
"","","","","","instructions","59","315826","0.0-14.0","58a0c507890ea500014c4e9b","6796e1c0ff24ca17c453c51c","67c7115adf212260a0bf18f8","passed","[{""page_index"":0,""viewing_time"":11916}]","11916","","","","","","","","","","","","","","","","","","","","","","","","","","",""
"","","","","","html-keyboard-response","60","317592","0.0-15.0","58a0c507890ea500014c4e9b","6796e1c0ff24ca17c453c51c","67c7115adf212260a0bf18f8","passed","","1765","","","","","","","","","","","","","<p><span style=""font-size:40px;"">BLOCK 1</span></p><p><span style=""font-size:25px;"">You have <b style=""color: #FF644F;""><strong>3 second(s)</strong></b> to respond to the following trials.</span><br></p><p></p> <!-- Blank line -->
                <p id=""blinking-text"" style=""font-weight; animation: blink 2s infinite;"">Press Space to continue</p>
                <style>
                    @keyframes blink {
                        50% {
                            opacity: 0;
                        }
                    }
                </style></p>"," ","","","","","","","","","","","","",""
"","","","","","html-keyboard-response","61","319090","0.0-16.0-0.0","58a0c507890ea500014c4e9b","6796e1c0ff24ca17c453c51c","67c7115adf212260a0bf18f8","passed","","","","","","","","","","","","","","","","","ballFalling","604.4000000000001","667.6211431702998","201.78","9","fallScene","false","","","","1","",""
"","","","","","html-keyboard-response","62","322106","0.0-16.0-1.0","58a0c507890ea500014c4e9b","6796e1c0ff24ca17c453c51c","67c7115adf212260a0bf18f8","passed","","1081","","","","","","","","","","","","","","f","yesOrNo","","","","9","","","gt","3000","","1","667.6211431702998","201.78"
"","","","","","html-keyboard-response","63","323906","0.0-16.0-0.1","58a0c507890ea500014c4e9b","6796e1c0ff24ca17c453c51c","67c7115adf212260a0bf18f8","passed","","","","","","","","","","","","","","","","","ballFalling","322.3","308.07114317029976","253.89","2","fallScene","true","","","","2","",""
"","","","","","html-keyboard-response","64","326910","0.0-16.0-1.1","58a0c507890ea500014c4e9b","6796e1c0ff24ca17c453c51c","67c7115adf212260a0bf18f8","passed","","1061","","","","","","","","","","","","","","j","yesOrNo","","","","2","","","lp","3000","","2","321.3","151"
"","","","","","html-keyboard-response","65","328408","0.0-16.0-0.2","58a0c507890ea500014c4e9b","6796e1c0ff24ca17c453c51c","67c7115adf212260a0bf18f8","passed","","","","","","","","","","","","","","","","","ballFalling","604.4000000000001","667.6211431702998","201.78","9","fallScene","true","","","","3","",""
"","","","","","html-keyboard-response","66","331421","0.0-16.0-1.2","58a0c507890ea500014c4e9b","6796e1c0ff24ca17c453c51c","67c7115adf212260a0bf18f8","passed","","1151","","","","","","","","","","","","","","j","yesOrNo","","","","9","","","mid","3000","","3","605.4000000000001","300"
"","","","","","html-keyboard-response","67","332972","0.0-16.0-0.3","58a0c507890ea500014c4e9b","6796e1c0ff24ca17c453c51c","67c7115adf212260a0bf18f8","passed","","","","","","","","","","","","","","","","","ballFalling","322.3","296.07114317029976","371.46","3","fallScene","true","","","","4","",""
"","","","","","html-keyboard-response","68","335977","0.0-16.0-1.3","58a0c507890ea500014c4e9b","6796e1c0ff24ca17c453c51c","67c7115adf212260a0bf18f8","passed","","1277","","","","","","","","","","","","","","j","yesOrNo","","","","3","","","lp","3000","","4","321.3","287.3327096511259"
"","","","","","html-keyboard-response","69","337772","0.0-16.0-0.4","58a0c507890ea500014c4e9b","6796e1c0ff24ca17c453c51c","67c7115adf212260a0bf18f8","passed","","","","","","","","","","","","","","","","","ballFalling","322.3","308.07114317029976","253.89","2","fallScene","true","","","","5","",""
"","","","","","html-keyboard-response","70","340775","0.0-16.0-1.4","58a0c507890ea500014c4e9b","6796e1c0ff24ca17c453c51c","67c7115adf212260a0bf18f8","passed","","1389","","","","","","","","","","","","","","j","yesOrNo","","","","2","","","mid","3000","","5","321.3","300"
"","","","","","html-keyboard-response","71","342338","0.0-16.0-0.5","58a0c507890ea500014c4e9b","6796e1c0ff24ca17c453c51c","67c7115adf212260a0bf18f8","passed","","","","","","","","","","","","","","","","","ballFalling","604.4000000000001","650.0211431702996","404.58000000000004","11","fallScene","false","","","","6","",""
"","","","","","html-keyboard-response","72","345340","0.0-16.0-1.5","58a0c507890ea500014c4e9b","6796e1c0ff24ca17c453c51c","67c7115adf212260a0bf18f8","passed","","848","","","","","","","","","","","","","","f","yesOrNo","","","","11","","","mid","3000","","6","605.4000000000001","300"
"","","","","","html-keyboard-response","73","347355","0.0-16.0-0.6","58a0c507890ea500014c4e9b","6796e1c0ff24ca17c453c51c","67c7115adf212260a0bf18f8","passed","","","","","","","","","","","","","","","","","ballFalling","500","510.8711431702997","369.03","8","fallScene","false","","","","7","",""
"","","","","","html-keyboard-response","74","350372","0.0-16.0-1.6","58a0c507890ea500014c4e9b","6796e1c0ff24ca17c453c51c","67c7115adf212260a0bf18f8","passed","","1301","","","","","","","","","","","","","","j","yesOrNo","","","","8","","","mid","3000","","7","501","300"
"","","","","","html-keyboard-response","75","351955","0.0-16.0-0.7","58a0c507890ea500014c4e9b","6796e1c0ff24ca17c453c51c","67c7115adf212260a0bf18f8","passed","","","","","","","","","","","","","","","","","ballFalling","500","553.4711431702997","282.51","7","fallScene","true","","","","8","",""
"","","","","","html-keyboard-response","76","354972","0.0-16.0-1.7","58a0c507890ea500014c4e9b","6796e1c0ff24ca17c453c51c","67c7115adf212260a0bf18f8","passed","","898","","","","","","","","","","","","","","j","yesOrNo","","","","7","","","mid","3000","","8","501","300"
"","","","","","html-keyboard-response","77","356537","0.0-16.0-0.8","58a0c507890ea500014c4e9b","6796e1c0ff24ca17c453c51c","67c7115adf212260a0bf18f8","passed","","","","","","","","","","","","","","","","","ballFalling","322.3","296.07114317029976","371.46","3","fallScene","true","","","","9","",""
"","","","","","html-keyboard-response","78","359540","0.0-16.0-1.8","58a0c507890ea500014c4e9b","6796e1c0ff24ca17c453c51c","67c7115adf212260a0bf18f8","passed","","1320","","","","","","","","","","","","","","f","yesOrNo","","","","3","","","mid","3000","","9","321.3","300"
"","","","","","html-keyboard-response","79","361037","0.0-16.0-0.9","58a0c507890ea500014c4e9b","6796e1c0ff24ca17c453c51c","67c7115adf212260a0bf18f8","passed","","","","","","","","","","","","","","","","","ballFalling","604.4000000000001","667.6211431702998","201.78","9","fallScene","true","","","","10","",""
"","","","","","html-keyboard-response","80","364041","0.0-16.0-1.9","58a0c507890ea500014c4e9b","6796e1c0ff24ca17c453c51c","67c7115adf212260a0bf18f8","passed","","1568","","","","","","","","","","","","","","j","yesOrNo","","","","9","","","mid","3000","","10","605.4000000000001","300"
"","","","","","html-keyboard-response","81","365604","0.0-16.0-0.10","58a0c507890ea500014c4e9b","6796e1c0ff24ca17c453c51c","67c7115adf212260a0bf18f8","passed","","","","","","","","","","","","","","","","","ballFalling","322.3","356.42114317029973","357.87","4","fallScene","true","","","","11","",""
"","","","","","html-keyboard-response","82","368607","0.0-16.0-1.10","58a0c507890ea500014c4e9b","6796e1c0ff24ca17c453c51c","67c7115adf212260a0bf18f8","passed","","1465","","","","","","","","","","","","","","f","yesOrNo","","","","4","","","gt","3000","","11","356.42114317029973","357.87"
"","","","","","html-keyboard-response","83","370620","0.0-16.0-0.11","58a0c507890ea500014c4e9b","6796e1c0ff24ca17c453c51c","67c7115adf212260a0bf18f8","passed","","","","","","","","","","","","","","","","","ballFalling","604.4000000000001","596.8711431702998","394.5","10","fallScene","false","","","","12","",""
"","","","","","html-keyboard-response","84","373635","0.0-16.0-1.11","58a0c507890ea500014c4e9b","6796e1c0ff24ca17c453c51c","67c7115adf212260a0bf18f8","passed","","1373","","","","","","","","","","","","","","f","yesOrNo","","","","10","","","lp","3000","","12","603.4000000000001","215.50214355555383"
"","","","","","html-keyboard-response","85","375435","0.0-16.0-0.12","58a0c507890ea500014c4e9b","6796e1c0ff24ca17c453c51c","67c7115adf212260a0bf18f8","passed","","","","","","","","","","","","","","","","","ballFalling","322.3","308.07114317029976","253.89","2","fallScene","true","","","","13","",""
"","","","","","html-keyboard-response","86","378450","0.0-16.0-1.12","58a0c507890ea500014c4e9b","6796e1c0ff24ca17c453c51c","67c7115adf212260a0bf18f8","passed","","1290","","","","","","","","","","","","","","j","yesOrNo","","","","2","","","mid","3000","","13","321.3","300"
"","","","","","html-keyboard-response","87","379935","0.0-16.0-0.13","58a0c507890ea500014c4e9b","6796e1c0ff24ca17c453c51c","67c7115adf212260a0bf18f8","passed","","","","","","","","","","","","","","","","","ballFalling","604.4000000000001","667.6211431702998","201.78","9","fallScene","true","","","","14","",""
"","","","","","html-keyboard-response","88","382939","0.0-16.0-1.13","58a0c507890ea500014c4e9b","6796e1c0ff24ca17c453c51c","67c7115adf212260a0bf18f8","passed","","1022","","","","","","","","","","","","","","f","yesOrNo","","","","9","","","lp","3000","","14","605.4000000000001","151"
"","","","","","html-keyboard-response","89","384502","0.0-16.0-0.14","58a0c507890ea500014c4e9b","6796e1c0ff24ca17c453c51c","67c7115adf212260a0bf18f8","passed","","","","","","","","","","","","","","","","","ballFalling","322.3","356.42114317029973","357.87","4","fallScene","true","","","","15","",""
"","","","","","html-keyboard-response","90","387505","0.0-16.0-1.14","58a0c507890ea500014c4e9b","6796e1c0ff24ca17c453c51c","67c7115adf212260a0bf18f8","passed","","1543","","","","","","","","","","","","","","f","yesOrNo","","","","4","","","gt","3000","","15","356.42114317029973","357.87"
"","","","","","html-keyboard-response","91","389070","0.0-16.0-0.15","58a0c507890ea500014c4e9b","6796e1c0ff24ca17c453c51c","67c7115adf212260a0bf18f8","passed","","","","","","","","","","","","","","","","","ballFalling","604.4000000000001","575.4211431702997","266.76","12","fallScene","true","","","","16","",""
"","","","","","html-keyboard-response","92","392079","0.0-16.0-1.15","58a0c507890ea500014c4e9b","6796e1c0ff24ca17c453c51c","67c7115adf212260a0bf18f8","passed","","1099","","","","","","","","","","","","","","f","yesOrNo","","","","12","","","mid","3000","","16","536.4288568297004","300"
"","","","","","html-keyboard-response","93","393736","0.0-16.0-0.16","58a0c507890ea500014c4e9b","6796e1c0ff24ca17c453c51c","67c7115adf212260a0bf18f8","passed","","","","","","","","","","","","","","","","","ballFalling","500","479.92114317029973","330.87","6","fallScene","true","","","","17","",""
"","","","","","html-keyboard-response","94","396749","0.0-16.0-1.16","58a0c507890ea500014c4e9b","6796e1c0ff24ca17c453c51c","67c7115adf212260a0bf18f8","passed","","903","","","","","","","","","","","","","","j","yesOrNo","","","","6","","","mid","3000","","17","499","300"
"","","","","","html-keyboard-response","95","398316","0.0-16.0-0.17","58a0c507890ea500014c4e9b","6796e1c0ff24ca17c453c51c","67c7115adf212260a0bf18f8","passed","","","","","","","","","","","","","","","","","ballFalling","604.4000000000001","575.4211431702997","266.76","12","fallScene","false","","","","18","",""
"","","","","","html-keyboard-response","96","401322","0.0-16.0-1.17","58a0c507890ea500014c4e9b","6796e1c0ff24ca17c453c51c","67c7115adf212260a0bf18f8","passed","","1817","","","","","","","","","","","","","","j","yesOrNo","","","","12","","","gt","3000","","18","575.4211431702997","266.76"
"","","","","","html-keyboard-response","97","402985","0.0-16.0-0.18","58a0c507890ea500014c4e9b","6796e1c0ff24ca17c453c51c","67c7115adf212260a0bf18f8","passed","","","","","","","","","","","","","","","","","ballFalling","500","479.92114317029973","330.87","6","fallScene","true","","","","19","",""
"","","","","","html-keyboard-response","98","405988","0.0-16.0-1.18","58a0c507890ea500014c4e9b","6796e1c0ff24ca17c453c51c","67c7115adf212260a0bf18f8","passed","","1395","","","","","","","","","","","","","","f","yesOrNo","","","","6","","","lp","3000","","19","499","189.92909825697632"
"","","","","","html-keyboard-response","99","407563","0.0-16.0-0.19","58a0c507890ea500014c4e9b","6796e1c0ff24ca17c453c51c","67c7115adf212260a0bf18f8","passed","","","","","","","","","","","","","","","","","ballFalling","604.4000000000001","575.4211431702997","266.76","12","fallScene","false","","","","20","",""
"","","","","","html-keyboard-response","100","410567","0.0-16.0-1.19","58a0c507890ea500014c4e9b","6796e1c0ff24ca17c453c51c","67c7115adf212260a0bf18f8","passed","","1531","","","","","","","","","","","","","","f","yesOrNo","","","","12","","","mid","3000","","20","536.4288568297004","300"
"","","","","","html-keyboard-response","101","412352","0.0-16.0-0.20","58a0c507890ea500014c4e9b","6796e1c0ff24ca17c453c51c","67c7115adf212260a0bf18f8","passed","","","","","","","","","","","","","","","","","ballFalling","322.3","308.07114317029976","253.89","2","fallScene","false","","","","21","",""
"","","","","","html-keyboard-response","102","415366","0.0-16.0-1.20","58a0c507890ea500014c4e9b","6796e1c0ff24ca17c453c51c","67c7115adf212260a0bf18f8","passed","","1164","","","","","","","","","","","","","","j","yesOrNo","","","","2","","","gt","3000","","21","308.07114317029976","253.89"
"","","","","","html-keyboard-response","103","416935","0.0-16.0-0.21","58a0c507890ea500014c4e9b","6796e1c0ff24ca17c453c51c","67c7115adf212260a0bf18f8","passed","","","","","","","","","","","","","","","","","ballFalling","500","553.4711431702997","282.51","7","fallScene","false","","","","22","",""
"","","","","","html-keyboard-response","104","419953","0.0-16.0-1.21","58a0c507890ea500014c4e9b","6796e1c0ff24ca17c453c51c","67c7115adf212260a0bf18f8","passed","","1023","","","","","","","","","","","","","","f","yesOrNo","","","","7","","","gt","3000","","22","553.4711431702997","282.51"
"","","","","","html-keyboard-response","105","421762","0.0-16.0-0.22","58a0c507890ea500014c4e9b","6796e1c0ff24ca17c453c51c","67c7115adf212260a0bf18f8","passed","","","","","","","","","","","","","","","","","ballFalling","322.3","308.07114317029976","253.89","2","fallScene","false","","","","23","",""
"","","","","","html-keyboard-response","106","424766","0.0-16.0-1.22","58a0c507890ea500014c4e9b","6796e1c0ff24ca17c453c51c","67c7115adf212260a0bf18f8","passed","","855","","","","","","","","","","","","","","j","yesOrNo","","","","2","","","gt","3000","","23","308.07114317029976","253.89"
"","","","","","html-keyboard-response","107","426768","0.0-16.0-0.23","58a0c507890ea500014c4e9b","6796e1c0ff24ca17c453c51c","67c7115adf212260a0bf18f8","passed","","","","","","","","","","","","","","","","","ballFalling","500","510.8711431702997","369.03","8","fallScene","true","","","","24","",""
"","","","","","html-keyboard-response","108","429783","0.0-16.0-1.23","58a0c507890ea500014c4e9b","6796e1c0ff24ca17c453c51c","67c7115adf212260a0bf18f8","passed","","1293","","","","","","","","","","","","","","f","yesOrNo","","","","8","","","gt","3000","","24","510.8711431702997","369.03"
"","","","","","html-keyboard-response","109","432112","0.0-17.0","58a0c507890ea500014c4e9b","6796e1c0ff24ca17c453c51c","67c7115adf212260a0bf18f8","passed","","2328","","","","","","","","","","","","","<p><span style=""font-size:40px;"">BLOCK 2</span></p><p><span style=""font-size:25px;"">You have <b style=""color: #FF644F;""><strong>0.7 second(s)</strong></b> to respond to the following trials.</span><br></p><p></p> <!-- Blank line -->
                <p id=""blinking-text"" style=""font-weight; animation: blink 2s infinite;"">Press Space to continue</p>
                <style>
                    @keyframes blink {
                        50% {
                            opacity: 0;
                        }
                    }
                </style></p>"," ","","","","","","","","","","","","",""
"","","","","","html-keyboard-response","110","433599","0.0-18.0-0.0","58a0c507890ea500014c4e9b","6796e1c0ff24ca17c453c51c","67c7115adf212260a0bf18f8","passed","","","","","","","","","","","","","","","","","ballFalling","604.4000000000001","667.6211431702998","201.78","9","fallScene","false","","","","25","",""
"","","","","","html-keyboard-response","111","434303","0.0-18.0-1.0","58a0c507890ea500014c4e9b","6796e1c0ff24ca17c453c51c","67c7115adf212260a0bf18f8","passed","","600","","","","","","","","","","","","","","f","yesOrNo","","","","9","","","gt","700","","25","667.6211431702998","201.78"
"","","","","","html-keyboard-response","112","435868","0.0-18.0-0.1","58a0c507890ea500014c4e9b","6796e1c0ff24ca17c453c51c","67c7115adf212260a0bf18f8","passed","","","","","","","","","","","","","","","","","ballFalling","604.4000000000001","650.0211431702996","404.58000000000004","11","fallScene","false","","","","26","",""
"","","","","","html-keyboard-response","113","436582","0.0-18.0-1.1","58a0c507890ea500014c4e9b","6796e1c0ff24ca17c453c51c","67c7115adf212260a0bf18f8","passed","","633","","","","","","","","","","","","","","f","yesOrNo","","","","11","","","lp","700","","26","605.4000000000001","372.6340973215488"
"","","","","","html-keyboard-response","114","438151","0.0-18.0-0.2","58a0c507890ea500014c4e9b","6796e1c0ff24ca17c453c51c","67c7115adf212260a0bf18f8","passed","","","","","","","","","","","","","","","","","ballFalling","500","553.4711431702997","282.51","7","fallScene","true","","","","27","",""
"","","","","","html-keyboard-response","115","438854","0.0-18.0-1.2","58a0c507890ea500014c4e9b","6796e1c0ff24ca17c453c51c","67c7115adf212260a0bf18f8","passed","","549","","","","","","","","","","","","","","j","yesOrNo","","","","7","","","gt","700","","27","553.4711431702997","282.51"
"","","","","","html-keyboard-response","116","440867","0.0-18.0-0.3","58a0c507890ea500014c4e9b","6796e1c0ff24ca17c453c51c","67c7115adf212260a0bf18f8","passed","","","","","","","","","","","","","","","","","ballFalling","500","510.8711431702997","369.03","8","fallScene","false","","","","28","",""
"","","","","","html-keyboard-response","117","441571","0.0-18.0-1.3","58a0c507890ea500014c4e9b","6796e1c0ff24ca17c453c51c","67c7115adf212260a0bf18f8","passed","","660","","","","","","","","","","","","","","j","yesOrNo","","","","8","","","mid","700","","28","501","300"
"","","","","","html-keyboard-response","118","443584","0.0-18.0-0.4","58a0c507890ea500014c4e9b","6796e1c0ff24ca17c453c51c","67c7115adf212260a0bf18f8","passed","","","","","","","","","","","","","","","","","ballFalling","604.4000000000001","596.8711431702998","394.5","10","fallScene","true","","","","29","",""
"","","","","","html-keyboard-response","119","444298","0.0-18.0-1.4","58a0c507890ea500014c4e9b","6796e1c0ff24ca17c453c51c","67c7115adf212260a0bf18f8","passed","","666","","","","","","","","","","","","","","f","yesOrNo","","","","10","","","gt","700","","29","596.8711431702998","394.5"
"","","","","","html-keyboard-response","120","446301","0.0-18.0-0.5","58a0c507890ea500014c4e9b","6796e1c0ff24ca17c453c51c","67c7115adf212260a0bf18f8","passed","","","","","","","","","","","","","","","","","ballFalling","500","510.8711431702997","369.03","8","fallScene","true","","","","30","",""
"","","","","","html-keyboard-response","121","447007","0.0-18.0-1.5","58a0c507890ea500014c4e9b","6796e1c0ff24ca17c453c51c","67c7115adf212260a0bf18f8","passed","","702","","","","","","","","","","","","","","f","yesOrNo","","","","8","","","lp","700","","30","501","151"
"","","","","","html-keyboard-response","122","448568","0.0-18.0-0.6","58a0c507890ea500014c4e9b","6796e1c0ff24ca17c453c51c","67c7115adf212260a0bf18f8","passed","","","","","","","","","","","","","","","","","ballFalling","500","453.67114317029973","210.33","5","fallScene","true","","","","31","",""
"","","","","","html-keyboard-response","123","449282","0.0-18.0-1.6","58a0c507890ea500014c4e9b","6796e1c0ff24ca17c453c51c","67c7115adf212260a0bf18f8","passed","","547","","","","","","","","","","","","","","j","yesOrNo","","","","5","","","gt","700","","31","453.6711431702998","210.33"
"","","","","","html-keyboard-response","124","450833","0.0-18.0-0.7","58a0c507890ea500014c4e9b","6796e1c0ff24ca17c453c51c","67c7115adf212260a0bf18f8","passed","","","","","","","","","","","","","","","","","ballFalling","322.3","356.42114317029973","357.87","4","fallScene","true","","","","32","",""
"","","","","","html-keyboard-response","125","451549","0.0-18.0-1.7","58a0c507890ea500014c4e9b","6796e1c0ff24ca17c453c51c","67c7115adf212260a0bf18f8","passed","","null","","","","","","","","","","","","","","null","yesOrNo","","","","4","","","gt","700","","32","356.42114317029973","357.87"
"","","","","","html-keyboard-response","126","453083","0.0-18.0-0.8","58a0c507890ea500014c4e9b","6796e1c0ff24ca17c453c51c","67c7115adf212260a0bf18f8","passed","","","","","","","","","","","","","","","","","ballFalling","322.3","379.3711431702997","245.25","1","fallScene","false","","","","33","",""
"","","","","","html-keyboard-response","127","453787","0.0-18.0-1.8","58a0c507890ea500014c4e9b","6796e1c0ff24ca17c453c51c","67c7115adf212260a0bf18f8","passed","","561","","","","","","","","","","","","","","f","yesOrNo","","","","1","","","mid","700","","33","390.27114317029975","300"
"","","","","","html-keyboard-response","128","455350","0.0-18.0-0.9","58a0c507890ea500014c4e9b","6796e1c0ff24ca17c453c51c","67c7115adf212260a0bf18f8","passed","","","","","","","","","","","","","","","","","ballFalling","500","453.67114317029973","210.33","5","fallScene","false","","","","34","",""
"","","","","","html-keyboard-response","129","456068","0.0-18.0-1.9","58a0c507890ea500014c4e9b","6796e1c0ff24ca17c453c51c","67c7115adf212260a0bf18f8","passed","","565","","","","","","","","","","","","","","f","yesOrNo","","","","5","","","mid","700","","34","499","300"
"","","","","","html-keyboard-response","130","457632","0.0-18.0-0.10","58a0c507890ea500014c4e9b","6796e1c0ff24ca17c453c51c","67c7115adf212260a0bf18f8","passed","","","","","","","","","","","","","","","","","ballFalling","604.4000000000001","575.4211431702997","266.76","12","fallScene","false","","","","35","",""
"","","","","","html-keyboard-response","131","458336","0.0-18.0-1.10","58a0c507890ea500014c4e9b","6796e1c0ff24ca17c453c51c","67c7115adf212260a0bf18f8","passed","","590","","","","","","","","","","","","","","j","yesOrNo","","","","12","","","lp","700","","35","603.4000000000001","151"
"","","","","","html-keyboard-response","132","459900","0.0-18.0-0.11","58a0c507890ea500014c4e9b","6796e1c0ff24ca17c453c51c","67c7115adf212260a0bf18f8","passed","","","","","","","","","","","","","","","","","ballFalling","604.4000000000001","575.4211431702997","266.76","12","fallScene","true","","","","36","",""
"","","","","","html-keyboard-response","133","460604","0.0-18.0-1.11","58a0c507890ea500014c4e9b","6796e1c0ff24ca17c453c51c","67c7115adf212260a0bf18f8","passed","","558","","","","","","","","","","","","","","f","yesOrNo","","","","12","","","mid","700","","36","536.4288568297004","300"
"","","","","","html-keyboard-response","134","462267","0.0-18.0-0.12","58a0c507890ea500014c4e9b","6796e1c0ff24ca17c453c51c","67c7115adf212260a0bf18f8","passed","","","","","","","","","","","","","","","","","ballFalling","500","479.92114317029973","330.87","6","fallScene","true","","","","37","",""
"","","","","","html-keyboard-response","135","462984","0.0-18.0-1.12","58a0c507890ea500014c4e9b","6796e1c0ff24ca17c453c51c","67c7115adf212260a0bf18f8","passed","","501","","","","","","","","","","","","","","f","yesOrNo","","","","6","","","mid","700","","37","499","300"
"","","","","","html-keyboard-response","136","464999","0.0-18.0-0.13","58a0c507890ea500014c4e9b","6796e1c0ff24ca17c453c51c","67c7115adf212260a0bf18f8","passed","","","","","","","","","","","","","","","","","ballFalling","500","510.8711431702997","369.03","8","fallScene","false","","","","38","",""
"","","","","","html-keyboard-response","137","465701","0.0-18.0-1.13","58a0c507890ea500014c4e9b","6796e1c0ff24ca17c453c51c","67c7115adf212260a0bf18f8","passed","","584","","","","","","","","","","","","","","j","yesOrNo","","","","8","","","gt","700","","38","510.8711431702997","369.03"
"","","","","","html-keyboard-response","138","467364","0.0-18.0-0.14","58a0c507890ea500014c4e9b","6796e1c0ff24ca17c453c51c","67c7115adf212260a0bf18f8","passed","","","","","","","","","","","","","","","","","ballFalling","500","479.92114317029973","330.87","6","fallScene","true","","","","39","",""
"","","","","","html-keyboard-response","139","468067","0.0-18.0-1.14","58a0c507890ea500014c4e9b","6796e1c0ff24ca17c453c51c","67c7115adf212260a0bf18f8","passed","","658","","","","","","","","","","","","","","j","yesOrNo","","","","6","","","gt","700","","39","479.9211431702998","330.87"
"","","","","","html-keyboard-response","140","469566","0.0-18.0-0.15","58a0c507890ea500014c4e9b","6796e1c0ff24ca17c453c51c","67c7115adf212260a0bf18f8","passed","","","","","","","","","","","","","","","","","ballFalling","604.4000000000001","667.6211431702998","201.78","9","fallScene","true","","","","40","",""
"","","","","","html-keyboard-response","141","470280","0.0-18.0-1.15","58a0c507890ea500014c4e9b","6796e1c0ff24ca17c453c51c","67c7115adf212260a0bf18f8","passed","","690","","","","","","","","","","","","","","f","yesOrNo","","","","9","","","mid","700","","40","605.4000000000001","300"
"","","","","","html-keyboard-response","142","471848","0.0-18.0-0.16","58a0c507890ea500014c4e9b","6796e1c0ff24ca17c453c51c","67c7115adf212260a0bf18f8","passed","","","","","","","","","","","","","","","","","ballFalling","500","553.4711431702997","282.51","7","fallScene","true","","","","41","",""
"","","","","","html-keyboard-response","143","472564","0.0-18.0-1.16","58a0c507890ea500014c4e9b","6796e1c0ff24ca17c453c51c","67c7115adf212260a0bf18f8","passed","","571","","","","","","","","","","","","","","j","yesOrNo","","","","7","","","mid","700","","41","501","300"
"","","","","","html-keyboard-response","144","474115","0.0-18.0-0.17","58a0c507890ea500014c4e9b","6796e1c0ff24ca17c453c51c","67c7115adf212260a0bf18f8","passed","","","","","","","","","","","","","","","","","ballFalling","322.3","296.07114317029976","371.46","3","fallScene","true","","","","42","",""
"","","","","","html-keyboard-response","145","474833","0.0-18.0-1.17","58a0c507890ea500014c4e9b","6796e1c0ff24ca17c453c51c","67c7115adf212260a0bf18f8","passed","","null","","","","","","","","","","","","","","null","yesOrNo","","","","3","","","mid","700","","42","321.3","300"
"","","","","","html-keyboard-response","146","476398","0.0-18.0-0.18","58a0c507890ea500014c4e9b","6796e1c0ff24ca17c453c51c","67c7115adf212260a0bf18f8","passed","","","","","","","","","","","","","","","","","ballFalling","500","453.67114317029973","210.33","5","fallScene","false","","","","43","",""
"","","","","","html-keyboard-response","147","477100","0.0-18.0-1.18","58a0c507890ea500014c4e9b","6796e1c0ff24ca17c453c51c","67c7115adf212260a0bf18f8","passed","","700","","","","","","","","","","","","","","f","yesOrNo","","","","5","","","gt","700","","43","453.6711431702998","210.33"
"","","","","","html-keyboard-response","148","478666","0.0-18.0-0.19","58a0c507890ea500014c4e9b","6796e1c0ff24ca17c453c51c","67c7115adf212260a0bf18f8","passed","","","","","","","","","","","","","","","","","ballFalling","604.4000000000001","575.4211431702997","266.76","12","fallScene","false","","","","44","",""
"","","","","","html-keyboard-response","149","479380","0.0-18.0-1.19","58a0c507890ea500014c4e9b","6796e1c0ff24ca17c453c51c","67c7115adf212260a0bf18f8","passed","","693","","","","","","","","","","","","","","j","yesOrNo","","","","12","","","gt","700","","44","575.4211431702997","266.76"
"","","","","","html-keyboard-response","150","481165","0.0-18.0-0.20","58a0c507890ea500014c4e9b","6796e1c0ff24ca17c453c51c","67c7115adf212260a0bf18f8","passed","","","","","","","","","","","","","","","","","ballFalling","322.3","308.07114317029976","253.89","2","fallScene","false","","","","45","",""
"","","","","","html-keyboard-response","151","481880","0.0-18.0-1.20","58a0c507890ea500014c4e9b","6796e1c0ff24ca17c453c51c","67c7115adf212260a0bf18f8","passed","","null","","","","","","","","","","","","","","null","yesOrNo","","","","2","","","gt","700","","45","308.07114317029976","253.89"
"","","","","","html-keyboard-response","152","483882","0.0-18.0-0.21","58a0c507890ea500014c4e9b","6796e1c0ff24ca17c453c51c","67c7115adf212260a0bf18f8","passed","","","","","","","","","","","","","","","","","ballFalling","500","510.8711431702997","369.03","8","fallScene","true","","","","46","",""
"","","","","","html-keyboard-response","153","484600","0.0-18.0-1.21","58a0c507890ea500014c4e9b","6796e1c0ff24ca17c453c51c","67c7115adf212260a0bf18f8","passed","","511","","","","","","","","","","","","","","f","yesOrNo","","","","8","","","gt","700","","46","510.8711431702997","369.03"
"","","","","","html-keyboard-response","154","486182","0.0-18.0-0.22","58a0c507890ea500014c4e9b","6796e1c0ff24ca17c453c51c","67c7115adf212260a0bf18f8","passed","","","","","","","","","","","","","","","","","ballFalling","322.3","356.42114317029973","357.87","4","fallScene","true","","","","47","",""
"","","","","","html-keyboard-response","155","486896","0.0-18.0-1.22","58a0c507890ea500014c4e9b","6796e1c0ff24ca17c453c51c","67c7115adf212260a0bf18f8","passed","","null","","","","","","","","","","","","","","null","yesOrNo","","","","4","","","lp","700","","47","323.3","297.4070551689986"
"","","","","","html-keyboard-response","156","488382","0.0-18.0-0.23","58a0c507890ea500014c4e9b","6796e1c0ff24ca17c453c51c","67c7115adf212260a0bf18f8","passed","","","","","","","","","","","","","","","","","ballFalling","604.4000000000001","667.6211431702998","201.78","9","fallScene","true","","","","48","",""
"","","","","","html-keyboard-response","157","489096","0.0-18.0-1.23","58a0c507890ea500014c4e9b","6796e1c0ff24ca17c453c51c","67c7115adf212260a0bf18f8","passed","","688","","","","","","","","","","","","","","f","yesOrNo","","","","9","","","gt","700","","48","667.6211431702998","201.78"
"","","","","","html-keyboard-response","158","492046","0.0-19.0","58a0c507890ea500014c4e9b","6796e1c0ff24ca17c453c51c","67c7115adf212260a0bf18f8","passed","","2948","","","","","","","","","","","","","<p><span style=""font-size:40px;"">BLOCK 3</span></p><p><span style=""font-size:25px;"">You have <b style=""color: #FF644F;""><strong>3 second(s)</strong></b> to respond to the following trials.</span><br></p><p></p> <!-- Blank line -->
                <p id=""blinking-text"" style=""font-weight; animation: blink 2s infinite;"">Press Space to continue</p>
                <style>
                    @keyframes blink {
                        50% {
                            opacity: 0;
                        }
                    }
                </style></p>"," ","","","","","","","","","","","","",""
"","","","","","html-keyboard-response","159","493614","0.0-20.0-0.0","58a0c507890ea500014c4e9b","6796e1c0ff24ca17c453c51c","67c7115adf212260a0bf18f8","passed","","","","","","","","","","","","","","","","","ballFalling","604.4000000000001","650.0211431702996","404.58000000000004","11","fallScene","false","","","","49","",""
"","","","","","html-keyboard-response","160","496618","0.0-20.0-1.0","58a0c507890ea500014c4e9b","6796e1c0ff24ca17c453c51c","67c7115adf212260a0bf18f8","passed","","866","","","","","","","","","","","","","","f","yesOrNo","","","","11","","","gt","3000","","49","650.0211431702996","404.58"
"","","","","","html-keyboard-response","161","498180","0.0-20.0-0.1","58a0c507890ea500014c4e9b","6796e1c0ff24ca17c453c51c","67c7115adf212260a0bf18f8","passed","","","","","","","","","","","","","","","","","ballFalling","500","453.67114317029973","210.33","5","fallScene","false","","","","50","",""
"","","","","","html-keyboard-response","162","501182","0.0-20.0-1.1","58a0c507890ea500014c4e9b","6796e1c0ff24ca17c453c51c","67c7115adf212260a0bf18f8","passed","","751","","","","","","","","","","","","","","j","yesOrNo","","","","5","","","mid","3000","","50","499","300"
"","","","","","html-keyboard-response","163","503197","0.0-20.0-0.2","58a0c507890ea500014c4e9b","6796e1c0ff24ca17c453c51c","67c7115adf212260a0bf18f8","passed","","","","","","","","","","","","","","","","","ballFalling","500","510.8711431702997","369.03","8","fallScene","false","","","","51","",""
"","","","","","html-keyboard-response","164","506213","0.0-20.0-1.2","58a0c507890ea500014c4e9b","6796e1c0ff24ca17c453c51c","67c7115adf212260a0bf18f8","passed","","1516","","","","","","","","","","","","","","j","yesOrNo","","","","8","","","mid","3000","","51","501","300"
"","","","","","html-keyboard-response","165","507697","0.0-20.0-0.3","58a0c507890ea500014c4e9b","6796e1c0ff24ca17c453c51c","67c7115adf212260a0bf18f8","passed","","","","","","","","","","","","","","","","","ballFalling","604.4000000000001","667.6211431702998","201.78","9","fallScene","false","","","","52","",""
"","","","","","html-keyboard-response","166","510714","0.0-20.0-1.3","58a0c507890ea500014c4e9b","6796e1c0ff24ca17c453c51c","67c7115adf212260a0bf18f8","passed","","998","","","","","","","","","","","","","","f","yesOrNo","","","","9","","","gt","3000","","52","667.6211431702998","201.78"
"","","","","","html-keyboard-response","167","512379","0.0-20.0-0.4","58a0c507890ea500014c4e9b","6796e1c0ff24ca17c453c51c","67c7115adf212260a0bf18f8","passed","","","","","","","","","","","","","","","","","ballFalling","500","479.92114317029973","330.87","6","fallScene","false","","","","53","",""
"","","","","","html-keyboard-response","168","515383","0.0-20.0-1.4","58a0c507890ea500014c4e9b","6796e1c0ff24ca17c453c51c","67c7115adf212260a0bf18f8","passed","","1059","","","","","","","","","","","","","","j","yesOrNo","","","","6","","","gt","3000","","53","479.9211431702998","330.87"
"","","","","","html-keyboard-response","169","516946","0.0-20.0-0.5","58a0c507890ea500014c4e9b","6796e1c0ff24ca17c453c51c","67c7115adf212260a0bf18f8","passed","","","","","","","","","","","","","","","","","ballFalling","604.4000000000001","575.4211431702997","266.76","12","fallScene","false","","","","54","",""
"","","","","","html-keyboard-response","170","519949","0.0-20.0-1.5","58a0c507890ea500014c4e9b","6796e1c0ff24ca17c453c51c","67c7115adf212260a0bf18f8","passed","","753","","","","","","","","","","","","","","f","yesOrNo","","","","12","","","lp","3000","","54","603.4000000000001","151"
"","","","","","html-keyboard-response","171","521513","0.0-20.0-0.6","58a0c507890ea500014c4e9b","6796e1c0ff24ca17c453c51c","67c7115adf212260a0bf18f8","passed","","","","","","","","","","","","","","","","","ballFalling","322.3","379.3711431702997","245.25","1","fallScene","false","","","","55","",""
"","","","","","html-keyboard-response","172","524529","0.0-20.0-1.6","58a0c507890ea500014c4e9b","6796e1c0ff24ca17c453c51c","67c7115adf212260a0bf18f8","passed","","999","","","","","","","","","","","","","","f","yesOrNo","","","","1","","","gt","3000","","55","379.3711431702997","245.25"
"","","","","","html-keyboard-response","173","526545","0.0-20.0-0.7","58a0c507890ea500014c4e9b","6796e1c0ff24ca17c453c51c","67c7115adf212260a0bf18f8","passed","","","","","","","","","","","","","","","","","ballFalling","604.4000000000001","596.8711431702998","394.5","10","fallScene","true","","","","56","",""
"","","","","","html-keyboard-response","174","529549","0.0-20.0-1.7","58a0c507890ea500014c4e9b","6796e1c0ff24ca17c453c51c","67c7115adf212260a0bf18f8","passed","","967","","","","","","","","","","","","","","f","yesOrNo","","","","10","","","lp","3000","","56","603.4000000000001","215.50214355555383"
"","","","","","html-keyboard-response","175","531112","0.0-20.0-0.8","58a0c507890ea500014c4e9b","6796e1c0ff24ca17c453c51c","67c7115adf212260a0bf18f8","passed","","","","","","","","","","","","","","","","","ballFalling","322.3","296.07114317029976","371.46","3","fallScene","false","","","","57","",""
"","","","","","html-keyboard-response","176","534115","0.0-20.0-1.8","58a0c507890ea500014c4e9b","6796e1c0ff24ca17c453c51c","67c7115adf212260a0bf18f8","passed","","1069","","","","","","","","","","","","","","j","yesOrNo","","","","3","","","lp","3000","","57","321.3","287.3327096511259"
"","","","","","html-keyboard-response","177","535679","0.0-20.0-0.9","58a0c507890ea500014c4e9b","6796e1c0ff24ca17c453c51c","67c7115adf212260a0bf18f8","passed","","","","","","","","","","","","","","","","","ballFalling","604.4000000000001","575.4211431702997","266.76","12","fallScene","true","","","","58","",""
"","","","","","html-keyboard-response","178","538682","0.0-20.0-1.9","58a0c507890ea500014c4e9b","6796e1c0ff24ca17c453c51c","67c7115adf212260a0bf18f8","passed","","1486","","","","","","","","","","","","","","j","yesOrNo","","","","12","","","gt","3000","","58","575.4211431702997","266.76"
"","","","","","html-keyboard-response","179","540345","0.0-20.0-0.10","58a0c507890ea500014c4e9b","6796e1c0ff24ca17c453c51c","67c7115adf212260a0bf18f8","passed","","","","","","","","","","","","","","","","","ballFalling","500","479.92114317029973","330.87","6","fallScene","true","","","","59","",""
"","","","","","html-keyboard-response","180","543348","0.0-20.0-1.10","58a0c507890ea500014c4e9b","6796e1c0ff24ca17c453c51c","67c7115adf212260a0bf18f8","passed","","1725","","","","","","","","","","","","","","j","yesOrNo","","","","6","","","lp","3000","","59","499","189.92909825697632"
"","","","","","html-keyboard-response","181","544912","0.0-20.0-0.11","58a0c507890ea500014c4e9b","6796e1c0ff24ca17c453c51c","67c7115adf212260a0bf18f8","passed","","","","","","","","","","","","","","","","","ballFalling","322.3","379.3711431702997","245.25","1","fallScene","false","","","","60","",""
"","","","","","html-keyboard-response","182","547916","0.0-20.0-1.11","58a0c507890ea500014c4e9b","6796e1c0ff24ca17c453c51c","67c7115adf212260a0bf18f8","passed","","695","","","","","","","","","","","","","","f","yesOrNo","","","","1","","","mid","3000","","60","390.27114317029975","300"
"","","","","","html-keyboard-response","183","549928","0.0-20.0-0.12","58a0c507890ea500014c4e9b","6796e1c0ff24ca17c453c51c","67c7115adf212260a0bf18f8","passed","","","","","","","","","","","","","","","","","ballFalling","604.4000000000001","596.8711431702998","394.5","10","fallScene","false","","","","61","",""
"","","","","","html-keyboard-response","184","552932","0.0-20.0-1.12","58a0c507890ea500014c4e9b","6796e1c0ff24ca17c453c51c","67c7115adf212260a0bf18f8","passed","","1068","","","","","","","","","","","","","","f","yesOrNo","","","","10","","","gt","3000","","61","596.8711431702998","394.5"
"","","","","","html-keyboard-response","185","554495","0.0-20.0-0.13","58a0c507890ea500014c4e9b","6796e1c0ff24ca17c453c51c","67c7115adf212260a0bf18f8","passed","","","","","","","","","","","","","","","","","ballFalling","500","453.67114317029973","210.33","5","fallScene","false","","","","62","",""
"","","","","","html-keyboard-response","186","557498","0.0-20.0-1.13","58a0c507890ea500014c4e9b","6796e1c0ff24ca17c453c51c","67c7115adf212260a0bf18f8","passed","","850","","","","","","","","","","","","","","f","yesOrNo","","","","5","","","lp","3000","","62","499","151"
"","","","","","html-keyboard-response","187","559061","0.0-20.0-0.14","58a0c507890ea500014c4e9b","6796e1c0ff24ca17c453c51c","67c7115adf212260a0bf18f8","passed","","","","","","","","","","","","","","","","","ballFalling","500","453.67114317029973","210.33","5","fallScene","false","","","","63","",""
"","","","","","html-keyboard-response","188","562067","0.0-20.0-1.14","58a0c507890ea500014c4e9b","6796e1c0ff24ca17c453c51c","67c7115adf212260a0bf18f8","passed","","690","","","","","","","","","","","","","","f","yesOrNo","","","","5","","","lp","3000","","63","499","151"
"","","","","","html-keyboard-response","189","564077","0.0-20.0-0.15","58a0c507890ea500014c4e9b","6796e1c0ff24ca17c453c51c","67c7115adf212260a0bf18f8","passed","","","","","","","","","","","","","","","","","ballFalling","500","510.8711431702997","369.03","8","fallScene","true","","","","64","",""
"","","","","","html-keyboard-response","190","567092","0.0-20.0-1.15","58a0c507890ea500014c4e9b","6796e1c0ff24ca17c453c51c","67c7115adf212260a0bf18f8","passed","","1503","","","","","","","","","","","","","","j","yesOrNo","","","","8","","","lp","3000","","64","501","151"
"","","","","","html-keyboard-response","191","568644","0.0-20.0-0.16","58a0c507890ea500014c4e9b","6796e1c0ff24ca17c453c51c","67c7115adf212260a0bf18f8","passed","","","","","","","","","","","","","","","","","ballFalling","322.3","379.3711431702997","245.25","1","fallScene","true","","","","65","",""
"","","","","","html-keyboard-response","192","571646","0.0-20.0-1.16","58a0c507890ea500014c4e9b","6796e1c0ff24ca17c453c51c","67c7115adf212260a0bf18f8","passed","","965","","","","","","","","","","","","","","j","yesOrNo","","","","1","","","lp","3000","","65","323.3","217.74551669457017"
"","","","","","html-keyboard-response","193","573143","0.0-20.0-0.17","58a0c507890ea500014c4e9b","6796e1c0ff24ca17c453c51c","67c7115adf212260a0bf18f8","passed","","","","","","","","","","","","","","","","","ballFalling","604.4000000000001","667.6211431702998","201.78","9","fallScene","true","","","","66","",""
"","","","","","html-keyboard-response","194","576147","0.0-20.0-1.17","58a0c507890ea500014c4e9b","6796e1c0ff24ca17c453c51c","67c7115adf212260a0bf18f8","passed","","901","","","","","","","","","","","","","","f","yesOrNo","","","","9","","","lp","3000","","66","605.4000000000001","151"
"","","","","","html-keyboard-response","195","577710","0.0-20.0-0.18","58a0c507890ea500014c4e9b","6796e1c0ff24ca17c453c51c","67c7115adf212260a0bf18f8","passed","","","","","","","","","","","","","","","","","ballFalling","322.3","379.3711431702997","245.25","1","fallScene","true","","","","67","",""
"","","","","","html-keyboard-response","196","580714","0.0-20.0-1.18","58a0c507890ea500014c4e9b","6796e1c0ff24ca17c453c51c","67c7115adf212260a0bf18f8","passed","","830","","","","","","","","","","","","","","j","yesOrNo","","","","1","","","lp","3000","","67","323.3","217.74551669457017"
"","","","","","html-keyboard-response","197","582276","0.0-20.0-0.19","58a0c507890ea500014c4e9b","6796e1c0ff24ca17c453c51c","67c7115adf212260a0bf18f8","passed","","","","","","","","","","","","","","","","","ballFalling","322.3","356.42114317029973","357.87","4","fallScene","false","","","","68","",""
"","","","","","html-keyboard-response","198","585293","0.0-20.0-1.19","58a0c507890ea500014c4e9b","6796e1c0ff24ca17c453c51c","67c7115adf212260a0bf18f8","passed","","1667","","","","","","","","","","","","","","j","yesOrNo","","","","4","","","lp","3000","","68","323.3","297.4070551689986"
"","","","","","html-keyboard-response","199","586859","0.0-20.0-0.20","58a0c507890ea500014c4e9b","6796e1c0ff24ca17c453c51c","67c7115adf212260a0bf18f8","passed","","","","","","","","","","","","","","","","","ballFalling","322.3","356.42114317029973","357.87","4","fallScene","false","","","","69","",""
"","","","","","html-keyboard-response","200","589874","0.0-20.0-1.20","58a0c507890ea500014c4e9b","6796e1c0ff24ca17c453c51c","67c7115adf212260a0bf18f8","passed","","931","","","","","","","","","","","","","","f","yesOrNo","","","","4","","","mid","3000","","69","390.27114317029975","300"
"","","","","","html-keyboard-response","201","591876","0.0-20.0-0.21","58a0c507890ea500014c4e9b","6796e1c0ff24ca17c453c51c","67c7115adf212260a0bf18f8","passed","","","","","","","","","","","","","","","","","ballFalling","500","510.8711431702997","369.03","8","fallScene","false","","","","70","",""
"","","","","","html-keyboard-response","202","594879","0.0-20.0-1.21","58a0c507890ea500014c4e9b","6796e1c0ff24ca17c453c51c","67c7115adf212260a0bf18f8","passed","","1286","","","","","","","","","","","","","","f","yesOrNo","","","","8","","","gt","3000","","70","510.8711431702997","369.03"
"","","","","","html-keyboard-response","203","596442","0.0-20.0-0.22","58a0c507890ea500014c4e9b","6796e1c0ff24ca17c453c51c","67c7115adf212260a0bf18f8","passed","","","","","","","","","","","","","","","","","ballFalling","322.3","296.07114317029976","371.46","3","fallScene","true","","","","71","",""
"","","","","","html-keyboard-response","204","599460","0.0-20.0-1.22","58a0c507890ea500014c4e9b","6796e1c0ff24ca17c453c51c","67c7115adf212260a0bf18f8","passed","","814","","","","","","","","","","","","","","j","yesOrNo","","","","3","","","gt","3000","","71","296.07114317029976","371.46"
"","","","","","html-keyboard-response","205","601027","0.0-20.0-0.23","58a0c507890ea500014c4e9b","6796e1c0ff24ca17c453c51c","67c7115adf212260a0bf18f8","passed","","","","","","","","","","","","","","","","","ballFalling","604.4000000000001","575.4211431702997","266.76","12","fallScene","false","","","","72","",""
"","","","","","html-keyboard-response","206","604043","0.0-20.0-1.23","58a0c507890ea500014c4e9b","6796e1c0ff24ca17c453c51c","67c7115adf212260a0bf18f8","passed","","679","","","","","","","","","","","","","","f","yesOrNo","","","","12","","","lp","3000","","72","603.4000000000001","151"
"","","","","","html-keyboard-response","207","605975","0.0-21.0","58a0c507890ea500014c4e9b","6796e1c0ff24ca17c453c51c","67c7115adf212260a0bf18f8","passed","","1930","","","","","","","","","","","","","<p><span style=""font-size:40px;"">BLOCK 4</span></p><p><span style=""font-size:25px;"">You have <b style=""color: #FF644F;""><strong>3 second(s)</strong></b> to respond to the following trials.</span><br></p><p></p> <!-- Blank line -->
                <p id=""blinking-text"" style=""font-weight; animation: blink 2s infinite;"">Press Space to continue</p>
                <style>
                    @keyframes blink {
                        50% {
                            opacity: 0;
                        }
                    }
                </style></p>"," ","","","","","","","","","","","","",""
"","","","","","html-keyboard-response","208","607775","0.0-22.0-0.0","58a0c507890ea500014c4e9b","6796e1c0ff24ca17c453c51c","67c7115adf212260a0bf18f8","passed","","","","","","","","","","","","","","","","","ballFalling","322.3","308.07114317029976","253.89","2","fallScene","false","","","","73","",""
"","","","","","html-keyboard-response","209","610790","0.0-22.0-1.0","58a0c507890ea500014c4e9b","6796e1c0ff24ca17c453c51c","67c7115adf212260a0bf18f8","passed","","717","","","","","","","","","","","","","","f","yesOrNo","","","","2","","","lp","3000","","73","321.3","151"
"","","","","","html-keyboard-response","210","612341","0.0-22.0-0.1","58a0c507890ea500014c4e9b","6796e1c0ff24ca17c453c51c","67c7115adf212260a0bf18f8","passed","","","","","","","","","","","","","","","","","ballFalling","322.3","296.07114317029976","371.46","3","fallScene","true","","","","74","",""
"","","","","","html-keyboard-response","211","615344","0.0-22.0-1.1","58a0c507890ea500014c4e9b","6796e1c0ff24ca17c453c51c","67c7115adf212260a0bf18f8","passed","","1054","","","","","","","","","","","","","","j","yesOrNo","","","","3","","","gt","3000","","74","296.07114317029976","371.46"
"","","","","","html-keyboard-response","212","617358","0.0-22.0-0.2","58a0c507890ea500014c4e9b","6796e1c0ff24ca17c453c51c","67c7115adf212260a0bf18f8","passed","","","","","","","","","","","","","","","","","ballFalling","604.4000000000001","596.8711431702998","394.5","10","fallScene","false","","","","75","",""
"","","","","","html-keyboard-response","213","620362","0.0-22.0-1.2","58a0c507890ea500014c4e9b","6796e1c0ff24ca17c453c51c","67c7115adf212260a0bf18f8","passed","","1009","","","","","","","","","","","","","","f","yesOrNo","","","","10","","","gt","3000","","75","596.8711431702998","394.5"
"","","","","","html-keyboard-response","214","621925","0.0-22.0-0.3","58a0c507890ea500014c4e9b","6796e1c0ff24ca17c453c51c","67c7115adf212260a0bf18f8","passed","","","","","","","","","","","","","","","","","ballFalling","604.4000000000001","650.0211431702996","404.58000000000004","11","fallScene","false","","","","76","",""
"","","","","","html-keyboard-response","215","624929","0.0-22.0-1.3","58a0c507890ea500014c4e9b","6796e1c0ff24ca17c453c51c","67c7115adf212260a0bf18f8","passed","","1231","","","","","","","","","","","","","","j","yesOrNo","","","","11","","","lp","3000","","76","605.4000000000001","372.6340973215488"
"","","","","","html-keyboard-response","216","626507","0.0-22.0-0.4","58a0c507890ea500014c4e9b","6796e1c0ff24ca17c453c51c","67c7115adf212260a0bf18f8","passed","","","","","","","","","","","","","","","","","ballFalling","500","553.4711431702997","282.51","7","fallScene","true","","","","77","",""
"","","","","","html-keyboard-response","217","629521","0.0-22.0-1.4","58a0c507890ea500014c4e9b","6796e1c0ff24ca17c453c51c","67c7115adf212260a0bf18f8","passed","","780","","","","","","","","","","","","","","f","yesOrNo","","","","7","","","lp","3000","","77","501","227.2843295913261"
"","","","","","html-keyboard-response","218","631073","0.0-22.0-0.5","58a0c507890ea500014c4e9b","6796e1c0ff24ca17c453c51c","67c7115adf212260a0bf18f8","passed","","","","","","","","","","","","","","","","","ballFalling","322.3","379.3711431702997","245.25","1","fallScene","false","","","","78","",""
"","","","","","html-keyboard-response","219","634074","0.0-22.0-1.5","58a0c507890ea500014c4e9b","6796e1c0ff24ca17c453c51c","67c7115adf212260a0bf18f8","passed","","873","","","","","","","","","","","","","","f","yesOrNo","","","","1","","","gt","3000","","78","379.3711431702997","245.25"
"","","","","","html-keyboard-response","220","635640","0.0-22.0-0.6","58a0c507890ea500014c4e9b","6796e1c0ff24ca17c453c51c","67c7115adf212260a0bf18f8","passed","","","","","","","","","","","","","","","","","ballFalling","322.3","379.3711431702997","245.25","1","fallScene","true","","","","79","",""
"","","","","","html-keyboard-response","221","638644","0.0-22.0-1.6","58a0c507890ea500014c4e9b","6796e1c0ff24ca17c453c51c","67c7115adf212260a0bf18f8","passed","","1414","","","","","","","","","","","","","","f","yesOrNo","","","","1","","","mid","3000","","79","390.27114317029975","300"
"","","","","","html-keyboard-response","222","640207","0.0-22.0-0.7","58a0c507890ea500014c4e9b","6796e1c0ff24ca17c453c51c","67c7115adf212260a0bf18f8","passed","","","","","","","","","","","","","","","","","ballFalling","322.3","356.42114317029973","357.87","4","fallScene","false","","","","80","",""
"","","","","","html-keyboard-response","223","643222","0.0-22.0-1.7","58a0c507890ea500014c4e9b","6796e1c0ff24ca17c453c51c","67c7115adf212260a0bf18f8","passed","","1655","","","","","","","","","","","","","","j","yesOrNo","","","","4","","","lp","3000","","80","323.3","297.4070551689986"
"","","","","","html-keyboard-response","224","644789","0.0-22.0-0.8","58a0c507890ea500014c4e9b","6796e1c0ff24ca17c453c51c","67c7115adf212260a0bf18f8","passed","","","","","","","","","","","","","","","","","ballFalling","500","553.4711431702997","282.51","7","fallScene","true","","","","81","",""
"","","","","","html-keyboard-response","225","647791","0.0-22.0-1.8","58a0c507890ea500014c4e9b","6796e1c0ff24ca17c453c51c","67c7115adf212260a0bf18f8","passed","","1285","","","","","","","","","","","","","","j","yesOrNo","","","","7","","","gt","3000","","81","553.4711431702997","282.51"
"","","","","","html-keyboard-response","226","649822","0.0-22.0-0.9","58a0c507890ea500014c4e9b","6796e1c0ff24ca17c453c51c","67c7115adf212260a0bf18f8","passed","","","","","","","","","","","","","","","","","ballFalling","500","510.8711431702997","369.03","8","fallScene","true","","","","82","",""
"","","","","","html-keyboard-response","227","652827","0.0-22.0-1.9","58a0c507890ea500014c4e9b","6796e1c0ff24ca17c453c51c","67c7115adf212260a0bf18f8","passed","","779","","","","","","","","","","","","","","f","yesOrNo","","","","8","","","lp","3000","","82","501","151"
"","","","","","html-keyboard-response","228","654390","0.0-22.0-0.10","58a0c507890ea500014c4e9b","6796e1c0ff24ca17c453c51c","67c7115adf212260a0bf18f8","passed","","","","","","","","","","","","","","","","","ballFalling","604.4000000000001","650.0211431702996","404.58000000000004","11","fallScene","false","","","","83","",""
"","","","","","html-keyboard-response","229","657404","0.0-22.0-1.10","58a0c507890ea500014c4e9b","6796e1c0ff24ca17c453c51c","67c7115adf212260a0bf18f8","passed","","1236","","","","","","","","","","","","","","f","yesOrNo","","","","11","","","mid","3000","","83","605.4000000000001","300"
"","","","","","html-keyboard-response","230","658955","0.0-22.0-0.11","58a0c507890ea500014c4e9b","6796e1c0ff24ca17c453c51c","67c7115adf212260a0bf18f8","passed","","","","","","","","","","","","","","","","","ballFalling","322.3","296.07114317029976","371.46","3","fallScene","true","","","","84","",""
"","","","","","html-keyboard-response","231","661958","0.0-22.0-1.11","58a0c507890ea500014c4e9b","6796e1c0ff24ca17c453c51c","67c7115adf212260a0bf18f8","passed","","814","","","","","","","","","","","","","","j","yesOrNo","","","","3","","","mid","3000","","84","321.3","300"
"","","","","","html-keyboard-response","232","663523","0.0-22.0-0.12","58a0c507890ea500014c4e9b","6796e1c0ff24ca17c453c51c","67c7115adf212260a0bf18f8","passed","","","","","","","","","","","","","","","","","ballFalling","500","453.67114317029973","210.33","5","fallScene","false","","","","85","",""
"","","","","","html-keyboard-response","233","666540","0.0-22.0-1.12","58a0c507890ea500014c4e9b","6796e1c0ff24ca17c453c51c","67c7115adf212260a0bf18f8","passed","","1629","","","","","","","","","","","","","","f","yesOrNo","","","","5","","","gt","3000","","85","453.6711431702998","210.33"
"","","","","","html-keyboard-response","234","668121","0.0-22.0-0.13","58a0c507890ea500014c4e9b","6796e1c0ff24ca17c453c51c","67c7115adf212260a0bf18f8","passed","","","","","","","","","","","","","","","","","ballFalling","604.4000000000001","650.0211431702996","404.58000000000004","11","fallScene","false","","","","86","",""
"","","","","","html-keyboard-response","235","671137","0.0-22.0-1.13","58a0c507890ea500014c4e9b","6796e1c0ff24ca17c453c51c","67c7115adf212260a0bf18f8","passed","","866","","","","","","","","","","","","","","f","yesOrNo","","","","11","","","lp","3000","","86","605.4000000000001","372.6340973215488"
"","","","","","html-keyboard-response","236","672689","0.0-22.0-0.14","58a0c507890ea500014c4e9b","6796e1c0ff24ca17c453c51c","67c7115adf212260a0bf18f8","passed","","","","","","","","","","","","","","","","","ballFalling","604.4000000000001","650.0211431702996","404.58000000000004","11","fallScene","false","","","","87","",""
"","","","","","html-keyboard-response","237","675704","0.0-22.0-1.14","58a0c507890ea500014c4e9b","6796e1c0ff24ca17c453c51c","67c7115adf212260a0bf18f8","passed","","1217","","","","","","","","","","","","","","f","yesOrNo","","","","11","","","gt","3000","","87","650.0211431702996","404.58"
"","","","","","html-keyboard-response","238","677254","0.0-22.0-0.15","58a0c507890ea500014c4e9b","6796e1c0ff24ca17c453c51c","67c7115adf212260a0bf18f8","passed","","","","","","","","","","","","","","","","","ballFalling","322.3","356.42114317029973","357.87","4","fallScene","false","","","","88","",""
"","","","","","html-keyboard-response","239","680270","0.0-22.0-1.15","58a0c507890ea500014c4e9b","6796e1c0ff24ca17c453c51c","67c7115adf212260a0bf18f8","passed","","861","","","","","","","","","","","","","","f","yesOrNo","","","","4","","","mid","3000","","88","390.27114317029975","300"
"","","","","","html-keyboard-response","240","681923","0.0-22.0-0.16","58a0c507890ea500014c4e9b","6796e1c0ff24ca17c453c51c","67c7115adf212260a0bf18f8","passed","","","","","","","","","","","","","","","","","ballFalling","500","479.92114317029973","330.87","6","fallScene","true","","","","89","",""
"","","","","","html-keyboard-response","241","684937","0.0-22.0-1.16","58a0c507890ea500014c4e9b","6796e1c0ff24ca17c453c51c","67c7115adf212260a0bf18f8","passed","","1082","","","","","","","","","","","","","","j","yesOrNo","","","","6","","","gt","3000","","89","479.9211431702998","330.87"
"","","","","","html-keyboard-response","242","686936","0.0-22.0-0.17","58a0c507890ea500014c4e9b","6796e1c0ff24ca17c453c51c","67c7115adf212260a0bf18f8","passed","","","","","","","","","","","","","","","","","ballFalling","604.4000000000001","596.8711431702998","394.5","10","fallScene","true","","","","90","",""
"","","","","","html-keyboard-response","243","689940","0.0-22.0-1.17","58a0c507890ea500014c4e9b","6796e1c0ff24ca17c453c51c","67c7115adf212260a0bf18f8","passed","","848","","","","","","","","","","","","","","f","yesOrNo","","","","10","","","mid","3000","","90","536.4288568297004","300"
"","","","","","html-keyboard-response","244","691504","0.0-22.0-0.18","58a0c507890ea500014c4e9b","6796e1c0ff24ca17c453c51c","67c7115adf212260a0bf18f8","passed","","","","","","","","","","","","","","","","","ballFalling","500","453.67114317029973","210.33","5","fallScene","false","","","","91","",""
"","","","","","html-keyboard-response","245","694519","0.0-22.0-1.18","58a0c507890ea500014c4e9b","6796e1c0ff24ca17c453c51c","67c7115adf212260a0bf18f8","passed","","1502","","","","","","","","","","","","","","j","yesOrNo","","","","5","","","gt","3000","","91","453.6711431702998","210.33"
"","","","","","html-keyboard-response","246","696087","0.0-22.0-0.19","58a0c507890ea500014c4e9b","6796e1c0ff24ca17c453c51c","67c7115adf212260a0bf18f8","passed","","","","","","","","","","","","","","","","","ballFalling","500","553.4711431702997","282.51","7","fallScene","false","","","","92","",""
"","","","","","html-keyboard-response","247","699102","0.0-22.0-1.19","58a0c507890ea500014c4e9b","6796e1c0ff24ca17c453c51c","67c7115adf212260a0bf18f8","passed","","1153","","","","","","","","","","","","","","j","yesOrNo","","","","7","","","lp","3000","","92","501","227.2843295913261"
"","","","","","html-keyboard-response","248","700755","0.0-22.0-0.20","58a0c507890ea500014c4e9b","6796e1c0ff24ca17c453c51c","67c7115adf212260a0bf18f8","passed","","","","","","","","","","","","","","","","","ballFalling","500","479.92114317029973","330.87","6","fallScene","false","","","","93","",""
"","","","","","html-keyboard-response","249","703769","0.0-22.0-1.20","58a0c507890ea500014c4e9b","6796e1c0ff24ca17c453c51c","67c7115adf212260a0bf18f8","passed","","1513","","","","","","","","","","","","","","j","yesOrNo","","","","6","","","mid","3000","","93","499","300"
"","","","","","html-keyboard-response","250","705335","0.0-22.0-0.21","58a0c507890ea500014c4e9b","6796e1c0ff24ca17c453c51c","67c7115adf212260a0bf18f8","passed","","","","","","","","","","","","","","","","","ballFalling","500","553.4711431702997","282.51","7","fallScene","true","","","","94","",""
"","","","","","html-keyboard-response","251","708337","0.0-22.0-1.21","58a0c507890ea500014c4e9b","6796e1c0ff24ca17c453c51c","67c7115adf212260a0bf18f8","passed","","887","","","","","","","","","","","","","","j","yesOrNo","","","","7","","","mid","3000","","94","501","300"
"","","","","","html-keyboard-response","252","709902","0.0-22.0-0.22","58a0c507890ea500014c4e9b","6796e1c0ff24ca17c453c51c","67c7115adf212260a0bf18f8","passed","","","","","","","","","","","","","","","","","ballFalling","500","453.67114317029973","210.33","5","fallScene","true","","","","95","",""
"","","","","","html-keyboard-response","253","712918","0.0-22.0-1.22","58a0c507890ea500014c4e9b","6796e1c0ff24ca17c453c51c","67c7115adf212260a0bf18f8","passed","","937","","","","","","","","","","","","","","j","yesOrNo","","","","5","","","mid","3000","","95","499","300"
"","","","","","html-keyboard-response","254","714920","0.0-22.0-0.23","58a0c507890ea500014c4e9b","6796e1c0ff24ca17c453c51c","67c7115adf212260a0bf18f8","passed","","","","","","","","","","","","","","","","","ballFalling","604.4000000000001","596.8711431702998","394.5","10","fallScene","false","","","","96","",""
"","","","","","html-keyboard-response","255","717934","0.0-22.0-1.23","58a0c507890ea500014c4e9b","6796e1c0ff24ca17c453c51c","67c7115adf212260a0bf18f8","passed","","748","","","","","","","","","","","","","","f","yesOrNo","","","","10","","","mid","3000","","96","536.4288568297004","300"
"","","","","","html-keyboard-response","256","719691","0.0-23.0","58a0c507890ea500014c4e9b","6796e1c0ff24ca17c453c51c","67c7115adf212260a0bf18f8","passed","","1755","","","","","","","","","","","","","<p><span style=""font-size:40px;"">BLOCK 5</span></p><p><span style=""font-size:25px;"">You have <b style=""color: #FF644F;""><strong>0.7 second(s)</strong></b> to respond to the following trials.</span><br></p><p></p> <!-- Blank line -->
                <p id=""blinking-text"" style=""font-weight; animation: blink 2s infinite;"">Press Space to continue</p>
                <style>
                    @keyframes blink {
                        50% {
                            opacity: 0;
                        }
                    }
                </style></p>"," ","","","","","","","","","","","","",""
"","","","","","html-keyboard-response","257","721486","0.0-24.0-0.0","58a0c507890ea500014c4e9b","6796e1c0ff24ca17c453c51c","67c7115adf212260a0bf18f8","passed","","","","","","","","","","","","","","","","","ballFalling","322.3","308.07114317029976","253.89","2","fallScene","false","","","","97","",""
"","","","","","html-keyboard-response","258","722190","0.0-24.0-1.0","58a0c507890ea500014c4e9b","6796e1c0ff24ca17c453c51c","67c7115adf212260a0bf18f8","passed","","618","","","","","","","","","","","","","","j","yesOrNo","","","","2","","","mid","700","","97","321.3","300"
"","","","","","html-keyboard-response","259","723687","0.0-24.0-0.1","58a0c507890ea500014c4e9b","6796e1c0ff24ca17c453c51c","67c7115adf212260a0bf18f8","passed","","","","","","","","","","","","","","","","","ballFalling","604.4000000000001","667.6211431702998","201.78","9","fallScene","true","","","","98","",""
"","","","","","html-keyboard-response","260","724390","0.0-24.0-1.1","58a0c507890ea500014c4e9b","6796e1c0ff24ca17c453c51c","67c7115adf212260a0bf18f8","passed","","487","","","","","","","","","","","","","","f","yesOrNo","","","","9","","","lp","700","","98","605.4000000000001","151"
"","","","","","html-keyboard-response","261","725953","0.0-24.0-0.2","58a0c507890ea500014c4e9b","6796e1c0ff24ca17c453c51c","67c7115adf212260a0bf18f8","passed","","","","","","","","","","","","","","","","","ballFalling","322.3","356.42114317029973","357.87","4","fallScene","true","","","","99","",""
"","","","","","html-keyboard-response","262","726670","0.0-24.0-1.2","58a0c507890ea500014c4e9b","6796e1c0ff24ca17c453c51c","67c7115adf212260a0bf18f8","passed","","550","","","","","","","","","","","","","","f","yesOrNo","","","","4","","","mid","700","","99","390.27114317029975","300"
"","","","","","html-keyboard-response","263","728236","0.0-24.0-0.3","58a0c507890ea500014c4e9b","6796e1c0ff24ca17c453c51c","67c7115adf212260a0bf18f8","passed","","","","","","","","","","","","","","","","","ballFalling","322.3","296.07114317029976","371.46","3","fallScene","false","","","","100","",""
"","","","","","html-keyboard-response","264","728940","0.0-24.0-1.3","58a0c507890ea500014c4e9b","6796e1c0ff24ca17c453c51c","67c7115adf212260a0bf18f8","passed","","630","","","","","","","","","","","","","","j","yesOrNo","","","","3","","","lp","700","","100","321.3","287.3327096511259"
"","","","","","html-keyboard-response","265","730519","0.0-24.0-0.4","58a0c507890ea500014c4e9b","6796e1c0ff24ca17c453c51c","67c7115adf212260a0bf18f8","passed","","","","","","","","","","","","","","","","","ballFalling","500","553.4711431702997","282.51","7","fallScene","false","","","","101","",""
"","","","","","html-keyboard-response","266","731234","0.0-24.0-1.4","58a0c507890ea500014c4e9b","6796e1c0ff24ca17c453c51c","67c7115adf212260a0bf18f8","passed","","612","","","","","","","","","","","","","","f","yesOrNo","","","","7","","","lp","700","","101","501","227.2843295913261"
"","","","","","html-keyboard-response","267","732770","0.0-24.0-0.5","58a0c507890ea500014c4e9b","6796e1c0ff24ca17c453c51c","67c7115adf212260a0bf18f8","passed","","","","","","","","","","","","","","","","","ballFalling","604.4000000000001","575.4211431702997","266.76","12","fallScene","true","","","","102","",""
"","","","","","html-keyboard-response","268","733473","0.0-24.0-1.5","58a0c507890ea500014c4e9b","6796e1c0ff24ca17c453c51c","67c7115adf212260a0bf18f8","passed","","532","","","","","","","","","","","","","","j","yesOrNo","","","","12","","","mid","700","","102","536.4288568297004","300"
"","","","","","html-keyboard-response","269","735050","0.0-24.0-0.6","58a0c507890ea500014c4e9b","6796e1c0ff24ca17c453c51c","67c7115adf212260a0bf18f8","passed","","","","","","","","","","","","","","","","","ballFalling","604.4000000000001","650.0211431702996","404.58000000000004","11","fallScene","false","","","","103","",""
"","","","","","html-keyboard-response","270","735753","0.0-24.0-1.6","58a0c507890ea500014c4e9b","6796e1c0ff24ca17c453c51c","67c7115adf212260a0bf18f8","passed","","517","","","","","","","","","","","","","","f","yesOrNo","","","","11","","","mid","700","","103","605.4000000000001","300"
"","","","","","html-keyboard-response","271","737552","0.0-24.0-0.7","58a0c507890ea500014c4e9b","6796e1c0ff24ca17c453c51c","67c7115adf212260a0bf18f8","passed","","","","","","","","","","","","","","","","","ballFalling","322.3","308.07114317029976","253.89","2","fallScene","true","","","","104","",""
"","","","","","html-keyboard-response","272","738266","0.0-24.0-1.7","58a0c507890ea500014c4e9b","6796e1c0ff24ca17c453c51c","67c7115adf212260a0bf18f8","passed","","663","","","","","","","","","","","","","","f","yesOrNo","","","","2","","","gt","700","","104","308.07114317029976","253.89"
"","","","","","html-keyboard-response","273","739822","0.0-24.0-0.8","58a0c507890ea500014c4e9b","6796e1c0ff24ca17c453c51c","67c7115adf212260a0bf18f8","passed","","","","","","","","","","","","","","","","","ballFalling","322.3","379.3711431702997","245.25","1","fallScene","true","","","","105","",""
"","","","","","html-keyboard-response","274","740534","0.0-24.0-1.8","58a0c507890ea500014c4e9b","6796e1c0ff24ca17c453c51c","67c7115adf212260a0bf18f8","passed","","null","","","","","","","","","","","","","","null","yesOrNo","","","","1","","","gt","700","","105","379.3711431702997","245.25"
"","","","","","html-keyboard-response","275","742318","0.0-24.0-0.9","58a0c507890ea500014c4e9b","6796e1c0ff24ca17c453c51c","67c7115adf212260a0bf18f8","passed","","","","","","","","","","","","","","","","","ballFalling","322.3","308.07114317029976","253.89","2","fallScene","false","","","","106","",""
"","","","","","html-keyboard-response","276","743023","0.0-24.0-1.9","58a0c507890ea500014c4e9b","6796e1c0ff24ca17c453c51c","67c7115adf212260a0bf18f8","passed","","510","","","","","","","","","","","","","","f","yesOrNo","","","","2","","","lp","700","","106","321.3","151"
"","","","","","html-keyboard-response","277","744583","0.0-24.0-0.10","58a0c507890ea500014c4e9b","6796e1c0ff24ca17c453c51c","67c7115adf212260a0bf18f8","passed","","","","","","","","","","","","","","","","","ballFalling","604.4000000000001","650.0211431702996","404.58000000000004","11","fallScene","false","","","","107","",""
"","","","","","html-keyboard-response","278","745284","0.0-24.0-1.10","58a0c507890ea500014c4e9b","6796e1c0ff24ca17c453c51c","67c7115adf212260a0bf18f8","passed","","480","","","","","","","","","","","","","","j","yesOrNo","","","","11","","","lp","700","","107","605.4000000000001","372.6340973215488"
"","","","","","html-keyboard-response","279","746851","0.0-24.0-0.11","58a0c507890ea500014c4e9b","6796e1c0ff24ca17c453c51c","67c7115adf212260a0bf18f8","passed","","","","","","","","","","","","","","","","","ballFalling","322.3","356.42114317029973","357.87","4","fallScene","false","","","","108","",""
"","","","","","html-keyboard-response","280","747553","0.0-24.0-1.11","58a0c507890ea500014c4e9b","6796e1c0ff24ca17c453c51c","67c7115adf212260a0bf18f8","passed","","666","","","","","","","","","","","","","","j","yesOrNo","","","","4","","","lp","700","","108","323.3","297.4070551689986"
"","","","","","html-keyboard-response","281","749118","0.0-24.0-0.12","58a0c507890ea500014c4e9b","6796e1c0ff24ca17c453c51c","67c7115adf212260a0bf18f8","passed","","","","","","","","","","","","","","","","","ballFalling","322.3","379.3711431702997","245.25","1","fallScene","false","","","","109","",""
"","","","","","html-keyboard-response","282","749822","0.0-24.0-1.12","58a0c507890ea500014c4e9b","6796e1c0ff24ca17c453c51c","67c7115adf212260a0bf18f8","passed","","515","","","","","","","","","","","","","","f","yesOrNo","","","","1","","","mid","700","","109","390.27114317029975","300"
"","","","","","html-keyboard-response","283","751618","0.0-24.0-0.13","58a0c507890ea500014c4e9b","6796e1c0ff24ca17c453c51c","67c7115adf212260a0bf18f8","passed","","","","","","","","","","","","","","","","","ballFalling","322.3","308.07114317029976","253.89","2","fallScene","true","","","","110","",""
"","","","","","html-keyboard-response","284","752322","0.0-24.0-1.13","58a0c507890ea500014c4e9b","6796e1c0ff24ca17c453c51c","67c7115adf212260a0bf18f8","passed","","601","","","","","","","","","","","","","","f","yesOrNo","","","","2","","","mid","700","","110","321.3","300"
"","","","","","html-keyboard-response","285","753886","0.0-24.0-0.14","58a0c507890ea500014c4e9b","6796e1c0ff24ca17c453c51c","67c7115adf212260a0bf18f8","passed","","","","","","","","","","","","","","","","","ballFalling","500","453.67114317029973","210.33","5","fallScene","false","","","","111","",""
"","","","","","html-keyboard-response","286","754602","0.0-24.0-1.14","58a0c507890ea500014c4e9b","6796e1c0ff24ca17c453c51c","67c7115adf212260a0bf18f8","passed","","600","","","","","","","","","","","","","","f","yesOrNo","","","","5","","","lp","700","","111","499","151"
"","","","","","html-keyboard-response","287","756168","0.0-24.0-0.15","58a0c507890ea500014c4e9b","6796e1c0ff24ca17c453c51c","67c7115adf212260a0bf18f8","passed","","","","","","","","","","","","","","","","","ballFalling","322.3","356.42114317029973","357.87","4","fallScene","true","","","","112","",""
"","","","","","html-keyboard-response","288","756872","0.0-24.0-1.15","58a0c507890ea500014c4e9b","6796e1c0ff24ca17c453c51c","67c7115adf212260a0bf18f8","passed","","681","","","","","","","","","","","","","","f","yesOrNo","","","","4","","","mid","700","","112","390.27114317029975","300"
"","","","","","html-keyboard-response","289","758434","0.0-24.0-0.16","58a0c507890ea500014c4e9b","6796e1c0ff24ca17c453c51c","67c7115adf212260a0bf18f8","passed","","","","","","","","","","","","","","","","","ballFalling","322.3","296.07114317029976","371.46","3","fallScene","false","","","","113","",""
"","","","","","html-keyboard-response","290","759137","0.0-24.0-1.16","58a0c507890ea500014c4e9b","6796e1c0ff24ca17c453c51c","67c7115adf212260a0bf18f8","passed","","663","","","","","","","","","","","","","","j","yesOrNo","","","","3","","","lp","700","","113","321.3","287.3327096511259"
"","","","","","html-keyboard-response","291","761151","0.0-24.0-0.17","58a0c507890ea500014c4e9b","6796e1c0ff24ca17c453c51c","67c7115adf212260a0bf18f8","passed","","","","","","","","","","","","","","","","","ballFalling","604.4000000000001","596.8711431702998","394.5","10","fallScene","false","","","","114","",""
"","","","","","html-keyboard-response","292","761866","0.0-24.0-1.17","58a0c507890ea500014c4e9b","6796e1c0ff24ca17c453c51c","67c7115adf212260a0bf18f8","passed","","null","","","","","","","","","","","","","","null","yesOrNo","","","","10","","","gt","700","","114","596.8711431702998","394.5"
"","","","","","html-keyboard-response","293","763516","0.0-24.0-0.18","58a0c507890ea500014c4e9b","6796e1c0ff24ca17c453c51c","67c7115adf212260a0bf18f8","passed","","","","","","","","","","","","","","","","","ballFalling","500","479.92114317029973","330.87","6","fallScene","true","","","","115","",""
"","","","","","html-keyboard-response","294","764218","0.0-24.0-1.18","58a0c507890ea500014c4e9b","6796e1c0ff24ca17c453c51c","67c7115adf212260a0bf18f8","passed","","483","","","","","","","","","","","","","","j","yesOrNo","","","","6","","","mid","700","","115","499","300"
"","","","","","html-keyboard-response","295","765717","0.0-24.0-0.19","58a0c507890ea500014c4e9b","6796e1c0ff24ca17c453c51c","67c7115adf212260a0bf18f8","passed","","","","","","","","","","","","","","","","","ballFalling","604.4000000000001","667.6211431702998","201.78","9","fallScene","false","","","","116","",""
"","","","","","html-keyboard-response","296","766420","0.0-24.0-1.19","58a0c507890ea500014c4e9b","6796e1c0ff24ca17c453c51c","67c7115adf212260a0bf18f8","passed","","520","","","","","","","","","","","","","","f","yesOrNo","","","","9","","","mid","700","","116","605.4000000000001","300"
"","","","","","html-keyboard-response","297","767999","0.0-24.0-0.20","58a0c507890ea500014c4e9b","6796e1c0ff24ca17c453c51c","67c7115adf212260a0bf18f8","passed","","","","","","","","","","","","","","","","","ballFalling","500","553.4711431702997","282.51","7","fallScene","false","","","","117","",""
"","","","","","html-keyboard-response","298","768705","0.0-24.0-1.20","58a0c507890ea500014c4e9b","6796e1c0ff24ca17c453c51c","67c7115adf212260a0bf18f8","passed","","624","","","","","","","","","","","","","","f","yesOrNo","","","","7","","","gt","700","","117","553.4711431702997","282.51"
"","","","","","html-keyboard-response","299","770268","0.0-24.0-0.21","58a0c507890ea500014c4e9b","6796e1c0ff24ca17c453c51c","67c7115adf212260a0bf18f8","passed","","","","","","","","","","","","","","","","","ballFalling","500","453.67114317029973","210.33","5","fallScene","true","","","","118","",""
"","","","","","html-keyboard-response","300","770982","0.0-24.0-1.21","58a0c507890ea500014c4e9b","6796e1c0ff24ca17c453c51c","67c7115adf212260a0bf18f8","passed","","686","","","","","","","","","","","","","","j","yesOrNo","","","","5","","","mid","700","","118","499","300"
"","","","","","html-keyboard-response","301","772533","0.0-24.0-0.22","58a0c507890ea500014c4e9b","6796e1c0ff24ca17c453c51c","67c7115adf212260a0bf18f8","passed","","","","","","","","","","","","","","","","","ballFalling","322.3","296.07114317029976","371.46","3","fallScene","false","","","","119","",""
"","","","","","html-keyboard-response","302","773237","0.0-24.0-1.22","58a0c507890ea500014c4e9b","6796e1c0ff24ca17c453c51c","67c7115adf212260a0bf18f8","passed","","623","","","","","","","","","","","","","","f","yesOrNo","","","","3","","","mid","700","","119","321.3","300"
"","","","","","html-keyboard-response","303","774900","0.0-24.0-0.23","58a0c507890ea500014c4e9b","6796e1c0ff24ca17c453c51c","67c7115adf212260a0bf18f8","passed","","","","","","","","","","","","","","","","","ballFalling","500","479.92114317029973","330.87","6","fallScene","false","","","","120","",""
"","","","","","html-keyboard-response","304","775615","0.0-24.0-1.23","58a0c507890ea500014c4e9b","6796e1c0ff24ca17c453c51c","67c7115adf212260a0bf18f8","passed","","556","","","","","","","","","","","","","","j","yesOrNo","","","","6","","","gt","700","","120","479.9211431702998","330.87"
"","","","","","html-keyboard-response","305","777086","0.0-25.0","58a0c507890ea500014c4e9b","6796e1c0ff24ca17c453c51c","67c7115adf212260a0bf18f8","passed","","1469","","","","","","","","","","","","","<p><span style=""font-size:40px;"">BLOCK 6</span></p><p><span style=""font-size:25px;"">You have <b style=""color: #FF644F;""><strong>0.7 second(s)</strong></b> to respond to the following trials.</span><br></p><p></p> <!-- Blank line -->
                <p id=""blinking-text"" style=""font-weight; animation: blink 2s infinite;"">Press Space to continue</p>
                <style>
                    @keyframes blink {
                        50% {
                            opacity: 0;
                        }
                    }
                </style></p>"," ","","","","","","","","","","","","",""
"","","","","","html-keyboard-response","306","778650","0.0-26.0-0.0","58a0c507890ea500014c4e9b","6796e1c0ff24ca17c453c51c","67c7115adf212260a0bf18f8","passed","","","","","","","","","","","","","","","","","ballFalling","500","453.67114317029973","210.33","5","fallScene","false","","","","121","",""
"","","","","","html-keyboard-response","307","779353","0.0-26.0-1.0","58a0c507890ea500014c4e9b","6796e1c0ff24ca17c453c51c","67c7115adf212260a0bf18f8","passed","","524","","","","","","","","","","","","","","f","yesOrNo","","","","5","","","lp","700","","121","499","151"
