"success","timeout","failed_images","failed_audio","failed_video","trial_type","trial_index","time_elapsed","internal_node_id","subject_id","study_id","session_id","practiceTestResult","view_history","rt","width","height","webaudio","browser","browser_version","mobile","os","fullscreen","vsync_rate","webcam","microphone","url","stimulus","response","task","ball_X","obstacle_groundTruth_x","obstacle_groundTruth_y","stimulus_idx","trial_name","flipped","choice","timeLimit","question_order","comprehensionCheck","currentTrial","obstacle_choice_x","obstacle_choice_y"
"true","false","[]","[]","[]","preload","0","331","0.0-0.0","5a78dbb9ae9a0b0001a97212","6796e1c0ff24ca17c453c51c","67c6aff439d332eaf4bc52f9","passed","","","","","","","","","","","","","","","","","","","","","","","","","","","","","",""
"","","","","","instructions","1","5308","0.0-1.0","5a78dbb9ae9a0b0001a97212","6796e1c0ff24ca17c453c51c","67c6aff439d332eaf4bc52f9","passed","[{""page_index"":0,""viewing_time"":4976}]","4976","","","","","","","","","","","","","","","","","","","","","","","","","","","",""
"","","","","","browser-check","2","6300","0.0-2.0","5a78dbb9ae9a0b0001a97212","6796e1c0ff24ca17c453c51c","67c6aff439d332eaf4bc52f9","passed","","","1920","945","true","chrome","133.0.0","false","Windows 10","true","60.58","false","true","","","","","","","","","","","","","","","","",""
"","","","","","external-html","3","66600","0.0-3.0","5a78dbb9ae9a0b0001a97212","6796e1c0ff24ca17c453c51c","67c6aff439d332eaf4bc52f9","passed","","60242","","","","","","","","","","","","consent.html","","","","","","","","","","","","","","","",""
"true","","","","","fullscreen","4","68820","0.0-4.0","5a78dbb9ae9a0b0001a97212","6796e1c0ff24ca17c453c51c","67c6aff439d332eaf4bc52f9","passed","","1919","","","","","","","","","","","","","","","","","","","","","","","","","","","",""
"","","","","","browser-check","5","69833","0.0-5.0","5a78dbb9ae9a0b0001a97212","6796e1c0ff24ca17c453c51c","67c6aff439d332eaf4bc52f9","passed","","","1920","1080","true","chrome","133.0.0","false","Windows 10","true","60.01","false","true","","","","","","","","","","","","","","","","",""
"","","","","","html-keyboard-response","6","72490","0.0-6.0","5a78dbb9ae9a0b0001a97212","6796e1c0ff24ca17c453c51c","67c6aff439d332eaf4bc52f9","passed","","2656","","","","","","","","","","","","","<p><b>This experiment requires keyboard input.</b></p> 
        <p><b>To ensure your response will be recorded successfully, please press 'Space' to continue.</b></p>
        <p>If you can't proceed, you won't be able to complete this study.</p>
        <p></p> <!-- Blank line -->
        <p id=""blinking-text"" style=""font-weight; animation: blink 2s infinite;"">Press Space to continue</p>
        <style>
            @keyframes blink {
                50% {
                    opacity: 0;
                }
            }
        </style>"," ","","","","","","","","","","","","","",""
"","","","","","html-keyboard-response","7","74122","0.0-7.0","5a78dbb9ae9a0b0001a97212","6796e1c0ff24ca17c453c51c","67c6aff439d332eaf4bc52f9","passed","","1631","","","","","","","","","","","","","<p><b>This experiment requires keyboard input.</b></p> 
        <p><b>To ensure your response will be recorded successfully, please press the 'f' key to continue.</b></p>
        <p>If you can't proceed, you won't be able to complete this study.</p>
        <p></p> <!-- Blank line -->
        <p id=""blinking-text"" style=""font-weight; animation: blink 2s infinite;"">Press f to continue</p>
        <style>
            @keyframes blink {
                50% {
                    opacity: 0;
                }
            }
        </style>","f","","","","","","","","","","","","","",""
"","","","","","html-keyboard-response","8","77042","0.0-8.0","5a78dbb9ae9a0b0001a97212","6796e1c0ff24ca17c453c51c","67c6aff439d332eaf4bc52f9","passed","","2920","","","","","","","","","","","","","<p><b>This experiment requires keyboard input.</b></p> 
        <p><b>To ensure your response will be recorded successfully, please press the 'j' key to continue.</b></p>
        <p>If you can't proceed, you won't be able to complete this study.</p>
        <p></p> <!-- Blank line -->
        <p id=""blinking-text"" style=""font-weight; animation: blink 2s infinite;"">Press j to continue</p>
        <style>
            @keyframes blink {
                50% {
                    opacity: 0;
                }
            }
        </style>","j","","","","","","","","","","","","","",""
"","","","","","browser-check","9","78051","0.0-9.0","5a78dbb9ae9a0b0001a97212","6796e1c0ff24ca17c453c51c","67c6aff439d332eaf4bc52f9","passed","","","1920","1080","true","chrome","133.0.0","false","Windows 10","true","59.97","false","true","","","","","","","","","","","","","","","","",""
"","","","","","survey-text","10","82612","0.0-10.0","5a78dbb9ae9a0b0001a97212","6796e1c0ff24ca17c453c51c","67c6aff439d332eaf4bc52f9","passed","","4560","","","","","","","","","","","","","","{""prolificID"":""5a78dbb9ae9a0b0001a97212""}","","","","","","","","","","","","","",""
"","","","","","instructions","11","150523","0.0-11.0-0.0-0.0","5a78dbb9ae9a0b0001a97212","6796e1c0ff24ca17c453c51c","67c6aff439d332eaf4bc52f9","passed","[{""page_index"":0,""viewing_time"":33325},{""page_index"":1,""viewing_time"":11326},{""page_index"":2,""viewing_time"":10670},{""page_index"":3,""viewing_time"":12590}]","67911","","","","","","","","","","","","","","","","","","","","","","","","","","","",""
"","","","","","html-keyboard-response","12","170474","0.0-11.0-0.0-1.0","5a78dbb9ae9a0b0001a97212","6796e1c0ff24ca17c453c51c","67c6aff439d332eaf4bc52f9","passed","","19447","","","","","","","","","","","","","<br>Remember! After a ball falls, the screen will disappear, and you'll decide if the proposed position is where the hidden triangle was. <br>You will now practice this by watching a few videos and making decisions.<p>To respond:<br style=""margin-bottom: 5px; text-indent: -20px; padding-left: 20px;"">- Press <b style=""color: #12AD2B;"">J for Yes</b>, if you think the triangle is in the correct position.<br style=""margin-top: 0; text-indent: -20px; padding-left: 20px;"">- Press <b style=""color: orange;"">F for No</b>, if you think the triangle is not in the correct position.</p><p>In this practice round, there is no time limit. Focus on getting comfortable with the task first.<br>Press either J or F to begin your practice trials.</p><img src = ""YesOrNo_instruction.png"" style=""width: 65%;""></img>","f","","","","","","","","","","","","","",""
"","","","","","html-keyboard-response","13","172018","0.0-11.0-0.0-2.0-0.0","5a78dbb9ae9a0b0001a97212","6796e1c0ff24ca17c453c51c","67c6aff439d332eaf4bc52f9","passed","","","","","","","","","","","","","","","","","ballFalling_prac","416","464","296","1","fallScene","false","","","","","","",""
"","","","","","html-keyboard-response","14","174722","0.0-11.0-0.0-2.0-1.0","5a78dbb9ae9a0b0001a97212","6796e1c0ff24ca17c453c51c","67c6aff439d332eaf4bc52f9","passed","","2702","","","","","","","","","","","","","","j","yesOrNo_prac_noTimed","","","","1","","","gt","NA","","","","",""
"","","","","","html-keyboard-response","15","176834","0.0-11.0-0.0-2.0-0.1","5a78dbb9ae9a0b0001a97212","6796e1c0ff24ca17c453c51c","67c6aff439d332eaf4bc52f9","passed","","","","","","","","","","","","","","","","","ballFalling_prac","660","666","350","3","fallScene","false","","","","","","",""
"","","","","","html-keyboard-response","16","181938","0.0-11.0-0.0-2.0-1.1","5a78dbb9ae9a0b0001a97212","6796e1c0ff24ca17c453c51c","67c6aff439d332eaf4bc52f9","passed","","5103","","","","","","","","","","","","","","f","yesOrNo_prac_noTimed","","","","3","","","wrong direction","NA","","","","",""
"","","","","","html-keyboard-response","17","183525","0.0-11.0-0.0-2.0-0.2","5a78dbb9ae9a0b0001a97212","6796e1c0ff24ca17c453c51c","67c6aff439d332eaf4bc52f9","passed","","","","","","","","","","","","","","","","","ballFalling_prac","441","414","302","5","fallScene","true","","","","","","",""
"","","","","","html-keyboard-response","18","185074","0.0-11.0-0.0-2.0-1.2","5a78dbb9ae9a0b0001a97212","6796e1c0ff24ca17c453c51c","67c6aff439d332eaf4bc52f9","passed","","1548","","","","","","","","","","","","","","j","yesOrNo_prac_noTimed","","","","5","","","close gt","NA","","","","",""
"","","","","","instructions","19","237007","0.0-11.0-0.0-3.0","5a78dbb9ae9a0b0001a97212","6796e1c0ff24ca17c453c51c","67c6aff439d332eaf4bc52f9","passed","[{""page_index"":0,""viewing_time"":30915},{""page_index"":1,""viewing_time"":21018}]","51933","","","","","","","","","","","","","","","","","","","","","","","","","","","",""
"","","","","","html-button-response","20","241936","0.0-11.0-0.0-4.0","5a78dbb9ae9a0b0001a97212","6796e1c0ff24ca17c453c51c","67c6aff439d332eaf4bc52f9","passed","","4428","","","","","","","","","","","","","<p>To make sure you understood the task, we just have a <b>brief quiz</b> here.</p><p>If you need to review the instructions, click 'Previous'.</p><p>It's important to understand the task to do the study, so you have to pass the quiz to move to the study.</p>","1","","","","","","","","","","","","","",""
"","","","","","survey-multi-choice","21","263109","0.0-11.0-1.0-0.0","5a78dbb9ae9a0b0001a97212","6796e1c0ff24ca17c453c51c","67c6aff439d332eaf4bc52f9","passed","","21173","","","","","","","","","","","","","","{""generalProcedure"":""Watch a video of a ball falling, some of it behind a gray screen. After each video, decide if the triangle is at the spot where the ball hit the triangle behind the screen. There is time limit for the response.""}","","","","","","","","","","[0]","","","",""
"","","","","","survey-multi-choice","22","267221","0.0-11.0-1.0-1.0","5a78dbb9ae9a0b0001a97212","6796e1c0ff24ca17c453c51c","67c6aff439d332eaf4bc52f9","passed","","4112","","","","","","","","","","","","","","{""checkBallHitObstacle"":""Yes.""}","","","","","","","","","","[0]","","","",""
"","","","","","survey-multi-choice","23","271625","0.0-11.0-1.0-2.0","5a78dbb9ae9a0b0001a97212","6796e1c0ff24ca17c453c51c","67c6aff439d332eaf4bc52f9","passed","","4403","","","","","","","","","","","","","","{""checkTriangleVisibility"":""No, the triangle is hidden behind the gray screen.""}","","","","","","","","","","[0]","","","",""
"","","","","","survey-multi-choice","24","277405","0.0-11.0-1.0-3.0","5a78dbb9ae9a0b0001a97212","6796e1c0ff24ca17c453c51c","67c6aff439d332eaf4bc52f9","passed","","5779","","","","","","","","","","","","","","{""checkTimedResponse"":""Your response will not be recorded, and the trial will move to the next one.""}","","","","","","","","","","[0]","","","",""
"","","","","","survey-multi-choice","25","285789","0.0-11.0-1.0-4.0","5a78dbb9ae9a0b0001a97212","6796e1c0ff24ca17c453c51c","67c6aff439d332eaf4bc52f9","passed","","8384","","","","","","","","","","","","","","{""checkTimeBlockNotice"":""At the beginning of each block.""}","","","","","","","","","","[0]","","","",""
"","","","","","survey-multi-choice","26","291731","0.0-11.0-1.0-5.0","5a78dbb9ae9a0b0001a97212","6796e1c0ff24ca17c453c51c","67c6aff439d332eaf4bc52f9","passed","","5942","","","","","","","","","","","","","","{""checkTimeBlockSameness"":""No, the time limit changes for each trial within a block.""}","","","","","","","","","","[0]","","","",""
"","","","","","survey-multi-choice","27","303769","0.0-11.0-1.0-6.0","5a78dbb9ae9a0b0001a97212","6796e1c0ff24ca17c453c51c","67c6aff439d332eaf4bc52f9","passed","","12037","","","","","","","","","","","","","","{""checkTrianglePrecision"":""No. The proposed purple triangle is not in the correct position because it doesn't match the location of the white triangle exactly.""}","","","","","","","","","","[0]","","","",""
"","","","","","html-button-response","28","307419","0.0-11.0-2.0-0.0","5a78dbb9ae9a0b0001a97212","6796e1c0ff24ca17c453c51c","67c6aff439d332eaf4bc52f9","passed","","3649","","","","","","","","","","","","","<p>Oops! You did not pass the quiz.</p><p>You will now repeat the instructions and practice.</p>","0","","","","","","","","","","","failed","","",""
"","","","","","instructions","29","321829","0.0-11.1-0.1-0.1","5a78dbb9ae9a0b0001a97212","6796e1c0ff24ca17c453c51c","67c6aff439d332eaf4bc52f9","passed","[{""page_index"":0,""viewing_time"":7966},{""page_index"":1,""viewing_time"":2422},{""page_index"":2,""viewing_time"":1626},{""page_index"":3,""viewing_time"":2396}]","14410","","","","","","","","","","","","","","","","","","","","","","","","","","","",""
"","","","","","html-keyboard-response","30","326081","0.0-11.1-0.1-1.1","5a78dbb9ae9a0b0001a97212","6796e1c0ff24ca17c453c51c","67c6aff439d332eaf4bc52f9","passed","","3751","","","","","","","","","","","","","<br>Remember! After a ball falls, the screen will disappear, and you'll decide if the proposed position is where the hidden triangle was. <br>You will now practice this by watching a few videos and making decisions.<p>To respond:<br style=""margin-bottom: 5px; text-indent: -20px; padding-left: 20px;"">- Press <b style=""color: #12AD2B;"">J for Yes</b>, if you think the triangle is in the correct position.<br style=""margin-top: 0; text-indent: -20px; padding-left: 20px;"">- Press <b style=""color: orange;"">F for No</b>, if you think the triangle is not in the correct position.</p><p>In this practice round, there is no time limit. Focus on getting comfortable with the task first.<br>Press either J or F to begin your practice trials.</p><img src = ""YesOrNo_instruction.png"" style=""width: 65%;""></img>","f","","","","","","","","","","","","","",""
"","","","","","html-keyboard-response","31","327662","0.0-11.1-0.1-2.1-0.3","5a78dbb9ae9a0b0001a97212","6796e1c0ff24ca17c453c51c","67c6aff439d332eaf4bc52f9","passed","","","","","","","","","","","","","","","","","ballFalling_prac","441","414","302","5","fallScene","true","","","","","","",""
"","","","","","html-keyboard-response","32","331762","0.0-11.1-0.1-2.1-1.3","5a78dbb9ae9a0b0001a97212","6796e1c0ff24ca17c453c51c","67c6aff439d332eaf4bc52f9","passed","","4098","","","","","","","","","","","","","","j","yesOrNo_prac_noTimed","","","","5","","","close gt","NA","","","","",""
"","","","","","html-keyboard-response","33","333869","0.0-11.1-0.1-2.1-0.4","5a78dbb9ae9a0b0001a97212","6796e1c0ff24ca17c453c51c","67c6aff439d332eaf4bc52f9","passed","","","","","","","","","","","","","","","","","ballFalling_prac","660","666","350","3","fallScene","false","","","","","","",""
"","","","","","html-keyboard-response","34","335594","0.0-11.1-0.1-2.1-1.4","5a78dbb9ae9a0b0001a97212","6796e1c0ff24ca17c453c51c","67c6aff439d332eaf4bc52f9","passed","","1724","","","","","","","","","","","","","","f","yesOrNo_prac_noTimed","","","","3","","","wrong direction","NA","","","","",""
"","","","","","html-keyboard-response","35","337152","0.0-11.1-0.1-2.1-0.5","5a78dbb9ae9a0b0001a97212","6796e1c0ff24ca17c453c51c","67c6aff439d332eaf4bc52f9","passed","","","","","","","","","","","","","","","","","ballFalling_prac","416","464","296","1","fallScene","false","","","","","","",""
"","","","","","html-keyboard-response","36","338570","0.0-11.1-0.1-2.1-1.5","5a78dbb9ae9a0b0001a97212","6796e1c0ff24ca17c453c51c","67c6aff439d332eaf4bc52f9","passed","","1417","","","","","","","","","","","","","","f","yesOrNo_prac_noTimed","","","","1","","","gt","NA","","","","",""
"","","","","","instructions","37","347765","0.0-11.1-0.1-3.1","5a78dbb9ae9a0b0001a97212","6796e1c0ff24ca17c453c51c","67c6aff439d332eaf4bc52f9","passed","[{""page_index"":0,""viewing_time"":7007},{""page_index"":1,""viewing_time"":2188}]","9195","","","","","","","","","","","","","","","","","","","","","","","","","","","",""
"","","","","","html-button-response","38","349561","0.0-11.1-0.1-4.1","5a78dbb9ae9a0b0001a97212","6796e1c0ff24ca17c453c51c","67c6aff439d332eaf4bc52f9","passed","","1284","","","","","","","","","","","","","<p>To make sure you understood the task, we just have a <b>brief quiz</b> here.</p><p>If you need to review the instructions, click 'Previous'.</p><p>It's important to understand the task to do the study, so you have to pass the quiz to move to the study.</p>","1","","","","","","","","","","","","","",""
"","","","","","survey-multi-choice","39","356286","0.0-11.1-1.1-0.1","5a78dbb9ae9a0b0001a97212","6796e1c0ff24ca17c453c51c","67c6aff439d332eaf4bc52f9","passed","","6725","","","","","","","","","","","","","","{""generalProcedure"":""Watch a video of a ball falling, some of it behind a gray screen. After each video, decide if the triangle is at the spot where the ball hit the triangle behind the screen. There is time limit for the response.""}","","","","","","","","","","[0]","","","",""
"","","","","","survey-multi-choice","40","359627","0.0-11.1-1.1-1.1","5a78dbb9ae9a0b0001a97212","6796e1c0ff24ca17c453c51c","67c6aff439d332eaf4bc52f9","passed","","3339","","","","","","","","","","","","","","{""checkBallHitObstacle"":""Yes.""}","","","","","","","","","","[0]","","","",""
"","","","","","survey-multi-choice","41","362117","0.0-11.1-1.1-2.1","5a78dbb9ae9a0b0001a97212","6796e1c0ff24ca17c453c51c","67c6aff439d332eaf4bc52f9","passed","","2490","","","","","","","","","","","","","","{""checkTriangleVisibility"":""No, the triangle is hidden behind the gray screen.""}","","","","","","","","","","[0]","","","",""
"","","","","","survey-multi-choice","42","364967","0.0-11.1-1.1-3.1","5a78dbb9ae9a0b0001a97212","6796e1c0ff24ca17c453c51c","67c6aff439d332eaf4bc52f9","passed","","2849","","","","","","","","","","","","","","{""checkTimedResponse"":""Your response will not be recorded, and the trial will move to the next one.""}","","","","","","","","","","[0]","","","",""
"","","","","","survey-multi-choice","43","368793","0.0-11.1-1.1-4.1","5a78dbb9ae9a0b0001a97212","6796e1c0ff24ca17c453c51c","67c6aff439d332eaf4bc52f9","passed","","3826","","","","","","","","","","","","","","{""checkTimeBlockNotice"":""At the beginning of each block.""}","","","","","","","","","","[0]","","","",""
"","","","","","survey-multi-choice","44","371953","0.0-11.1-1.1-5.1","5a78dbb9ae9a0b0001a97212","6796e1c0ff24ca17c453c51c","67c6aff439d332eaf4bc52f9","passed","","3159","","","","","","","","","","","","","","{""checkTimeBlockSameness"":""Yes, the time limit is the same for all trials within a block.""}","","","","","","","","","","[0]","","","",""
"","","","","","survey-multi-choice","45","374917","0.0-11.1-1.1-6.1","5a78dbb9ae9a0b0001a97212","6796e1c0ff24ca17c453c51c","67c6aff439d332eaf4bc52f9","passed","","2964","","","","","","","","","","","","","","{""checkTrianglePrecision"":""No. The proposed purple triangle is not in the correct position because it doesn't match the location of the white triangle exactly.""}","","","","","","","","","","[0]","","","",""
"","","","","","instructions","46","393483","0.0-12.0","5a78dbb9ae9a0b0001a97212","6796e1c0ff24ca17c453c51c","67c6aff439d332eaf4bc52f9","passed","[{""page_index"":0,""viewing_time"":4202},{""page_index"":1,""viewing_time"":3966},{""page_index"":2,""viewing_time"":6464},{""page_index"":3,""viewing_time"":3934}]","18566","","","","","","","","","","","","","","","","","","","","","","","","","","","",""
"","","","","","instructions","47","400126","0.0-13.0-0.0","5a78dbb9ae9a0b0001a97212","6796e1c0ff24ca17c453c51c","67c6aff439d332eaf4bc52f9","passed","[{""page_index"":0,""viewing_time"":6643}]","6643","","","","","","","","","","","","","","","","","","","","","","","","","","","",""
"","","","","","html-keyboard-response","48","401841","0.0-13.0-1.0","5a78dbb9ae9a0b0001a97212","6796e1c0ff24ca17c453c51c","67c6aff439d332eaf4bc52f9","passed","","1715","","","","","","","","","","","","","<p><span style=""font-size:40px;"">Practice BLOCK 1</span></p><p><span style=""font-size:25px;"">You have <b style=""color: #FF644F;""><strong>3 second(s)</strong></b> to respond to the following trials.</span><br></p><p id=""blinking-text"" style=""font-weight; animation: blink 2s infinite;"">Press Space to continue</p><style>
                    @keyframes blink {
                        50% {
                            opacity: 0;
                        }
                    }
                </style>"," ","","","","","","","","","","","","","",""
"","","","","","html-keyboard-response","49","403403","0.0-13.0-2.0-0.0","5a78dbb9ae9a0b0001a97212","6796e1c0ff24ca17c453c51c","67c6aff439d332eaf4bc52f9","passed","","","","","","","","","","","","","","","","","ballFalling_prac","584","536","296","1","fallScene","true","","","","","","",""
"","","","","","html-keyboard-response","50","406413","0.0-13.0-2.0-1.0","5a78dbb9ae9a0b0001a97212","6796e1c0ff24ca17c453c51c","67c6aff439d332eaf4bc52f9","passed","","1957","","","","","","","","","","","","","","f","yesOrNo_prac","","","","1","","","close gt","3000","","","","",""
"","","","","","html-keyboard-response","51","407985","0.0-13.0-2.0-0.1","5a78dbb9ae9a0b0001a97212","6796e1c0ff24ca17c453c51c","67c6aff439d332eaf4bc52f9","passed","","","","","","","","","","","","","","","","","ballFalling_prac","416","464","296","1","fallScene","false","","","","","","",""
"","","","","","html-keyboard-response","52","410986","0.0-13.0-2.0-1.1","5a78dbb9ae9a0b0001a97212","6796e1c0ff24ca17c453c51c","67c6aff439d332eaf4bc52f9","passed","","1488","","","","","","","","","","","","","","j","yesOrNo_prac","","","","1","","","far gt","3000","","","","",""
"","","","","","html-keyboard-response","53","412553","0.0-13.0-2.0-0.2","5a78dbb9ae9a0b0001a97212","6796e1c0ff24ca17c453c51c","67c6aff439d332eaf4bc52f9","passed","","","","","","","","","","","","","","","","","ballFalling_prac","660","610","263","4","fallScene","false","","","","","","",""
"","","","","","html-keyboard-response","54","415566","0.0-13.0-2.0-1.2","5a78dbb9ae9a0b0001a97212","6796e1c0ff24ca17c453c51c","67c6aff439d332eaf4bc52f9","passed","","1304","","","","","","","","","","","","","","j","yesOrNo_prac","","","","4","","","gt","3000","","","","",""
"","","","","","html-keyboard-response","55","417457","0.0-13.0-3.0","5a78dbb9ae9a0b0001a97212","6796e1c0ff24ca17c453c51c","67c6aff439d332eaf4bc52f9","passed","","1891","","","","","","","","","","","","","<p><span style=""font-size:40px;"">Practice BLOCK 2</span></p><p><span style=""font-size:25px;"">You have <b style=""color: #FF644F;""><strong>0.7 second(s)</strong></b> to respond to the following trials.</span><br></p><p id=""blinking-text"" style=""font-weight; animation: blink 2s infinite;"">Press Space to continue</p><style>
                    @keyframes blink {
                        50% {
                            opacity: 0;
                        }
                    }
                </style>"," ","","","","","","","","","","","","","",""
"","","","","","html-keyboard-response","56","419569","0.0-13.0-4.0-0.0","5a78dbb9ae9a0b0001a97212","6796e1c0ff24ca17c453c51c","67c6aff439d332eaf4bc52f9","passed","","","","","","","","","","","","","","","","","ballFalling_prac","340","334","350","3","fallScene","true","","","","","","",""
"","","","","","html-keyboard-response","57","420284","0.0-13.0-4.0-1.0","5a78dbb9ae9a0b0001a97212","6796e1c0ff24ca17c453c51c","67c6aff439d332eaf4bc52f9","passed","","null","","","","","","","","","","","","","","null","yesOrNo_prac","","","","3","","","close gt","700","","","","",""
"","","","","","html-keyboard-response","58","421845","0.0-13.0-4.0-0.1","5a78dbb9ae9a0b0001a97212","6796e1c0ff24ca17c453c51c","67c6aff439d332eaf4bc52f9","passed","","","","","","","","","","","","","","","","","ballFalling_prac","441","500","317","6","fallScene","true","","","","","","",""
"","","","","","html-keyboard-response","59","422553","0.0-13.0-4.0-1.1","5a78dbb9ae9a0b0001a97212","6796e1c0ff24ca17c453c51c","67c6aff439d332eaf4bc52f9","passed","","332","","","","","","","","","","","","","","f","yesOrNo_prac","","","","6","","","gt","700","","","","",""
"","","","","","html-keyboard-response","60","424119","0.0-13.0-4.0-0.2","5a78dbb9ae9a0b0001a97212","6796e1c0ff24ca17c453c51c","67c6aff439d332eaf4bc52f9","passed","","","","","","","","","","","","","","","","","ballFalling_prac","660","610","263","4","fallScene","false","","","","","","",""
"","","","","","html-keyboard-response","61","424826","0.0-13.0-4.0-1.2","5a78dbb9ae9a0b0001a97212","6796e1c0ff24ca17c453c51c","67c6aff439d332eaf4bc52f9","passed","","497","","","","","","","","","","","","","","f","yesOrNo_prac","","","","4","","","far gt","700","","","","",""
"","","","","","instructions","62","431204","0.0-13.0-5.0","5a78dbb9ae9a0b0001a97212","6796e1c0ff24ca17c453c51c","67c6aff439d332eaf4bc52f9","passed","[{""page_index"":0,""viewing_time"":6378}]","6378","","","","","","","","","","","","","","","","","","","","","","","","","","","",""
"","","","","","html-keyboard-response","63","435001","0.0-13.0-6.0","5a78dbb9ae9a0b0001a97212","6796e1c0ff24ca17c453c51c","67c6aff439d332eaf4bc52f9","passed","","3797","","","","","","","","","","","","","<p><span style=""font-size:40px;"">Practice Test BLOCK 1</span></p><p><span style=""font-size:25px;"">You have <b style=""color: #FF644F;""><strong>0.7 second(s)</strong></b> to respond to the following trials.</span><br></p><p id=""blinking-text"" style=""font-weight; animation: blink 2s infinite;"">Press Space to continue</p><style>
                    @keyframes blink {
                        50% {
                            opacity: 0;
                        }
                    }
                </style>"," ","","","","","","","","","","","","","",""
"","","","","","html-keyboard-response","64","436553","0.0-13.0-7.0-0.0","5a78dbb9ae9a0b0001a97212","6796e1c0ff24ca17c453c51c","67c6aff439d332eaf4bc52f9","passed","","","","","","","","","","","","","","","","","ballFalling_prac","441","500","317","6","fallScene","true","","","","","","",""
"","","","","","html-keyboard-response","65","437258","0.0-13.0-7.0-1.0","5a78dbb9ae9a0b0001a97212","6796e1c0ff24ca17c453c51c","67c6aff439d332eaf4bc52f9","passed","","608","","","","","","","","","","","","","","f","yesOrNo_prac","","","","6","","","close gt","700","","","","",""
"","","","","","html-keyboard-response","66","438836","0.0-13.0-7.0-0.1","5a78dbb9ae9a0b0001a97212","6796e1c0ff24ca17c453c51c","67c6aff439d332eaf4bc52f9","passed","","","","","","","","","","","","","","","","","ballFalling_prac","340","390","263","4","fallScene","true","","","","","","",""
"","","","","","html-keyboard-response","67","439537","0.0-13.0-7.0-1.1","5a78dbb9ae9a0b0001a97212","6796e1c0ff24ca17c453c51c","67c6aff439d332eaf4bc52f9","passed","","null","","","","","","","","","","","","","","null","yesOrNo_prac","","","","4","","","far gt","700","","","","",""
"","","","","","html-keyboard-response","68","441120","0.0-13.0-7.0-0.2","5a78dbb9ae9a0b0001a97212","6796e1c0ff24ca17c453c51c","67c6aff439d332eaf4bc52f9","passed","","","","","","","","","","","","","","","","","ballFalling_prac","559","586","302","5","fallScene","false","","","","","","",""
"","","","","","html-keyboard-response","69","441831","0.0-13.0-7.0-1.2","5a78dbb9ae9a0b0001a97212","6796e1c0ff24ca17c453c51c","67c6aff439d332eaf4bc52f9","passed","","665","","","","","","","","","","","","","","j","yesOrNo_prac","","","","5","","","gt","700","","","","",""
"","","","","","html-keyboard-response","70","443161","0.0-13.0-8.0","5a78dbb9ae9a0b0001a97212","6796e1c0ff24ca17c453c51c","67c6aff439d332eaf4bc52f9","passed","","1330","","","","","","","","","","","","","<p><span style=""font-size:40px;"">Practice Test BLOCK 2</span></p><p><span style=""font-size:25px;"">You have <b style=""color: #FF644F;""><strong>3 second(s)</strong></b> to respond to the following trials.</span><br></p><p id=""blinking-text"" style=""font-weight; animation: blink 2s infinite;"">Press Space to continue</p><style>
                    @keyframes blink {
                        50% {
                            opacity: 0;
                        }
                    }
                </style>"," ","","","","","","","","","","","","","",""
"","","","","","html-keyboard-response","71","444736","0.0-13.0-9.0-0.0","5a78dbb9ae9a0b0001a97212","6796e1c0ff24ca17c453c51c","67c6aff439d332eaf4bc52f9","passed","","","","","","","","","","","","","","","","","ballFalling_prac","416","365","249","2","fallScene","false","","","","","","",""
"","","","","","html-keyboard-response","72","447746","0.0-13.0-9.0-1.0","5a78dbb9ae9a0b0001a97212","6796e1c0ff24ca17c453c51c","67c6aff439d332eaf4bc52f9","passed","","1097","","","","","","","","","","","","","","j","yesOrNo_prac","","","","2","","","gt","3000","","","","",""
"","","","","","html-keyboard-response","73","449319","0.0-13.0-9.0-0.1","5a78dbb9ae9a0b0001a97212","6796e1c0ff24ca17c453c51c","67c6aff439d332eaf4bc52f9","passed","","","","","","","","","","","","","","","","","ballFalling_prac","559","586","302","5","fallScene","false","","","","","","",""
"","","","","","html-keyboard-response","74","452333","0.0-13.0-9.0-1.1","5a78dbb9ae9a0b0001a97212","6796e1c0ff24ca17c453c51c","67c6aff439d332eaf4bc52f9","passed","","1673","","","","","","","","","","","","","","f","yesOrNo_prac","","","","5","","","far gt","3000","","","","",""
"","","","","","html-keyboard-response","75","453905","0.0-13.0-9.0-0.2","5a78dbb9ae9a0b0001a97212","6796e1c0ff24ca17c453c51c","67c6aff439d332eaf4bc52f9","passed","","","","","","","","","","","","","","","","","ballFalling_prac","340","390","263","4","fallScene","true","","","","","","",""
"","","","","","html-keyboard-response","76","456909","0.0-13.0-9.0-1.2","5a78dbb9ae9a0b0001a97212","6796e1c0ff24ca17c453c51c","67c6aff439d332eaf4bc52f9","passed","","911","","","","","","","","","","","","","","j","yesOrNo_prac","","","","4","","","close gt","3000","","","","",""
"","","","","","instructions","77","464156","0.0-14.0","5a78dbb9ae9a0b0001a97212","6796e1c0ff24ca17c453c51c","67c6aff439d332eaf4bc52f9","passed","[{""page_index"":0,""viewing_time"":7247}]","7247","","","","","","","","","","","","","","","","","","","","","","","","","","","",""
"","","","","","html-keyboard-response","78","465033","0.0-15.0","5a78dbb9ae9a0b0001a97212","6796e1c0ff24ca17c453c51c","67c6aff439d332eaf4bc52f9","passed","","876","","","","","","","","","","","","","<p><span style=""font-size:40px;"">BLOCK 1</span></p><p><span style=""font-size:25px;"">You have <b style=""color: #FF644F;""><strong>3 second(s)</strong></b> to respond to the following trials.</span><br></p><p></p> <!-- Blank line -->
                <p id=""blinking-text"" style=""font-weight; animation: blink 2s infinite;"">Press Space to continue</p>
                <style>
                    @keyframes blink {
                        50% {
                            opacity: 0;
                        }
                    }
                </style></p>"," ","","","","","","","","","","","","","",""
"","","","","","html-keyboard-response","79","466586","0.0-16.0-0.0","5a78dbb9ae9a0b0001a97212","6796e1c0ff24ca17c453c51c","67c6aff439d332eaf4bc52f9","passed","","","","","","","","","","","","","","","","","ballFalling","604.4000000000001","575.4211431702997","266.76","12","fallScene","false","","","","","1","",""
"","","","","","html-keyboard-response","80","469600","0.0-16.0-1.0","5a78dbb9ae9a0b0001a97212","6796e1c0ff24ca17c453c51c","67c6aff439d332eaf4bc52f9","passed","","1182","","","","","","","","","","","","","","f","yesOrNo","","","","12","","","mid","3000","","","1","536.4288568297004","300"
"","","","","","html-keyboard-response","81","471153","0.0-16.0-0.1","5a78dbb9ae9a0b0001a97212","6796e1c0ff24ca17c453c51c","67c6aff439d332eaf4bc52f9","passed","","","","","","","","","","","","","","","","","ballFalling","500","453.67114317029973","210.33","5","fallScene","true","","","","","2","",""
"","","","","","html-keyboard-response","82","474154","0.0-16.0-1.1","5a78dbb9ae9a0b0001a97212","6796e1c0ff24ca17c453c51c","67c6aff439d332eaf4bc52f9","passed","","2007","","","","","","","","","","","","","","f","yesOrNo","","","","5","","","gt","3000","","","2","453.6711431702998","210.33"
"","","","","","html-keyboard-response","83","475720","0.0-16.0-0.2","5a78dbb9ae9a0b0001a97212","6796e1c0ff24ca17c453c51c","67c6aff439d332eaf4bc52f9","passed","","","","","","","","","","","","","","","","","ballFalling","604.4000000000001","575.4211431702997","266.76","12","fallScene","true","","","","","3","",""
"","","","","","html-keyboard-response","84","478724","0.0-16.0-1.2","5a78dbb9ae9a0b0001a97212","6796e1c0ff24ca17c453c51c","67c6aff439d332eaf4bc52f9","passed","","2504","","","","","","","","","","","","","","f","yesOrNo","","","","12","","","mid","3000","","","3","536.4288568297004","300"
"","","","","","html-keyboard-response","85","480288","0.0-16.0-0.3","5a78dbb9ae9a0b0001a97212","6796e1c0ff24ca17c453c51c","67c6aff439d332eaf4bc52f9","passed","","","","","","","","","","","","","","","","","ballFalling","604.4000000000001","650.0211431702996","404.58000000000004","11","fallScene","false","","","","","4","",""
"","","","","","html-keyboard-response","86","483303","0.0-16.0-1.3","5a78dbb9ae9a0b0001a97212","6796e1c0ff24ca17c453c51c","67c6aff439d332eaf4bc52f9","passed","","1721","","","","","","","","","","","","","","f","yesOrNo","","","","11","","","lp","3000","","","4","605.4000000000001","372.6340973215488"
"","","","","","html-keyboard-response","87","485086","0.0-16.0-0.4","5a78dbb9ae9a0b0001a97212","6796e1c0ff24ca17c453c51c","67c6aff439d332eaf4bc52f9","passed","","","","","","","","","","","","","","","","","ballFalling","322.3","308.07114317029976","253.89","2","fallScene","false","","","","","5","",""
"","","","","","html-keyboard-response","88","488098","0.0-16.0-1.4","5a78dbb9ae9a0b0001a97212","6796e1c0ff24ca17c453c51c","67c6aff439d332eaf4bc52f9","passed","","1274","","","","","","","","","","","","","","j","yesOrNo","","","","2","","","lp","3000","","","5","321.3","151"
"","","","","","html-keyboard-response","89","489653","0.0-16.0-0.5","5a78dbb9ae9a0b0001a97212","6796e1c0ff24ca17c453c51c","67c6aff439d332eaf4bc52f9","passed","","","","","","","","","","","","","","","","","ballFalling","322.3","296.07114317029976","371.46","3","fallScene","true","","","","","6","",""
"","","","","","html-keyboard-response","90","492660","0.0-16.0-1.5","5a78dbb9ae9a0b0001a97212","6796e1c0ff24ca17c453c51c","67c6aff439d332eaf4bc52f9","passed","","1467","","","","","","","","","","","","","","f","yesOrNo","","","","3","","","lp","3000","","","6","321.3","287.3327096511259"
"","","","","","html-keyboard-response","91","494670","0.0-16.0-0.6","5a78dbb9ae9a0b0001a97212","6796e1c0ff24ca17c453c51c","67c6aff439d332eaf4bc52f9","passed","","","","","","","","","","","","","","","","","ballFalling","604.4000000000001","596.8711431702998","394.5","10","fallScene","false","","","","","7","",""
"","","","","","html-keyboard-response","92","497682","0.0-16.0-1.6","5a78dbb9ae9a0b0001a97212","6796e1c0ff24ca17c453c51c","67c6aff439d332eaf4bc52f9","passed","","1450","","","","","","","","","","","","","","j","yesOrNo","","","","10","","","gt","3000","","","7","596.8711431702998","394.5"
"","","","","","html-keyboard-response","93","499687","0.0-16.0-0.7","5a78dbb9ae9a0b0001a97212","6796e1c0ff24ca17c453c51c","67c6aff439d332eaf4bc52f9","passed","","","","","","","","","","","","","","","","","ballFalling","500","510.8711431702997","369.03","8","fallScene","true","","","","","8","",""
"","","","","","html-keyboard-response","94","502702","0.0-16.0-1.7","5a78dbb9ae9a0b0001a97212","6796e1c0ff24ca17c453c51c","67c6aff439d332eaf4bc52f9","passed","","1074","","","","","","","","","","","","","","j","yesOrNo","","","","8","","","mid","3000","","","8","501","300"
"","","","","","html-keyboard-response","95","504270","0.0-16.0-0.8","5a78dbb9ae9a0b0001a97212","6796e1c0ff24ca17c453c51c","67c6aff439d332eaf4bc52f9","passed","","","","","","","","","","","","","","","","","ballFalling","500","553.4711431702997","282.51","7","fallScene","true","","","","","9","",""
"","","","","","html-keyboard-response","96","507284","0.0-16.0-1.8","5a78dbb9ae9a0b0001a97212","6796e1c0ff24ca17c453c51c","67c6aff439d332eaf4bc52f9","passed","","1618","","","","","","","","","","","","","","f","yesOrNo","","","","7","","","lp","3000","","","9","501","227.2843295913261"
"","","","","","html-keyboard-response","97","508853","0.0-16.0-0.9","5a78dbb9ae9a0b0001a97212","6796e1c0ff24ca17c453c51c","67c6aff439d332eaf4bc52f9","passed","","","","","","","","","","","","","","","","","ballFalling","500","553.4711431702997","282.51","7","fallScene","true","","","","","10","",""
"","","","","","html-keyboard-response","98","511858","0.0-16.0-1.9","5a78dbb9ae9a0b0001a97212","6796e1c0ff24ca17c453c51c","67c6aff439d332eaf4bc52f9","passed","","1267","","","","","","","","","","","","","","f","yesOrNo","","","","7","","","gt","3000","","","10","553.4711431702997","282.51"
"","","","","","html-keyboard-response","99","513653","0.0-16.0-0.10","5a78dbb9ae9a0b0001a97212","6796e1c0ff24ca17c453c51c","67c6aff439d332eaf4bc52f9","passed","","","","","","","","","","","","","","","","","ballFalling","322.3","308.07114317029976","253.89","2","fallScene","true","","","","","11","",""
"","","","","","html-keyboard-response","100","516666","0.0-16.0-1.10","5a78dbb9ae9a0b0001a97212","6796e1c0ff24ca17c453c51c","67c6aff439d332eaf4bc52f9","passed","","null","","","","","","","","","","","","","","null","yesOrNo","","","","2","","","mid","3000","","","11","321.3","300"
"","","","","","html-keyboard-response","101","518220","0.0-16.0-0.11","5a78dbb9ae9a0b0001a97212","6796e1c0ff24ca17c453c51c","67c6aff439d332eaf4bc52f9","passed","","","","","","","","","","","","","","","","","ballFalling","322.3","296.07114317029976","371.46","3","fallScene","false","","","","","12","",""
"","","","","","html-keyboard-response","102","521230","0.0-16.0-1.11","5a78dbb9ae9a0b0001a97212","6796e1c0ff24ca17c453c51c","67c6aff439d332eaf4bc52f9","passed","","1044","","","","","","","","","","","","","","j","yesOrNo","","","","3","","","lp","3000","","","12","321.3","287.3327096511259"
"","","","","","html-keyboard-response","103","522720","0.0-16.0-0.12","5a78dbb9ae9a0b0001a97212","6796e1c0ff24ca17c453c51c","67c6aff439d332eaf4bc52f9","passed","","","","","","","","","","","","","","","","","ballFalling","604.4000000000001","667.6211431702998","201.78","9","fallScene","false","","","","","13","",""
"","","","","","html-keyboard-response","104","525736","0.0-16.0-1.12","5a78dbb9ae9a0b0001a97212","6796e1c0ff24ca17c453c51c","67c6aff439d332eaf4bc52f9","passed","","1568","","","","","","","","","","","","","","f","yesOrNo","","","","9","","","lp","3000","","","13","605.4000000000001","151"
"","","","","","html-keyboard-response","105","527520","0.0-16.0-0.13","5a78dbb9ae9a0b0001a97212","6796e1c0ff24ca17c453c51c","67c6aff439d332eaf4bc52f9","passed","","","","","","","","","","","","","","","","","ballFalling","322.3","308.07114317029976","253.89","2","fallScene","true","","","","","14","",""
"","","","","","html-keyboard-response","106","530532","0.0-16.0-1.13","5a78dbb9ae9a0b0001a97212","6796e1c0ff24ca17c453c51c","67c6aff439d332eaf4bc52f9","passed","","1536","","","","","","","","","","","","","","j","yesOrNo","","","","2","","","gt","3000","","","14","308.07114317029976","253.89"
"","","","","","html-keyboard-response","107","532320","0.0-16.0-0.14","5a78dbb9ae9a0b0001a97212","6796e1c0ff24ca17c453c51c","67c6aff439d332eaf4bc52f9","passed","","","","","","","","","","","","","","","","","ballFalling","322.3","308.07114317029976","253.89","2","fallScene","true","","","","","15","",""
"","","","","","html-keyboard-response","108","535321","0.0-16.0-1.14","5a78dbb9ae9a0b0001a97212","6796e1c0ff24ca17c453c51c","67c6aff439d332eaf4bc52f9","passed","","960","","","","","","","","","","","","","","j","yesOrNo","","","","2","","","gt","3000","","","15","308.07114317029976","253.89"
"","","","","","html-keyboard-response","109","536887","0.0-16.0-0.15","5a78dbb9ae9a0b0001a97212","6796e1c0ff24ca17c453c51c","67c6aff439d332eaf4bc52f9","passed","","","","","","","","","","","","","","","","","ballFalling","322.3","379.3711431702997","245.25","1","fallScene","true","","","","","16","",""
"","","","","","html-keyboard-response","110","539903","0.0-16.0-1.15","5a78dbb9ae9a0b0001a97212","6796e1c0ff24ca17c453c51c","67c6aff439d332eaf4bc52f9","passed","","1106","","","","","","","","","","","","","","f","yesOrNo","","","","1","","","mid","3000","","","16","390.27114317029975","300"
"","","","","","html-keyboard-response","111","541904","0.0-16.0-0.16","5a78dbb9ae9a0b0001a97212","6796e1c0ff24ca17c453c51c","67c6aff439d332eaf4bc52f9","passed","","","","","","","","","","","","","","","","","ballFalling","500","510.8711431702997","369.03","8","fallScene","false","","","","","17","",""
"","","","","","html-keyboard-response","112","544917","0.0-16.0-1.16","5a78dbb9ae9a0b0001a97212","6796e1c0ff24ca17c453c51c","67c6aff439d332eaf4bc52f9","passed","","1009","","","","","","","","","","","","","","f","yesOrNo","","","","8","","","lp","3000","","","17","501","151"
"","","","","","html-keyboard-response","113","546571","0.0-16.0-0.17","5a78dbb9ae9a0b0001a97212","6796e1c0ff24ca17c453c51c","67c6aff439d332eaf4bc52f9","passed","","","","","","","","","","","","","","","","","ballFalling","500","479.92114317029973","330.87","6","fallScene","true","","","","","18","",""
"","","","","","html-keyboard-response","114","549572","0.0-16.0-1.17","5a78dbb9ae9a0b0001a97212","6796e1c0ff24ca17c453c51c","67c6aff439d332eaf4bc52f9","passed","","974","","","","","","","","","","","","","","f","yesOrNo","","","","6","","","lp","3000","","","18","499","189.92909825697632"
"","","","","","html-keyboard-response","115","551070","0.0-16.0-0.18","5a78dbb9ae9a0b0001a97212","6796e1c0ff24ca17c453c51c","67c6aff439d332eaf4bc52f9","passed","","","","","","","","","","","","","","","","","ballFalling","604.4000000000001","667.6211431702998","201.78","9","fallScene","false","","","","","19","",""
"","","","","","html-keyboard-response","116","554079","0.0-16.0-1.18","5a78dbb9ae9a0b0001a97212","6796e1c0ff24ca17c453c51c","67c6aff439d332eaf4bc52f9","passed","","1378","","","","","","","","","","","","","","f","yesOrNo","","","","9","","","mid","3000","","","19","605.4000000000001","300"
"","","","","","html-keyboard-response","117","555637","0.0-16.0-0.19","5a78dbb9ae9a0b0001a97212","6796e1c0ff24ca17c453c51c","67c6aff439d332eaf4bc52f9","passed","","","","","","","","","","","","","","","","","ballFalling","322.3","296.07114317029976","371.46","3","fallScene","false","","","","","20","",""
"","","","","","html-keyboard-response","118","558649","0.0-16.0-1.19","5a78dbb9ae9a0b0001a97212","6796e1c0ff24ca17c453c51c","67c6aff439d332eaf4bc52f9","passed","","1115","","","","","","","","","","","","","","j","yesOrNo","","","","3","","","gt","3000","","","20","296.07114317029976","371.46"
"","","","","","html-keyboard-response","119","560654","0.0-16.0-0.20","5a78dbb9ae9a0b0001a97212","6796e1c0ff24ca17c453c51c","67c6aff439d332eaf4bc52f9","passed","","","","","","","","","","","","","","","","","ballFalling","500","510.8711431702997","369.03","8","fallScene","true","","","","","21","",""
"","","","","","html-keyboard-response","120","563666","0.0-16.0-1.20","5a78dbb9ae9a0b0001a97212","6796e1c0ff24ca17c453c51c","67c6aff439d332eaf4bc52f9","passed","","1154","","","","","","","","","","","","","","j","yesOrNo","","","","8","","","mid","3000","","","21","501","300"
"","","","","","html-keyboard-response","121","565220","0.0-16.0-0.21","5a78dbb9ae9a0b0001a97212","6796e1c0ff24ca17c453c51c","67c6aff439d332eaf4bc52f9","passed","","","","","","","","","","","","","","","","","ballFalling","322.3","379.3711431702997","245.25","1","fallScene","true","","","","","22","",""
"","","","","","html-keyboard-response","122","568227","0.0-16.0-1.21","5a78dbb9ae9a0b0001a97212","6796e1c0ff24ca17c453c51c","67c6aff439d332eaf4bc52f9","passed","","1780","","","","","","","","","","","","","","j","yesOrNo","","","","1","","","gt","3000","","","22","379.3711431702997","245.25"
"","","","","","html-keyboard-response","123","570237","0.0-16.0-0.22","5a78dbb9ae9a0b0001a97212","6796e1c0ff24ca17c453c51c","67c6aff439d332eaf4bc52f9","passed","","","","","","","","","","","","","","","","","ballFalling","604.4000000000001","596.8711431702998","394.5","10","fallScene","true","","","","","23","",""
"","","","","","html-keyboard-response","124","573242","0.0-16.0-1.22","5a78dbb9ae9a0b0001a97212","6796e1c0ff24ca17c453c51c","67c6aff439d332eaf4bc52f9","passed","","1507","","","","","","","","","","","","","","f","yesOrNo","","","","10","","","lp","3000","","","23","603.4000000000001","215.50214355555383"
"","","","","","html-keyboard-response","125","574804","0.0-16.0-0.23","5a78dbb9ae9a0b0001a97212","6796e1c0ff24ca17c453c51c","67c6aff439d332eaf4bc52f9","passed","","","","","","","","","","","","","","","","","ballFalling","322.3","356.42114317029973","357.87","4","fallScene","true","","","","","24","",""
"","","","","","html-keyboard-response","126","577806","0.0-16.0-1.23","5a78dbb9ae9a0b0001a97212","6796e1c0ff24ca17c453c51c","67c6aff439d332eaf4bc52f9","passed","","1036","","","","","","","","","","","","","","f","yesOrNo","","","","4","","","mid","3000","","","24","390.27114317029975","300"
"","","","","","html-keyboard-response","127","583953","0.0-17.0","5a78dbb9ae9a0b0001a97212","6796e1c0ff24ca17c453c51c","67c6aff439d332eaf4bc52f9","passed","","6147","","","","","","","","","","","","","<p><span style=""font-size:40px;"">BLOCK 2</span></p><p><span style=""font-size:25px;"">You have <b style=""color: #FF644F;""><strong>0.7 second(s)</strong></b> to respond to the following trials.</span><br></p><p></p> <!-- Blank line -->
                <p id=""blinking-text"" style=""font-weight; animation: blink 2s infinite;"">Press Space to continue</p>
                <style>
                    @keyframes blink {
                        50% {
                            opacity: 0;
                        }
                    }
                </style></p>"," ","","","","","","","","","","","","","",""
"","","","","","html-keyboard-response","128","585504","0.0-18.0-0.0","5a78dbb9ae9a0b0001a97212","6796e1c0ff24ca17c453c51c","67c6aff439d332eaf4bc52f9","passed","","","","","","","","","","","","","","","","","ballFalling","604.4000000000001","650.0211431702996","404.58000000000004","11","fallScene","true","","","","","25","",""
"","","","","","html-keyboard-response","129","586216","0.0-18.0-1.0","5a78dbb9ae9a0b0001a97212","6796e1c0ff24ca17c453c51c","67c6aff439d332eaf4bc52f9","passed","","null","","","","","","","","","","","","","","null","yesOrNo","","","","11","","","gt","700","","","25","650.0211431702996","404.58"
"","","","","","html-keyboard-response","130","587787","0.0-18.0-0.1","5a78dbb9ae9a0b0001a97212","6796e1c0ff24ca17c453c51c","67c6aff439d332eaf4bc52f9","passed","","","","","","","","","","","","","","","","","ballFalling","500","553.4711431702997","282.51","7","fallScene","true","","","","","26","",""
"","","","","","html-keyboard-response","131","588490","0.0-18.0-1.1","5a78dbb9ae9a0b0001a97212","6796e1c0ff24ca17c453c51c","67c6aff439d332eaf4bc52f9","passed","","null","","","","","","","","","","","","","","null","yesOrNo","","","","7","","","gt","700","","","26","553.4711431702997","282.51"
"","","","","","html-keyboard-response","132","590504","0.0-18.0-0.2","5a78dbb9ae9a0b0001a97212","6796e1c0ff24ca17c453c51c","67c6aff439d332eaf4bc52f9","passed","","","","","","","","","","","","","","","","","ballFalling","604.4000000000001","596.8711431702998","394.5","10","fallScene","false","","","","","27","",""
"","","","","","html-keyboard-response","133","591217","0.0-18.0-1.2","5a78dbb9ae9a0b0001a97212","6796e1c0ff24ca17c453c51c","67c6aff439d332eaf4bc52f9","passed","","432","","","","","","","","","","","","","","j","yesOrNo","","","","10","","","lp","700","","","27","603.4000000000001","215.50214355555383"
"","","","","","html-keyboard-response","134","592771","0.0-18.0-0.3","5a78dbb9ae9a0b0001a97212","6796e1c0ff24ca17c453c51c","67c6aff439d332eaf4bc52f9","passed","","","","","","","","","","","","","","","","","ballFalling","322.3","379.3711431702997","245.25","1","fallScene","true","","","","","28","",""
"","","","","","html-keyboard-response","135","593485","0.0-18.0-1.3","5a78dbb9ae9a0b0001a97212","6796e1c0ff24ca17c453c51c","67c6aff439d332eaf4bc52f9","passed","","454","","","","","","","","","","","","","","f","yesOrNo","","","","1","","","mid","700","","","28","390.27114317029975","300"
"","","","","","html-keyboard-response","136","595487","0.0-18.0-0.4","5a78dbb9ae9a0b0001a97212","6796e1c0ff24ca17c453c51c","67c6aff439d332eaf4bc52f9","passed","","","","","","","","","","","","","","","","","ballFalling","500","510.8711431702997","369.03","8","fallScene","true","","","","","29","",""
"","","","","","html-keyboard-response","137","596196","0.0-18.0-1.4","5a78dbb9ae9a0b0001a97212","6796e1c0ff24ca17c453c51c","67c6aff439d332eaf4bc52f9","passed","","561","","","","","","","","","","","","","","j","yesOrNo","","","","8","","","lp","700","","","29","501","151"
"","","","","","html-keyboard-response","138","597771","0.0-18.0-0.5","5a78dbb9ae9a0b0001a97212","6796e1c0ff24ca17c453c51c","67c6aff439d332eaf4bc52f9","passed","","","","","","","","","","","","","","","","","ballFalling","500","553.4711431702997","282.51","7","fallScene","true","","","","","30","",""
"","","","","","html-keyboard-response","139","598483","0.0-18.0-1.5","5a78dbb9ae9a0b0001a97212","6796e1c0ff24ca17c453c51c","67c6aff439d332eaf4bc52f9","passed","","517","","","","","","","","","","","","","","j","yesOrNo","","","","7","","","mid","700","","","30","501","300"
"","","","","","html-keyboard-response","140","600037","0.0-18.0-0.6","5a78dbb9ae9a0b0001a97212","6796e1c0ff24ca17c453c51c","67c6aff439d332eaf4bc52f9","passed","","","","","","","","","","","","","","","","","ballFalling","604.4000000000001","650.0211431702996","404.58000000000004","11","fallScene","false","","","","","31","",""
"","","","","","html-keyboard-response","141","600739","0.0-18.0-1.6","5a78dbb9ae9a0b0001a97212","6796e1c0ff24ca17c453c51c","67c6aff439d332eaf4bc52f9","passed","","null","","","","","","","","","","","","","","null","yesOrNo","","","","11","","","mid","700","","","31","605.4000000000001","300"
"","","","","","html-keyboard-response","142","602321","0.0-18.0-0.7","5a78dbb9ae9a0b0001a97212","6796e1c0ff24ca17c453c51c","67c6aff439d332eaf4bc52f9","passed","","","","","","","","","","","","","","","","","ballFalling","500","553.4711431702997","282.51","7","fallScene","false","","","","","32","",""
"","","","","","html-keyboard-response","143","603026","0.0-18.0-1.7","5a78dbb9ae9a0b0001a97212","6796e1c0ff24ca17c453c51c","67c6aff439d332eaf4bc52f9","passed","","null","","","","","","","","","","","","","","null","yesOrNo","","","","7","","","mid","700","","","32","501","300"
"","","","","","html-keyboard-response","144","604821","0.0-18.0-0.8","5a78dbb9ae9a0b0001a97212","6796e1c0ff24ca17c453c51c","67c6aff439d332eaf4bc52f9","passed","","","","","","","","","","","","","","","","","ballFalling","322.3","308.07114317029976","253.89","2","fallScene","true","","","","","33","",""
"","","","","","html-keyboard-response","145","605527","0.0-18.0-1.8","5a78dbb9ae9a0b0001a97212","6796e1c0ff24ca17c453c51c","67c6aff439d332eaf4bc52f9","passed","","635","","","","","","","","","","","","","","j","yesOrNo","","","","2","","","mid","700","","","33","321.3","300"
"","","","","","html-keyboard-response","146","607187","0.0-18.0-0.9","5a78dbb9ae9a0b0001a97212","6796e1c0ff24ca17c453c51c","67c6aff439d332eaf4bc52f9","passed","","","","","","","","","","","","","","","","","ballFalling","500","479.92114317029973","330.87","6","fallScene","false","","","","","34","",""
"","","","","","html-keyboard-response","147","607891","0.0-18.0-1.9","5a78dbb9ae9a0b0001a97212","6796e1c0ff24ca17c453c51c","67c6aff439d332eaf4bc52f9","passed","","533","","","","","","","","","","","","","","f","yesOrNo","","","","6","","","lp","700","","","34","499","189.92909825697632"
"","","","","","html-keyboard-response","148","609459","0.0-18.0-0.10","5a78dbb9ae9a0b0001a97212","6796e1c0ff24ca17c453c51c","67c6aff439d332eaf4bc52f9","passed","","","","","","","","","","","","","","","","","ballFalling","500","453.67114317029973","210.33","5","fallScene","false","","","","","35","",""
"","","","","","html-keyboard-response","149","610171","0.0-18.0-1.10","5a78dbb9ae9a0b0001a97212","6796e1c0ff24ca17c453c51c","67c6aff439d332eaf4bc52f9","passed","","461","","","","","","","","","","","","","","j","yesOrNo","","","","5","","","gt","700","","","35","453.6711431702998","210.33"
"","","","","","html-keyboard-response","150","612171","0.0-18.0-0.11","5a78dbb9ae9a0b0001a97212","6796e1c0ff24ca17c453c51c","67c6aff439d332eaf4bc52f9","passed","","","","","","","","","","","","","","","","","ballFalling","500","510.8711431702997","369.03","8","fallScene","false","","","","","36","",""
"","","","","","html-keyboard-response","151","612882","0.0-18.0-1.11","5a78dbb9ae9a0b0001a97212","6796e1c0ff24ca17c453c51c","67c6aff439d332eaf4bc52f9","passed","","461","","","","","","","","","","","","","","f","yesOrNo","","","","8","","","gt","700","","","36","510.8711431702997","369.03"
"","","","","","html-keyboard-response","152","614437","0.0-18.0-0.12","5a78dbb9ae9a0b0001a97212","6796e1c0ff24ca17c453c51c","67c6aff439d332eaf4bc52f9","passed","","","","","","","","","","","","","","","","","ballFalling","322.3","356.42114317029973","357.87","4","fallScene","true","","","","","37","",""
"","","","","","html-keyboard-response","153","615154","0.0-18.0-1.12","5a78dbb9ae9a0b0001a97212","6796e1c0ff24ca17c453c51c","67c6aff439d332eaf4bc52f9","passed","","530","","","","","","","","","","","","","","j","yesOrNo","","","","4","","","gt","700","","","37","356.42114317029973","357.87"
"","","","","","html-keyboard-response","154","616721","0.0-18.0-0.13","5a78dbb9ae9a0b0001a97212","6796e1c0ff24ca17c453c51c","67c6aff439d332eaf4bc52f9","passed","","","","","","","","","","","","","","","","","ballFalling","500","553.4711431702997","282.51","7","fallScene","false","","","","","38","",""
"","","","","","html-keyboard-response","155","617423","0.0-18.0-1.13","5a78dbb9ae9a0b0001a97212","6796e1c0ff24ca17c453c51c","67c6aff439d332eaf4bc52f9","passed","","679","","","","","","","","","","","","","","f","yesOrNo","","","","7","","","lp","700","","","38","501","227.2843295913261"
"","","","","","html-keyboard-response","156","618921","0.0-18.0-0.14","5a78dbb9ae9a0b0001a97212","6796e1c0ff24ca17c453c51c","67c6aff439d332eaf4bc52f9","passed","","","","","","","","","","","","","","","","","ballFalling","604.4000000000001","667.6211431702998","201.78","9","fallScene","true","","","","","39","",""
"","","","","","html-keyboard-response","157","619632","0.0-18.0-1.14","5a78dbb9ae9a0b0001a97212","6796e1c0ff24ca17c453c51c","67c6aff439d332eaf4bc52f9","passed","","423","","","","","","","","","","","","","","j","yesOrNo","","","","9","","","gt","700","","","39","667.6211431702998","201.78"
"","","","","","html-keyboard-response","158","621188","0.0-18.0-0.15","5a78dbb9ae9a0b0001a97212","6796e1c0ff24ca17c453c51c","67c6aff439d332eaf4bc52f9","passed","","","","","","","","","","","","","","","","","ballFalling","322.3","296.07114317029976","371.46","3","fallScene","false","","","","","40","",""
"","","","","","html-keyboard-response","159","621899","0.0-18.0-1.15","5a78dbb9ae9a0b0001a97212","6796e1c0ff24ca17c453c51c","67c6aff439d332eaf4bc52f9","passed","","null","","","","","","","","","","","","","","null","yesOrNo","","","","3","","","lp","700","","","40","321.3","287.3327096511259"
"","","","","","html-keyboard-response","160","623454","0.0-18.0-0.16","5a78dbb9ae9a0b0001a97212","6796e1c0ff24ca17c453c51c","67c6aff439d332eaf4bc52f9","passed","","","","","","","","","","","","","","","","","ballFalling","604.4000000000001","575.4211431702997","266.76","12","fallScene","true","","","","","41","",""
"","","","","","html-keyboard-response","161","624159","0.0-18.0-1.16","5a78dbb9ae9a0b0001a97212","6796e1c0ff24ca17c453c51c","67c6aff439d332eaf4bc52f9","passed","","466","","","","","","","","","","","","","","f","yesOrNo","","","","12","","","gt","700","","","41","575.4211431702997","266.76"
"","","","","","html-keyboard-response","162","626171","0.0-18.0-0.17","5a78dbb9ae9a0b0001a97212","6796e1c0ff24ca17c453c51c","67c6aff439d332eaf4bc52f9","passed","","","","","","","","","","","","","","","","","ballFalling","604.4000000000001","596.8711431702998","394.5","10","fallScene","true","","","","","42","",""
"","","","","","html-keyboard-response","163","626886","0.0-18.0-1.17","5a78dbb9ae9a0b0001a97212","6796e1c0ff24ca17c453c51c","67c6aff439d332eaf4bc52f9","passed","","525","","","","","","","","","","","","","","j","yesOrNo","","","","10","","","mid","700","","","42","536.4288568297004","300"
"","","","","","html-keyboard-response","164","628538","0.0-18.0-0.18","5a78dbb9ae9a0b0001a97212","6796e1c0ff24ca17c453c51c","67c6aff439d332eaf4bc52f9","passed","","","","","","","","","","","","","","","","","ballFalling","500","479.92114317029973","330.87","6","fallScene","false","","","","","43","",""
"","","","","","html-keyboard-response","165","629242","0.0-18.0-1.18","5a78dbb9ae9a0b0001a97212","6796e1c0ff24ca17c453c51c","67c6aff439d332eaf4bc52f9","passed","","478","","","","","","","","","","","","","","j","yesOrNo","","","","6","","","gt","700","","","43","479.9211431702998","330.87"
"","","","","","html-keyboard-response","166","630804","0.0-18.0-0.19","5a78dbb9ae9a0b0001a97212","6796e1c0ff24ca17c453c51c","67c6aff439d332eaf4bc52f9","passed","","","","","","","","","","","","","","","","","ballFalling","604.4000000000001","650.0211431702996","404.58000000000004","11","fallScene","true","","","","","44","",""
"","","","","","html-keyboard-response","167","631508","0.0-18.0-1.19","5a78dbb9ae9a0b0001a97212","6796e1c0ff24ca17c453c51c","67c6aff439d332eaf4bc52f9","passed","","540","","","","","","","","","","","","","","j","yesOrNo","","","","11","","","lp","700","","","44","605.4000000000001","372.6340973215488"
"","","","","","html-keyboard-response","168","633521","0.0-18.0-0.20","5a78dbb9ae9a0b0001a97212","6796e1c0ff24ca17c453c51c","67c6aff439d332eaf4bc52f9","passed","","","","","","","","","","","","","","","","","ballFalling","604.4000000000001","596.8711431702998","394.5","10","fallScene","true","","","","","45","",""
"","","","","","html-keyboard-response","169","634231","0.0-18.0-1.20","5a78dbb9ae9a0b0001a97212","6796e1c0ff24ca17c453c51c","67c6aff439d332eaf4bc52f9","passed","","null","","","","","","","","","","","","","","null","yesOrNo","","","","10","","","mid","700","","","45","536.4288568297004","300"
"","","","","","html-keyboard-response","170","635788","0.0-18.0-0.21","5a78dbb9ae9a0b0001a97212","6796e1c0ff24ca17c453c51c","67c6aff439d332eaf4bc52f9","passed","","","","","","","","","","","","","","","","","ballFalling","322.3","379.3711431702997","245.25","1","fallScene","true","","","","","46","",""
"","","","","","html-keyboard-response","171","636491","0.0-18.0-1.21","5a78dbb9ae9a0b0001a97212","6796e1c0ff24ca17c453c51c","67c6aff439d332eaf4bc52f9","passed","","468","","","","","","","","","","","","","","j","yesOrNo","","","","1","","","gt","700","","","46","379.3711431702997","245.25"
"","","","","","html-keyboard-response","172","637988","0.0-18.0-0.22","5a78dbb9ae9a0b0001a97212","6796e1c0ff24ca17c453c51c","67c6aff439d332eaf4bc52f9","passed","","","","","","","","","","","","","","","","","ballFalling","604.4000000000001","667.6211431702998","201.78","9","fallScene","true","","","","","47","",""
"","","","","","html-keyboard-response","173","638690","0.0-18.0-1.22","5a78dbb9ae9a0b0001a97212","6796e1c0ff24ca17c453c51c","67c6aff439d332eaf4bc52f9","passed","","524","","","","","","","","","","","","","","j","yesOrNo","","","","9","","","mid","700","","","47","605.4000000000001","300"
"","","","","","html-keyboard-response","174","640354","0.0-18.0-0.23","5a78dbb9ae9a0b0001a97212","6796e1c0ff24ca17c453c51c","67c6aff439d332eaf4bc52f9","passed","","","","","","","","","","","","","","","","","ballFalling","500","479.92114317029973","330.87","6","fallScene","true","","","","","48","",""
"","","","","","html-keyboard-response","175","641062","0.0-18.0-1.23","5a78dbb9ae9a0b0001a97212","6796e1c0ff24ca17c453c51c","67c6aff439d332eaf4bc52f9","passed","","358","","","","","","","","","","","","","","f","yesOrNo","","","","6","","","gt","700","","","48","479.9211431702998","330.87"
"","","","","","html-keyboard-response","176","642825","0.0-19.0","5a78dbb9ae9a0b0001a97212","6796e1c0ff24ca17c453c51c","67c6aff439d332eaf4bc52f9","passed","","1763","","","","","","","","","","","","","<p><span style=""font-size:40px;"">BLOCK 3</span></p><p><span style=""font-size:25px;"">You have <b style=""color: #FF644F;""><strong>3 second(s)</strong></b> to respond to the following trials.</span><br></p><p></p> <!-- Blank line -->
                <p id=""blinking-text"" style=""font-weight; animation: blink 2s infinite;"">Press Space to continue</p>
                <style>
                    @keyframes blink {
                        50% {
                            opacity: 0;
                        }
                    }
                </style></p>"," ","","","","","","","","","","","","","",""
"","","","","","html-keyboard-response","177","644388","0.0-20.0-0.0","5a78dbb9ae9a0b0001a97212","6796e1c0ff24ca17c453c51c","67c6aff439d332eaf4bc52f9","passed","","","","","","","","","","","","","","","","","ballFalling","322.3","296.07114317029976","371.46","3","fallScene","false","","","","","49","",""
"","","","","","html-keyboard-response","178","647398","0.0-20.0-1.0","5a78dbb9ae9a0b0001a97212","6796e1c0ff24ca17c453c51c","67c6aff439d332eaf4bc52f9","passed","","2172","","","","","","","","","","","","","","j","yesOrNo","","","","3","","","mid","3000","","","49","321.3","300"
"","","","","","html-keyboard-response","179","648888","0.0-20.0-0.1","5a78dbb9ae9a0b0001a97212","6796e1c0ff24ca17c453c51c","67c6aff439d332eaf4bc52f9","passed","","","","","","","","","","","","","","","","","ballFalling","604.4000000000001","667.6211431702998","201.78","9","fallScene","true","","","","","50","",""
"","","","","","html-keyboard-response","180","651889","0.0-20.0-1.1","5a78dbb9ae9a0b0001a97212","6796e1c0ff24ca17c453c51c","67c6aff439d332eaf4bc52f9","passed","","1280","","","","","","","","","","","","","","f","yesOrNo","","","","9","","","lp","3000","","","50","605.4000000000001","151"
"","","","","","html-keyboard-response","181","653454","0.0-20.0-0.2","5a78dbb9ae9a0b0001a97212","6796e1c0ff24ca17c453c51c","67c6aff439d332eaf4bc52f9","passed","","","","","","","","","","","","","","","","","ballFalling","500","453.67114317029973","210.33","5","fallScene","true","","","","","51","",""
"","","","","","html-keyboard-response","182","656467","0.0-20.0-1.2","5a78dbb9ae9a0b0001a97212","6796e1c0ff24ca17c453c51c","67c6aff439d332eaf4bc52f9","passed","","1338","","","","","","","","","","","","","","j","yesOrNo","","","","5","","","mid","3000","","","51","499","300"
"","","","","","html-keyboard-response","183","658471","0.0-20.0-0.3","5a78dbb9ae9a0b0001a97212","6796e1c0ff24ca17c453c51c","67c6aff439d332eaf4bc52f9","passed","","","","","","","","","","","","","","","","","ballFalling","500","510.8711431702997","369.03","8","fallScene","true","","","","","52","",""
"","","","","","html-keyboard-response","184","661481","0.0-20.0-1.3","5a78dbb9ae9a0b0001a97212","6796e1c0ff24ca17c453c51c","67c6aff439d332eaf4bc52f9","passed","","889","","","","","","","","","","","","","","j","yesOrNo","","","","8","","","gt","3000","","","52","510.8711431702997","369.03"
"","","","","","html-keyboard-response","185","663038","0.0-20.0-0.4","5a78dbb9ae9a0b0001a97212","6796e1c0ff24ca17c453c51c","67c6aff439d332eaf4bc52f9","passed","","","","","","","","","","","","","","","","","ballFalling","322.3","379.3711431702997","245.25","1","fallScene","false","","","","","53","",""
"","","","","","html-keyboard-response","186","666052","0.0-20.0-1.4","5a78dbb9ae9a0b0001a97212","6796e1c0ff24ca17c453c51c","67c6aff439d332eaf4bc52f9","passed","","1330","","","","","","","","","","","","","","f","yesOrNo","","","","1","","","lp","3000","","","53","323.3","217.74551669457017"
"","","","","","html-keyboard-response","187","667704","0.0-20.0-0.5","5a78dbb9ae9a0b0001a97212","6796e1c0ff24ca17c453c51c","67c6aff439d332eaf4bc52f9","passed","","","","","","","","","","","","","","","","","ballFalling","500","479.92114317029973","330.87","6","fallScene","true","","","","","54","",""
"","","","","","html-keyboard-response","188","670708","0.0-20.0-1.5","5a78dbb9ae9a0b0001a97212","6796e1c0ff24ca17c453c51c","67c6aff439d332eaf4bc52f9","passed","","1032","","","","","","","","","","","","","","j","yesOrNo","","","","6","","","gt","3000","","","54","479.9211431702998","330.87"
"","","","","","html-keyboard-response","189","672271","0.0-20.0-0.6","5a78dbb9ae9a0b0001a97212","6796e1c0ff24ca17c453c51c","67c6aff439d332eaf4bc52f9","passed","","","","","","","","","","","","","","","","","ballFalling","322.3","356.42114317029973","357.87","4","fallScene","true","","","","","55","",""
"","","","","","html-keyboard-response","190","675273","0.0-20.0-1.6","5a78dbb9ae9a0b0001a97212","6796e1c0ff24ca17c453c51c","67c6aff439d332eaf4bc52f9","passed","","1593","","","","","","","","","","","","","","f","yesOrNo","","","","4","","","lp","3000","","","55","323.3","297.4070551689986"
"","","","","","html-keyboard-response","191","677288","0.0-20.0-0.7","5a78dbb9ae9a0b0001a97212","6796e1c0ff24ca17c453c51c","67c6aff439d332eaf4bc52f9","passed","","","","","","","","","","","","","","","","","ballFalling","604.4000000000001","596.8711431702998","394.5","10","fallScene","true","","","","","56","",""
"","","","","","html-keyboard-response","192","680304","0.0-20.0-1.7","5a78dbb9ae9a0b0001a97212","6796e1c0ff24ca17c453c51c","67c6aff439d332eaf4bc52f9","passed","","2424","","","","","","","","","","","","","","f","yesOrNo","","","","10","","","lp","3000","","","56","603.4000000000001","215.50214355555383"
"","","","","","html-keyboard-response","193","681855","0.0-20.0-0.8","5a78dbb9ae9a0b0001a97212","6796e1c0ff24ca17c453c51c","67c6aff439d332eaf4bc52f9","passed","","","","","","","","","","","","","","","","","ballFalling","322.3","379.3711431702997","245.25","1","fallScene","false","","","","","57","",""
"","","","","","html-keyboard-response","194","684869","0.0-20.0-1.8","5a78dbb9ae9a0b0001a97212","6796e1c0ff24ca17c453c51c","67c6aff439d332eaf4bc52f9","passed","","1185","","","","","","","","","","","","","","j","yesOrNo","","","","1","","","gt","3000","","","57","379.3711431702997","245.25"
"","","","","","html-keyboard-response","195","686421","0.0-20.0-0.9","5a78dbb9ae9a0b0001a97212","6796e1c0ff24ca17c453c51c","67c6aff439d332eaf4bc52f9","passed","","","","","","","","","","","","","","","","","ballFalling","322.3","356.42114317029973","357.87","4","fallScene","true","","","","","58","",""
"","","","","","html-keyboard-response","196","689433","0.0-20.0-1.9","5a78dbb9ae9a0b0001a97212","6796e1c0ff24ca17c453c51c","67c6aff439d332eaf4bc52f9","passed","","1346","","","","","","","","","","","","","","j","yesOrNo","","","","4","","","gt","3000","","","58","356.42114317029973","357.87"
"","","","","","html-keyboard-response","197","691438","0.0-20.0-0.10","5a78dbb9ae9a0b0001a97212","6796e1c0ff24ca17c453c51c","67c6aff439d332eaf4bc52f9","passed","","","","","","","","","","","","","","","","","ballFalling","604.4000000000001","596.8711431702998","394.5","10","fallScene","false","","","","","59","",""
"","","","","","html-keyboard-response","198","694449","0.0-20.0-1.10","5a78dbb9ae9a0b0001a97212","6796e1c0ff24ca17c453c51c","67c6aff439d332eaf4bc52f9","passed","","954","","","","","","","","","","","","","","f","yesOrNo","","","","10","","","mid","3000","","","59","536.4288568297004","300"
"","","","","","html-keyboard-response","199","696238","0.0-20.0-0.11","5a78dbb9ae9a0b0001a97212","6796e1c0ff24ca17c453c51c","67c6aff439d332eaf4bc52f9","passed","","","","","","","","","","","","","","","","","ballFalling","322.3","308.07114317029976","253.89","2","fallScene","false","","","","","60","",""
"","","","","","html-keyboard-response","200","699251","0.0-20.0-1.11","5a78dbb9ae9a0b0001a97212","6796e1c0ff24ca17c453c51c","67c6aff439d332eaf4bc52f9","passed","","1698","","","","","","","","","","","","","","j","yesOrNo","","","","2","","","mid","3000","","","60","321.3","300"
"","","","","","html-keyboard-response","201","700805","0.0-20.0-0.12","5a78dbb9ae9a0b0001a97212","6796e1c0ff24ca17c453c51c","67c6aff439d332eaf4bc52f9","passed","","","","","","","","","","","","","","","","","ballFalling","322.3","356.42114317029973","357.87","4","fallScene","true","","","","","61","",""
"","","","","","html-keyboard-response","202","703807","0.0-20.0-1.12","5a78dbb9ae9a0b0001a97212","6796e1c0ff24ca17c453c51c","67c6aff439d332eaf4bc52f9","passed","","1147","","","","","","","","","","","","","","j","yesOrNo","","","","4","","","mid","3000","","","61","390.27114317029975","300"
"","","","","","html-keyboard-response","203","705372","0.0-20.0-0.13","5a78dbb9ae9a0b0001a97212","6796e1c0ff24ca17c453c51c","67c6aff439d332eaf4bc52f9","passed","","","","","","","","","","","","","","","","","ballFalling","604.4000000000001","650.0211431702996","404.58000000000004","11","fallScene","false","","","","","62","",""
"","","","","","html-keyboard-response","204","708374","0.0-20.0-1.13","5a78dbb9ae9a0b0001a97212","6796e1c0ff24ca17c453c51c","67c6aff439d332eaf4bc52f9","passed","","1164","","","","","","","","","","","","","","f","yesOrNo","","","","11","","","mid","3000","","","62","605.4000000000001","300"
"","","","","","html-keyboard-response","205","709938","0.0-20.0-0.14","5a78dbb9ae9a0b0001a97212","6796e1c0ff24ca17c453c51c","67c6aff439d332eaf4bc52f9","passed","","","","","","","","","","","","","","","","","ballFalling","500","453.67114317029973","210.33","5","fallScene","true","","","","","63","",""
"","","","","","html-keyboard-response","206","712953","0.0-20.0-1.14","5a78dbb9ae9a0b0001a97212","6796e1c0ff24ca17c453c51c","67c6aff439d332eaf4bc52f9","passed","","1317","","","","","","","","","","","","","","f","yesOrNo","","","","5","","","lp","3000","","","63","499","151"
"","","","","","html-keyboard-response","207","714521","0.0-20.0-0.15","5a78dbb9ae9a0b0001a97212","6796e1c0ff24ca17c453c51c","67c6aff439d332eaf4bc52f9","passed","","","","","","","","","","","","","","","","","ballFalling","500","553.4711431702997","282.51","7","fallScene","false","","","","","64","",""
"","","","","","html-keyboard-response","208","717527","0.0-20.0-1.15","5a78dbb9ae9a0b0001a97212","6796e1c0ff24ca17c453c51c","67c6aff439d332eaf4bc52f9","passed","","1510","","","","","","","","","","","","","","f","yesOrNo","","","","7","","","mid","3000","","","64","501","300"
"","","","","","html-keyboard-response","209","719538","0.0-20.0-0.16","5a78dbb9ae9a0b0001a97212","6796e1c0ff24ca17c453c51c","67c6aff439d332eaf4bc52f9","passed","","","","","","","","","","","","","","","","","ballFalling","604.4000000000001","596.8711431702998","394.5","10","fallScene","true","","","","","65","",""
"","","","","","html-keyboard-response","210","722544","0.0-20.0-1.16","5a78dbb9ae9a0b0001a97212","6796e1c0ff24ca17c453c51c","67c6aff439d332eaf4bc52f9","passed","","1533","","","","","","","","","","","","","","j","yesOrNo","","","","10","","","gt","3000","","","65","596.8711431702998","394.5"
"","","","","","html-keyboard-response","211","724205","0.0-20.0-0.17","5a78dbb9ae9a0b0001a97212","6796e1c0ff24ca17c453c51c","67c6aff439d332eaf4bc52f9","passed","","","","","","","","","","","","","","","","","ballFalling","500","479.92114317029973","330.87","6","fallScene","true","","","","","66","",""
"","","","","","html-keyboard-response","212","727209","0.0-20.0-1.17","5a78dbb9ae9a0b0001a97212","6796e1c0ff24ca17c453c51c","67c6aff439d332eaf4bc52f9","passed","","1587","","","","","","","","","","","","","","f","yesOrNo","","","","6","","","lp","3000","","","66","499","189.92909825697632"
"","","","","","html-keyboard-response","213","728705","0.0-20.0-0.18","5a78dbb9ae9a0b0001a97212","6796e1c0ff24ca17c453c51c","67c6aff439d332eaf4bc52f9","passed","","","","","","","","","","","","","","","","","ballFalling","604.4000000000001","667.6211431702998","201.78","9","fallScene","true","","","","","67","",""
"","","","","","html-keyboard-response","214","731714","0.0-20.0-1.18","5a78dbb9ae9a0b0001a97212","6796e1c0ff24ca17c453c51c","67c6aff439d332eaf4bc52f9","passed","","1278","","","","","","","","","","","","","","j","yesOrNo","","","","9","","","gt","3000","","","67","667.6211431702998","201.78"
"","","","","","html-keyboard-response","215","733205","0.0-20.0-0.19","5a78dbb9ae9a0b0001a97212","6796e1c0ff24ca17c453c51c","67c6aff439d332eaf4bc52f9","passed","","","","","","","","","","","","","","","","","ballFalling","604.4000000000001","667.6211431702998","201.78","9","fallScene","true","","","","","68","",""
"","","","","","html-keyboard-response","216","736215","0.0-20.0-1.19","5a78dbb9ae9a0b0001a97212","6796e1c0ff24ca17c453c51c","67c6aff439d332eaf4bc52f9","passed","","1867","","","","","","","","","","","","","","f","yesOrNo","","","","9","","","mid","3000","","","68","605.4000000000001","300"
"","","","","","html-keyboard-response","217","737872","0.0-20.0-0.20","5a78dbb9ae9a0b0001a97212","6796e1c0ff24ca17c453c51c","67c6aff439d332eaf4bc52f9","passed","","","","","","","","","","","","","","","","","ballFalling","500","479.92114317029973","330.87","6","fallScene","false","","","","","69","",""
"","","","","","html-keyboard-response","218","740874","0.0-20.0-1.20","5a78dbb9ae9a0b0001a97212","6796e1c0ff24ca17c453c51c","67c6aff439d332eaf4bc52f9","passed","","1936","","","","","","","","","","","","","","j","yesOrNo","","","","6","","","mid","3000","","","69","499","300"
"","","","","","html-keyboard-response","219","742438","0.0-20.0-0.21","5a78dbb9ae9a0b0001a97212","6796e1c0ff24ca17c453c51c","67c6aff439d332eaf4bc52f9","passed","","","","","","","","","","","","","","","","","ballFalling","322.3","296.07114317029976","371.46","3","fallScene","false","","","","","70","",""
"","","","","","html-keyboard-response","220","745445","0.0-20.0-1.21","5a78dbb9ae9a0b0001a97212","6796e1c0ff24ca17c453c51c","67c6aff439d332eaf4bc52f9","passed","","1785","","","","","","","","","","","","","","f","yesOrNo","","","","3","","","mid","3000","","","70","321.3","300"
"","","","","","html-keyboard-response","221","746989","0.0-20.0-0.22","5a78dbb9ae9a0b0001a97212","6796e1c0ff24ca17c453c51c","67c6aff439d332eaf4bc52f9","passed","","","","","","","","","","","","","","","","","ballFalling","500","453.67114317029973","210.33","5","fallScene","true","","","","","71","",""
"","","","","","html-keyboard-response","222","749995","0.0-20.0-1.22","5a78dbb9ae9a0b0001a97212","6796e1c0ff24ca17c453c51c","67c6aff439d332eaf4bc52f9","passed","","1075","","","","","","","","","","","","","","f","yesOrNo","","","","5","","","lp","3000","","","71","499","151"
"","","","","","html-keyboard-response","223","751488","0.0-20.0-0.23","5a78dbb9ae9a0b0001a97212","6796e1c0ff24ca17c453c51c","67c6aff439d332eaf4bc52f9","passed","","","","","","","","","","","","","","","","","ballFalling","604.4000000000001","667.6211431702998","201.78","9","fallScene","false","","","","","72","",""
"","","","","","html-keyboard-response","224","754494","0.0-20.0-1.23","5a78dbb9ae9a0b0001a97212","6796e1c0ff24ca17c453c51c","67c6aff439d332eaf4bc52f9","passed","","1215","","","","","","","","","","","","","","j","yesOrNo","","","","9","","","gt","3000","","","72","667.6211431702998","201.78"
"","","","","","html-keyboard-response","225","756848","0.0-21.0","5a78dbb9ae9a0b0001a97212","6796e1c0ff24ca17c453c51c","67c6aff439d332eaf4bc52f9","passed","","2354","","","","","","","","","","","","","<p><span style=""font-size:40px;"">BLOCK 4</span></p><p><span style=""font-size:25px;"">You have <b style=""color: #FF644F;""><strong>0.7 second(s)</strong></b> to respond to the following trials.</span><br></p><p></p> <!-- Blank line -->
                <p id=""blinking-text"" style=""font-weight; animation: blink 2s infinite;"">Press Space to continue</p>
                <style>
                    @keyframes blink {
                        50% {
                            opacity: 0;
                        }
                    }
                </style></p>"," ","","","","","","","","","","","","","",""
"","","","","","html-keyboard-response","226","758639","0.0-22.0-0.0","5a78dbb9ae9a0b0001a97212","6796e1c0ff24ca17c453c51c","67c6aff439d332eaf4bc52f9","passed","","","","","","","","","","","","","","","","","ballFalling","322.3","308.07114317029976","253.89","2","fallScene","false","","","","","73","",""
"","","","","","html-keyboard-response","227","759342","0.0-22.0-1.0","5a78dbb9ae9a0b0001a97212","6796e1c0ff24ca17c453c51c","67c6aff439d332eaf4bc52f9","passed","","481","","","","","","","","","","","","","","j","yesOrNo","","","","2","","","gt","700","","","73","308.07114317029976","253.89"
"","","","","","html-keyboard-response","228","760839","0.0-22.0-0.1","5a78dbb9ae9a0b0001a97212","6796e1c0ff24ca17c453c51c","67c6aff439d332eaf4bc52f9","passed","","","","","","","","","","","","","","","","","ballFalling","604.4000000000001","667.6211431702998","201.78","9","fallScene","true","","","","","74","",""
"","","","","","html-keyboard-response","229","761550","0.0-22.0-1.1","5a78dbb9ae9a0b0001a97212","6796e1c0ff24ca17c453c51c","67c6aff439d332eaf4bc52f9","passed","","585","","","","","","","","","","","","","","f","yesOrNo","","","","9","","","lp","700","","","74","605.4000000000001","151"
"","","","","","html-keyboard-response","230","763105","0.0-22.0-0.2","5a78dbb9ae9a0b0001a97212","6796e1c0ff24ca17c453c51c","67c6aff439d332eaf4bc52f9","passed","","","","","","","","","","","","","","","","","ballFalling","604.4000000000001","575.4211431702997","266.76","12","fallScene","true","","","","","75","",""
"","","","","","html-keyboard-response","231","763806","0.0-22.0-1.2","5a78dbb9ae9a0b0001a97212","6796e1c0ff24ca17c453c51c","67c6aff439d332eaf4bc52f9","passed","","430","","","","","","","","","","","","","","j","yesOrNo","","","","12","","","mid","700","","","75","536.4288568297004","300"
"","","","","","html-keyboard-response","232","765472","0.0-22.0-0.3","5a78dbb9ae9a0b0001a97212","6796e1c0ff24ca17c453c51c","67c6aff439d332eaf4bc52f9","passed","","","","","","","","","","","","","","","","","ballFalling","500","479.92114317029973","330.87","6","fallScene","false","","","","","76","",""
"","","","","","html-keyboard-response","233","766184","0.0-22.0-1.3","5a78dbb9ae9a0b0001a97212","6796e1c0ff24ca17c453c51c","67c6aff439d332eaf4bc52f9","passed","","512","","","","","","","","","","","","","","j","yesOrNo","","","","6","","","lp","700","","","76","499","189.92909825697632"
"","","","","","html-keyboard-response","234","767972","0.0-22.0-0.4","5a78dbb9ae9a0b0001a97212","6796e1c0ff24ca17c453c51c","67c6aff439d332eaf4bc52f9","passed","","","","","","","","","","","","","","","","","ballFalling","322.3","308.07114317029976","253.89","2","fallScene","false","","","","","77","",""
"","","","","","html-keyboard-response","235","768679","0.0-22.0-1.4","5a78dbb9ae9a0b0001a97212","6796e1c0ff24ca17c453c51c","67c6aff439d332eaf4bc52f9","passed","","524","","","","","","","","","","","","","","f","yesOrNo","","","","2","","","lp","700","","","77","321.3","151"
"","","","","","html-keyboard-response","236","770239","0.0-22.0-0.5","5a78dbb9ae9a0b0001a97212","6796e1c0ff24ca17c453c51c","67c6aff439d332eaf4bc52f9","passed","","","","","","","","","","","","","","","","","ballFalling","500","453.67114317029973","210.33","5","fallScene","false","","","","","78","",""
"","","","","","html-keyboard-response","237","770953","0.0-22.0-1.5","5a78dbb9ae9a0b0001a97212","6796e1c0ff24ca17c453c51c","67c6aff439d332eaf4bc52f9","passed","","617","","","","","","","","","","","","","","f","yesOrNo","","","","5","","","lp","700","","","78","499","151"
"","","","","","html-keyboard-response","238","772505","0.0-22.0-0.6","5a78dbb9ae9a0b0001a97212","6796e1c0ff24ca17c453c51c","67c6aff439d332eaf4bc52f9","passed","","","","","","","","","","","","","","","","","ballFalling","604.4000000000001","575.4211431702997","266.76","12","fallScene","false","","","","","79","",""
"","","","","","html-keyboard-response","239","773214","0.0-22.0-1.6","5a78dbb9ae9a0b0001a97212","6796e1c0ff24ca17c453c51c","67c6aff439d332eaf4bc52f9","passed","","406","","","","","","","","","","","","","","j","yesOrNo","","","","12","","","gt","700","","","79","575.4211431702997","266.76"
"","","","","","html-keyboard-response","240","775222","0.0-22.0-0.7","5a78dbb9ae9a0b0001a97212","6796e1c0ff24ca17c453c51c","67c6aff439d332eaf4bc52f9","passed","","","","","","","","","","","","","","","","","ballFalling","604.4000000000001","596.8711431702998","394.5","10","fallScene","false","","","","","80","",""
"","","","","","html-keyboard-response","241","775925","0.0-22.0-1.7","5a78dbb9ae9a0b0001a97212","6796e1c0ff24ca17c453c51c","67c6aff439d332eaf4bc52f9","passed","","626","","","","","","","","","","","","","","f","yesOrNo","","","","10","","","gt","700","","","80","596.8711431702998","394.5"
"","","","","","html-keyboard-response","242","777422","0.0-22.0-0.8","5a78dbb9ae9a0b0001a97212","6796e1c0ff24ca17c453c51c","67c6aff439d332eaf4bc52f9","passed","","","","","","","","","","","","","","","","","ballFalling","604.4000000000001","667.6211431702998","201.78","9","fallScene","false","","","","","81","",""
"","","","","","html-keyboard-response","243","778128","0.0-22.0-1.8","5a78dbb9ae9a0b0001a97212","6796e1c0ff24ca17c453c51c","67c6aff439d332eaf4bc52f9","passed","","569","","","","","","","","","","","","","","j","yesOrNo","","","","9","","","gt","700","","","81","667.6211431702998","201.78"
"","","","","","html-keyboard-response","244","779689","0.0-22.0-0.9","5a78dbb9ae9a0b0001a97212","6796e1c0ff24ca17c453c51c","67c6aff439d332eaf4bc52f9","passed","","","","","","","","","","","","","","","","","ballFalling","500","453.67114317029973","210.33","5","fallScene","true","","","","","82","",""
"","","","","","html-keyboard-response","245","780400","0.0-22.0-1.9","5a78dbb9ae9a0b0001a97212","6796e1c0ff24ca17c453c51c","67c6aff439d332eaf4bc52f9","passed","","455","","","","","","","","","","","","","","f","yesOrNo","","","","5","","","mid","700","","","82","499","300"
"","","","","","html-keyboard-response","246","782405","0.0-22.0-0.10","5a78dbb9ae9a0b0001a97212","6796e1c0ff24ca17c453c51c","67c6aff439d332eaf4bc52f9","passed","","","","","","","","","","","","","","","","","ballFalling","500","510.8711431702997","369.03","8","fallScene","false","","","","","83","",""
"","","","","","html-keyboard-response","247","783121","0.0-22.0-1.10","5a78dbb9ae9a0b0001a97212","6796e1c0ff24ca17c453c51c","67c6aff439d332eaf4bc52f9","passed","","650","","","","","","","","","","","","","","j","yesOrNo","","","","8","","","mid","700","","","83","501","300"
"","","","","","html-keyboard-response","248","784605","0.0-22.0-0.11","5a78dbb9ae9a0b0001a97212","6796e1c0ff24ca17c453c51c","67c6aff439d332eaf4bc52f9","passed","","","","","","","","","","","","","","","","","ballFalling","604.4000000000001","667.6211431702998","201.78","9","fallScene","false","","","","","84","",""
"","","","","","html-keyboard-response","249","785309","0.0-22.0-1.11","5a78dbb9ae9a0b0001a97212","6796e1c0ff24ca17c453c51c","67c6aff439d332eaf4bc52f9","passed","","null","","","","","","","","","","","","","","null","yesOrNo","","","","9","","","lp","700","","","84","605.4000000000001","151"
"","","","","","html-keyboard-response","250","787105","0.0-22.0-0.12","5a78dbb9ae9a0b0001a97212","6796e1c0ff24ca17c453c51c","67c6aff439d332eaf4bc52f9","passed","","","","","","","","","","","","","","","","","ballFalling","322.3","308.07114317029976","253.89","2","fallScene","false","","","","","85","",""
"","","","","","html-keyboard-response","251","787806","0.0-22.0-1.12","5a78dbb9ae9a0b0001a97212","6796e1c0ff24ca17c453c51c","67c6aff439d332eaf4bc52f9","passed","","462","","","","","","","","","","","","","","j","yesOrNo","","","","2","","","lp","700","","","85","321.3","151"
"","","","","","html-keyboard-response","252","789372","0.0-22.0-0.13","5a78dbb9ae9a0b0001a97212","6796e1c0ff24ca17c453c51c","67c6aff439d332eaf4bc52f9","passed","","","","","","","","","","","","","","","","","ballFalling","322.3","379.3711431702997","245.25","1","fallScene","true","","","","","86","",""
"","","","","","html-keyboard-response","253","790078","0.0-22.0-1.13","5a78dbb9ae9a0b0001a97212","6796e1c0ff24ca17c453c51c","67c6aff439d332eaf4bc52f9","passed","","null","","","","","","","","","","","","","","null","yesOrNo","","","","1","","","mid","700","","","86","390.27114317029975","300"
"","","","","","html-keyboard-response","254","791874","0.0-22.0-0.14","5a78dbb9ae9a0b0001a97212","6796e1c0ff24ca17c453c51c","67c6aff439d332eaf4bc52f9","passed","","","","","","","","","","","","","","","","","ballFalling","322.3","308.07114317029976","253.89","2","fallScene","true","","","","","87","",""
"","","","","","html-keyboard-response","255","792583","0.0-22.0-1.14","5a78dbb9ae9a0b0001a97212","6796e1c0ff24ca17c453c51c","67c6aff439d332eaf4bc52f9","passed","","629","","","","","","","","","","","","","","f","yesOrNo","","","","2","","","gt","700","","","87","308.07114317029976","253.89"
"","","","","","html-keyboard-response","256","794139","0.0-22.0-0.15","5a78dbb9ae9a0b0001a97212","6796e1c0ff24ca17c453c51c","67c6aff439d332eaf4bc52f9","passed","","","","","","","","","","","","","","","","","ballFalling","322.3","296.07114317029976","371.46","3","fallScene","false","","","","","88","",""
"","","","","","html-keyboard-response","257","794852","0.0-22.0-1.15","5a78dbb9ae9a0b0001a97212","6796e1c0ff24ca17c453c51c","67c6aff439d332eaf4bc52f9","passed","","null","","","","","","","","","","","","","","null","yesOrNo","","","","3","","","gt","700","","","88","296.07114317029976","371.46"
"","","","","","html-keyboard-response","258","796639","0.0-22.0-0.16","5a78dbb9ae9a0b0001a97212","6796e1c0ff24ca17c453c51c","67c6aff439d332eaf4bc52f9","passed","","","","","","","","","","","","","","","","","ballFalling","322.3","308.07114317029976","253.89","2","fallScene","false","","","","","89","",""
"","","","","","html-keyboard-response","259","797346","0.0-22.0-1.16","5a78dbb9ae9a0b0001a97212","6796e1c0ff24ca17c453c51c","67c6aff439d332eaf4bc52f9","passed","","537","","","","","","","","","","","","","","j","yesOrNo","","","","2","","","mid","700","","","89","321.3","300"
"","","","","","html-keyboard-response","260","798906","0.0-22.0-0.17","5a78dbb9ae9a0b0001a97212","6796e1c0ff24ca17c453c51c","67c6aff439d332eaf4bc52f9","passed","","","","","","","","","","","","","","","","","ballFalling","604.4000000000001","575.4211431702997","266.76","12","fallScene","false","","","","","90","",""
"","","","","","html-keyboard-response","261","799606","0.0-22.0-1.17","5a78dbb9ae9a0b0001a97212","6796e1c0ff24ca17c453c51c","67c6aff439d332eaf4bc52f9","passed","","446","","","","","","","","","","","","","","j","yesOrNo","","","","12","","","mid","700","","","90","536.4288568297004","300"
"","","","","","html-keyboard-response","262","801172","0.0-22.0-0.18","5a78dbb9ae9a0b0001a97212","6796e1c0ff24ca17c453c51c","67c6aff439d332eaf4bc52f9","passed","","","","","","","","","","","","","","","","","ballFalling","322.3","296.07114317029976","371.46","3","fallScene","true","","","","","91","",""
"","","","","","html-keyboard-response","263","801886","0.0-22.0-1.18","5a78dbb9ae9a0b0001a97212","6796e1c0ff24ca17c453c51c","67c6aff439d332eaf4bc52f9","passed","","547","","","","","","","","","","","","","","f","yesOrNo","","","","3","","","gt","700","","","91","296.07114317029976","371.46"
"","","","","","html-keyboard-response","264","803889","0.0-22.0-0.19","5a78dbb9ae9a0b0001a97212","6796e1c0ff24ca17c453c51c","67c6aff439d332eaf4bc52f9","passed","","","","","","","","","","","","","","","","","ballFalling","500","510.8711431702997","369.03","8","fallScene","true","","","","","92","",""
"","","","","","html-keyboard-response","265","804593","0.0-22.0-1.19","5a78dbb9ae9a0b0001a97212","6796e1c0ff24ca17c453c51c","67c6aff439d332eaf4bc52f9","passed","","462","","","","","","","","","","","","","","j","yesOrNo","","","","8","","","lp","700","","","92","501","151"
"","","","","","html-keyboard-response","266","806256","0.0-22.0-0.20","5a78dbb9ae9a0b0001a97212","6796e1c0ff24ca17c453c51c","67c6aff439d332eaf4bc52f9","passed","","","","","","","","","","","","","","","","","ballFalling","500","479.92114317029973","330.87","6","fallScene","true","","","","","93","",""
"","","","","","html-keyboard-response","267","806965","0.0-22.0-1.20","5a78dbb9ae9a0b0001a97212","6796e1c0ff24ca17c453c51c","67c6aff439d332eaf4bc52f9","passed","","696","","","","","","","","","","","","","","f","yesOrNo","","","","6","","","mid","700","","","93","499","300"
"","","","","","html-keyboard-response","268","808972","0.0-22.0-0.21","5a78dbb9ae9a0b0001a97212","6796e1c0ff24ca17c453c51c","67c6aff439d332eaf4bc52f9","passed","","","","","","","","","","","","","","","","","ballFalling","604.4000000000001","596.8711431702998","394.5","10","fallScene","true","","","","","94","",""
"","","","","","html-keyboard-response","269","809688","0.0-22.0-1.21","5a78dbb9ae9a0b0001a97212","6796e1c0ff24ca17c453c51c","67c6aff439d332eaf4bc52f9","passed","","683","","","","","","","","","","","","","","f","yesOrNo","","","","10","","","lp","700","","","94","603.4000000000001","215.50214355555383"
"","","","","","html-keyboard-response","270","811239","0.0-22.0-0.22","5a78dbb9ae9a0b0001a97212","6796e1c0ff24ca17c453c51c","67c6aff439d332eaf4bc52f9","passed","","","","","","","","","","","","","","","","","ballFalling","322.3","296.07114317029976","371.46","3","fallScene","true","","","","","95","",""
"","","","","","html-keyboard-response","271","811944","0.0-22.0-1.22","5a78dbb9ae9a0b0001a97212","6796e1c0ff24ca17c453c51c","67c6aff439d332eaf4bc52f9","passed","","520","","","","","","","","","","","","","","j","yesOrNo","","","","3","","","mid","700","","","95","321.3","300"
"","","","","","html-keyboard-response","272","813439","0.0-22.0-0.23","5a78dbb9ae9a0b0001a97212","6796e1c0ff24ca17c453c51c","67c6aff439d332eaf4bc52f9","passed","","","","","","","","","","","","","","","","","ballFalling","604.4000000000001","667.6211431702998","201.78","9","fallScene","false","","","","","96","",""
"","","","","","html-keyboard-response","273","814153","0.0-22.0-1.23","5a78dbb9ae9a0b0001a97212","6796e1c0ff24ca17c453c51c","67c6aff439d332eaf4bc52f9","passed","","616","","","","","","","","","","","","","","f","yesOrNo","","","","9","","","mid","700","","","96","605.4000000000001","300"
"","","","","","html-keyboard-response","274","815400","0.0-23.0","5a78dbb9ae9a0b0001a97212","6796e1c0ff24ca17c453c51c","67c6aff439d332eaf4bc52f9","passed","","1247","","","","","","","","","","","","","<p><span style=""font-size:40px;"">BLOCK 5</span></p><p><span style=""font-size:25px;"">You have <b style=""color: #FF644F;""><strong>0.7 second(s)</strong></b> to respond to the following trials.</span><br></p><p></p> <!-- Blank line -->
                <p id=""blinking-text"" style=""font-weight; animation: blink 2s infinite;"">Press Space to continue</p>
                <style>
                    @keyframes blink {
                        50% {
                            opacity: 0;
                        }
                    }
                </style></p>"," ","","","","","","","","","","","","","",""
"","","","","","html-keyboard-response","275","816972","0.0-24.0-0.0","5a78dbb9ae9a0b0001a97212","6796e1c0ff24ca17c453c51c","67c6aff439d332eaf4bc52f9","passed","","","","","","","","","","","","","","","","","ballFalling","500","553.4711431702997","282.51","7","fallScene","true","","","","","97","",""
"","","","","","html-keyboard-response","276","817687","0.0-24.0-1.0","5a78dbb9ae9a0b0001a97212","6796e1c0ff24ca17c453c51c","67c6aff439d332eaf4bc52f9","passed","","459","","","","","","","","","","","","","","j","yesOrNo","","","","7","","","gt","700","","","97","553.4711431702997","282.51"
"","","","","","html-keyboard-response","277","819239","0.0-24.0-0.1","5a78dbb9ae9a0b0001a97212","6796e1c0ff24ca17c453c51c","67c6aff439d332eaf4bc52f9","passed","","","","","","","","","","","","","","","","","ballFalling","322.3","356.42114317029973","357.87","4","fallScene","true","","","","","98","",""
"","","","","","html-keyboard-response","278","819952","0.0-24.0-1.1","5a78dbb9ae9a0b0001a97212","6796e1c0ff24ca17c453c51c","67c6aff439d332eaf4bc52f9","passed","","424","","","","","","","","","","","","","","j","yesOrNo","","","","4","","","mid","700","","","98","390.27114317029975","300"
"","","","","","html-keyboard-response","279","821506","0.0-24.0-0.2","5a78dbb9ae9a0b0001a97212","6796e1c0ff24ca17c453c51c","67c6aff439d332eaf4bc52f9","passed","","","","","","","","","","","","","","","","","ballFalling","604.4000000000001","650.0211431702996","404.58000000000004","11","fallScene","true","","","","","99","",""
"","","","","","html-keyboard-response","280","822209","0.0-24.0-1.2","5a78dbb9ae9a0b0001a97212","6796e1c0ff24ca17c453c51c","67c6aff439d332eaf4bc52f9","passed","","486","","","","","","","","","","","","","","j","yesOrNo","","","","11","","","mid","700","","","99","605.4000000000001","300"
"","","","","","html-keyboard-response","281","823772","0.0-24.0-0.3","5a78dbb9ae9a0b0001a97212","6796e1c0ff24ca17c453c51c","67c6aff439d332eaf4bc52f9","passed","","","","","","","","","","","","","","","","","ballFalling","322.3","356.42114317029973","357.87","4","fallScene","false","","","","","100","",""
"","","","","","html-keyboard-response","282","824484","0.0-24.0-1.3","5a78dbb9ae9a0b0001a97212","6796e1c0ff24ca17c453c51c","67c6aff439d332eaf4bc52f9","passed","","459","","","","","","","","","","","","","","j","yesOrNo","","","","4","","","lp","700","","","100","323.3","297.4070551689986"
"","","","","","html-keyboard-response","283","826039","0.0-24.0-0.4","5a78dbb9ae9a0b0001a97212","6796e1c0ff24ca17c453c51c","67c6aff439d332eaf4bc52f9","passed","","","","","","","","","","","","","","","","","ballFalling","322.3","296.07114317029976","371.46","3","fallScene","true","","","","","101","",""
"","","","","","html-keyboard-response","284","826744","0.0-24.0-1.4","5a78dbb9ae9a0b0001a97212","6796e1c0ff24ca17c453c51c","67c6aff439d332eaf4bc52f9","passed","","null","","","","","","","","","","","","","","null","yesOrNo","","","","3","","","mid","700","","","101","321.3","300"
"","","","","","html-keyboard-response","285","828306","0.0-24.0-0.5","5a78dbb9ae9a0b0001a97212","6796e1c0ff24ca17c453c51c","67c6aff439d332eaf4bc52f9","passed","","","","","","","","","","","","","","","","","ballFalling","322.3","379.3711431702997","245.25","1","fallScene","true","","","","","102","",""
"","","","","","html-keyboard-response","286","829013","0.0-24.0-1.5","5a78dbb9ae9a0b0001a97212","6796e1c0ff24ca17c453c51c","67c6aff439d332eaf4bc52f9","passed","","669","","","","","","","","","","","","","","f","yesOrNo","","","","1","","","gt","700","","","102","379.3711431702997","245.25"
"","","","","","html-keyboard-response","287","830572","0.0-24.0-0.6","5a78dbb9ae9a0b0001a97212","6796e1c0ff24ca17c453c51c","67c6aff439d332eaf4bc52f9","passed","","","","","","","","","","","","","","","","","ballFalling","500","453.67114317029973","210.33","5","fallScene","false","","","","","103","",""
"","","","","","html-keyboard-response","288","831283","0.0-24.0-1.6","5a78dbb9ae9a0b0001a97212","6796e1c0ff24ca17c453c51c","67c6aff439d332eaf4bc52f9","passed","","null","","","","","","","","","","","","","","null","yesOrNo","","","","5","","","mid","700","","","103","499","300"
"","","","","","html-keyboard-response","289","832839","0.0-24.0-0.7","5a78dbb9ae9a0b0001a97212","6796e1c0ff24ca17c453c51c","67c6aff439d332eaf4bc52f9","passed","","","","","","","","","","","","","","","","","ballFalling","500","453.67114317029973","210.33","5","fallScene","false","","","","","104","",""
"","","","","","html-keyboard-response","290","833541","0.0-24.0-1.7","5a78dbb9ae9a0b0001a97212","6796e1c0ff24ca17c453c51c","67c6aff439d332eaf4bc52f9","passed","","464","","","","","","","","","","","","","","j","yesOrNo","","","","5","","","gt","700","","","104","453.6711431702998","210.33"
"","","","","","html-keyboard-response","291","835106","0.0-24.0-0.8","5a78dbb9ae9a0b0001a97212","6796e1c0ff24ca17c453c51c","67c6aff439d332eaf4bc52f9","passed","","","","","","","","","","","","","","","","","ballFalling","322.3","356.42114317029973","357.87","4","fallScene","true","","","","","105","",""
"","","","","","html-keyboard-response","292","835807","0.0-24.0-1.8","5a78dbb9ae9a0b0001a97212","6796e1c0ff24ca17c453c51c","67c6aff439d332eaf4bc52f9","passed","","686","","","","","","","","","","","","","","f","yesOrNo","","","","4","","","lp","700","","","105","323.3","297.4070551689986"
"","","","","","html-keyboard-response","293","837372","0.0-24.0-0.9","5a78dbb9ae9a0b0001a97212","6796e1c0ff24ca17c453c51c","67c6aff439d332eaf4bc52f9","passed","","","","","","","","","","","","","","","","","ballFalling","604.4000000000001","575.4211431702997","266.76","12","fallScene","false","","","","","106","",""
"","","","","","html-keyboard-response","294","838076","0.0-24.0-1.9","5a78dbb9ae9a0b0001a97212","6796e1c0ff24ca17c453c51c","67c6aff439d332eaf4bc52f9","passed","","619","","","","","","","","","","","","","","f","yesOrNo","","","","12","","","lp","700","","","106","603.4000000000001","151"
"","","","","","html-keyboard-response","295","839739","0.0-24.0-0.10","5a78dbb9ae9a0b0001a97212","6796e1c0ff24ca17c453c51c","67c6aff439d332eaf4bc52f9","passed","","","","","","","","","","","","","","","","","ballFalling","500","479.92114317029973","330.87","6","fallScene","true","","","","","107","",""
"","","","","","html-keyboard-response","296","840443","0.0-24.0-1.10","5a78dbb9ae9a0b0001a97212","6796e1c0ff24ca17c453c51c","67c6aff439d332eaf4bc52f9","passed","","532","","","","","","","","","","","","","","j","yesOrNo","","","","6","","","mid","700","","","107","499","300"
"","","","","","html-keyboard-response","297","842006","0.0-24.0-0.11","5a78dbb9ae9a0b0001a97212","6796e1c0ff24ca17c453c51c","67c6aff439d332eaf4bc52f9","passed","","","","","","","","","","","","","","","","","ballFalling","604.4000000000001","575.4211431702997","266.76","12","fallScene","false","","","","","108","",""
"","","","","","html-keyboard-response","298","842710","0.0-24.0-1.11","5a78dbb9ae9a0b0001a97212","6796e1c0ff24ca17c453c51c","67c6aff439d332eaf4bc52f9","passed","","569","","","","","","","","","","","","","","f","yesOrNo","","","","12","","","lp","700","","","108","603.4000000000001","151"
"","","","","","html-keyboard-response","299","844256","0.0-24.0-0.12","5a78dbb9ae9a0b0001a97212","6796e1c0ff24ca17c453c51c","67c6aff439d332eaf4bc52f9","passed","","","","","","","","","","","","","","","","","ballFalling","322.3","356.42114317029973","357.87","4","fallScene","true","","","","","109","",""
"","","","","","html-keyboard-response","300","844970","0.0-24.0-1.12","5a78dbb9ae9a0b0001a97212","6796e1c0ff24ca17c453c51c","67c6aff439d332eaf4bc52f9","passed","","null","","","","","","","","","","","","","","null","yesOrNo","","","","4","","","mid","700","","","109","390.27114317029975","300"
