"success","timeout","failed_images","failed_audio","failed_video","trial_type","trial_index","time_elapsed","internal_node_id","subject_id","study_id","session_id","practiceTestResult","view_history","rt","width","height","webaudio","browser","browser_version","mobile","os","fullscreen","vsync_rate","webcam","microphone","url","stimulus","response","task","ball_X","obstacle_groundTruth_x","obstacle_groundTruth_y","stimulus_idx","trial_name","flipped","choice","timeLimit","question_order","comprehensionCheck","currentTrial","obstacle_choice_x","obstacle_choice_y"
"true","false","[]","[]","[]","preload","0","234","0.0-0.0","5bad8fc39c0cc900017a6a28","6796e1c0ff24ca17c453c51c","67c70d4d77acfc6ff7e608b8","passed","","","","","","","","","","","","","","","","","","","","","","","","","","","","","",""
"","","","","","instructions","1","20799","0.0-1.0","5bad8fc39c0cc900017a6a28","6796e1c0ff24ca17c453c51c","67c70d4d77acfc6ff7e608b8","passed","[{""page_index"":0,""viewing_time"":20563}]","20563","","","","","","","","","","","","","","","","","","","","","","","","","","","",""
"","","","","","browser-check","2","21786","0.0-2.0","5bad8fc39c0cc900017a6a28","6796e1c0ff24ca17c453c51c","67c70d4d77acfc6ff7e608b8","passed","","","1920","919","true","chrome","133.0.0","false","Windows 10","true","61.03","false","true","","","","","","","","","","","","","","","","",""
"","","","","","external-html","3","33111","0.0-3.0","5bad8fc39c0cc900017a6a28","6796e1c0ff24ca17c453c51c","67c70d4d77acfc6ff7e608b8","passed","","11240","","","","","","","","","","","","consent.html","","","","","","","","","","","","","","","",""
"true","","","","","fullscreen","4","76623","0.0-4.0","5bad8fc39c0cc900017a6a28","6796e1c0ff24ca17c453c51c","67c70d4d77acfc6ff7e608b8","passed","","43199","","","","","","","","","","","","","","","","","","","","","","","","","","","",""
"","","","","","browser-check","5","77618","0.0-5.0","5bad8fc39c0cc900017a6a28","6796e1c0ff24ca17c453c51c","67c70d4d77acfc6ff7e608b8","passed","","","1920","1080","true","chrome","133.0.0","false","Windows 10","true","60.51","false","true","","","","","","","","","","","","","","","","",""
"","","","","","html-keyboard-response","6","86632","0.0-6.0","5bad8fc39c0cc900017a6a28","6796e1c0ff24ca17c453c51c","67c70d4d77acfc6ff7e608b8","passed","","9012","","","","","","","","","","","","","<p><b>This experiment requires keyboard input.</b></p> 
        <p><b>To ensure your response will be recorded successfully, please press 'Space' to continue.</b></p>
        <p>If you can't proceed, you won't be able to complete this study.</p>
        <p></p> <!-- Blank line -->
        <p id=""blinking-text"" style=""font-weight; animation: blink 2s infinite;"">Press Space to continue</p>
        <style>
            @keyframes blink {
                50% {
                    opacity: 0;
                }
            }
        </style>"," ","","","","","","","","","","","","","",""
"","","","","","html-keyboard-response","7","100894","0.0-7.0","5bad8fc39c0cc900017a6a28","6796e1c0ff24ca17c453c51c","67c70d4d77acfc6ff7e608b8","passed","","14261","","","","","","","","","","","","","<p><b>This experiment requires keyboard input.</b></p> 
        <p><b>To ensure your response will be recorded successfully, please press the 'f' key to continue.</b></p>
        <p>If you can't proceed, you won't be able to complete this study.</p>
        <p></p> <!-- Blank line -->
        <p id=""blinking-text"" style=""font-weight; animation: blink 2s infinite;"">Press f to continue</p>
        <style>
            @keyframes blink {
                50% {
                    opacity: 0;
                }
            }
        </style>","f","","","","","","","","","","","","","",""
"","","","","","html-keyboard-response","8","103493","0.0-8.0","5bad8fc39c0cc900017a6a28","6796e1c0ff24ca17c453c51c","67c70d4d77acfc6ff7e608b8","passed","","2597","","","","","","","","","","","","","<p><b>This experiment requires keyboard input.</b></p> 
        <p><b>To ensure your response will be recorded successfully, please press the 'j' key to continue.</b></p>
        <p>If you can't proceed, you won't be able to complete this study.</p>
        <p></p> <!-- Blank line -->
        <p id=""blinking-text"" style=""font-weight; animation: blink 2s infinite;"">Press j to continue</p>
        <style>
            @keyframes blink {
                50% {
                    opacity: 0;
                }
            }
        </style>","j","","","","","","","","","","","","","",""
"","","","","","browser-check","9","104502","0.0-9.0","5bad8fc39c0cc900017a6a28","6796e1c0ff24ca17c453c51c","67c70d4d77acfc6ff7e608b8","passed","","","1920","1080","true","chrome","133.0.0","false","Windows 10","true","60.01","false","true","","","","","","","","","","","","","","","","",""
"","","","","","survey-text","10","110871","0.0-10.0","5bad8fc39c0cc900017a6a28","6796e1c0ff24ca17c453c51c","67c70d4d77acfc6ff7e608b8","passed","","6366","","","","","","","","","","","","","","{""prolificID"":""5bad8fc39c0cc900017a6a28""}","","","","","","","","","","","","","",""
"","","","","","instructions","11","204647","0.0-11.0-0.0-0.0","5bad8fc39c0cc900017a6a28","6796e1c0ff24ca17c453c51c","67c70d4d77acfc6ff7e608b8","passed","[{""page_index"":0,""viewing_time"":42463},{""page_index"":1,""viewing_time"":31400},{""page_index"":2,""viewing_time"":9144},{""page_index"":3,""viewing_time"":10768}]","93775","","","","","","","","","","","","","","","","","","","","","","","","","","","",""
"","","","","","html-keyboard-response","12","237013","0.0-11.0-0.0-1.0","5bad8fc39c0cc900017a6a28","6796e1c0ff24ca17c453c51c","67c70d4d77acfc6ff7e608b8","passed","","31851","","","","","","","","","","","","","<br>Remember! After a ball falls, the screen will disappear, and you'll decide if the proposed position is where the hidden triangle was. <br>You will now practice this by watching a few videos and making decisions.<p>To respond:<br style=""margin-bottom: 5px; text-indent: -20px; padding-left: 20px;"">- Press <b style=""color: #12AD2B;"">J for Yes</b>, if you think the triangle is in the correct position.<br style=""margin-top: 0; text-indent: -20px; padding-left: 20px;"">- Press <b style=""color: orange;"">F for No</b>, if you think the triangle is not in the correct position.</p><p>In this practice round, there is no time limit. Focus on getting comfortable with the task first.<br>Press either J or F to begin your practice trials.</p><img src = ""YesOrNo_instruction.png"" style=""width: 65%;""></img>","f","","","","","","","","","","","","","",""
"","","","","","html-keyboard-response","13","238472","0.0-11.0-0.0-2.0-0.0","5bad8fc39c0cc900017a6a28","6796e1c0ff24ca17c453c51c","67c70d4d77acfc6ff7e608b8","passed","","","","","","","","","","","","","","","","","ballFalling_prac","441","414","302","5","fallScene","true","","","","","","",""
"","","","","","html-keyboard-response","14","239438","0.0-11.0-0.0-2.0-1.0","5bad8fc39c0cc900017a6a28","6796e1c0ff24ca17c453c51c","67c70d4d77acfc6ff7e608b8","passed","","948","","","","","","","","","","","","","","j","yesOrNo_prac_noTimed","","","","5","","","close gt","NA","","","","",""
"","","","","","html-keyboard-response","15","241005","0.0-11.0-0.0-2.0-0.1","5bad8fc39c0cc900017a6a28","6796e1c0ff24ca17c453c51c","67c70d4d77acfc6ff7e608b8","passed","","","","","","","","","","","","","","","","","ballFalling_prac","416","464","296","1","fallScene","false","","","","","","",""
"","","","","","html-keyboard-response","16","242998","0.0-11.0-0.0-2.0-1.1","5bad8fc39c0cc900017a6a28","6796e1c0ff24ca17c453c51c","67c70d4d77acfc6ff7e608b8","passed","","1990","","","","","","","","","","","","","","j","yesOrNo_prac_noTimed","","","","1","","","gt","NA","","","","",""
"","","","","","html-keyboard-response","17","245104","0.0-11.0-0.0-2.0-0.2","5bad8fc39c0cc900017a6a28","6796e1c0ff24ca17c453c51c","67c70d4d77acfc6ff7e608b8","passed","","","","","","","","","","","","","","","","","ballFalling_prac","660","666","350","3","fallScene","false","","","","","","",""
"","","","","","html-keyboard-response","18","246901","0.0-11.0-0.0-2.0-1.2","5bad8fc39c0cc900017a6a28","6796e1c0ff24ca17c453c51c","67c70d4d77acfc6ff7e608b8","passed","","1793","","","","","","","","","","","","","","f","yesOrNo_prac_noTimed","","","","3","","","wrong direction","NA","","","","",""
"","","","","","instructions","19","338751","0.0-11.0-0.0-3.0","5bad8fc39c0cc900017a6a28","6796e1c0ff24ca17c453c51c","67c70d4d77acfc6ff7e608b8","passed","[{""page_index"":0,""viewing_time"":46545},{""page_index"":1,""viewing_time"":45304}]","91849","","","","","","","","","","","","","","","","","","","","","","","","","","","",""
"","","","","","html-button-response","20","346335","0.0-11.0-0.0-4.0","5bad8fc39c0cc900017a6a28","6796e1c0ff24ca17c453c51c","67c70d4d77acfc6ff7e608b8","passed","","7082","","","","","","","","","","","","","<p>To make sure you understood the task, we just have a <b>brief quiz</b> here.</p><p>If you need to review the instructions, click 'Previous'.</p><p>It's important to understand the task to do the study, so you have to pass the quiz to move to the study.</p>","1","","","","","","","","","","","","","",""
"","","","","","survey-multi-choice","21","380783","0.0-11.0-1.0-0.0","5bad8fc39c0cc900017a6a28","6796e1c0ff24ca17c453c51c","67c70d4d77acfc6ff7e608b8","passed","","34447","","","","","","","","","","","","","","{""generalProcedure"":""Watch a video of a ball falling, some of it behind a gray screen. After each video, decide if the triangle is at the spot where the ball hit the triangle behind the screen. There is time limit for the response.""}","","","","","","","","","","[0]","","","",""
"","","","","","survey-multi-choice","22","389239","0.0-11.0-1.0-1.0","5bad8fc39c0cc900017a6a28","6796e1c0ff24ca17c453c51c","67c70d4d77acfc6ff7e608b8","passed","","8455","","","","","","","","","","","","","","{""checkBallHitObstacle"":""No.""}","","","","","","","","","","[0]","","","",""
"","","","","","survey-multi-choice","23","399495","0.0-11.0-1.0-2.0","5bad8fc39c0cc900017a6a28","6796e1c0ff24ca17c453c51c","67c70d4d77acfc6ff7e608b8","passed","","10255","","","","","","","","","","","","","","{""checkTriangleVisibility"":""No, the triangle is hidden behind the gray screen.""}","","","","","","","","","","[0]","","","",""
"","","","","","survey-multi-choice","24","406991","0.0-11.0-1.0-3.0","5bad8fc39c0cc900017a6a28","6796e1c0ff24ca17c453c51c","67c70d4d77acfc6ff7e608b8","passed","","7495","","","","","","","","","","","","","","{""checkTimedResponse"":""Your response will not be recorded, and the trial will move to the next one.""}","","","","","","","","","","[0]","","","",""
"","","","","","survey-multi-choice","25","429111","0.0-11.0-1.0-4.0","5bad8fc39c0cc900017a6a28","6796e1c0ff24ca17c453c51c","67c70d4d77acfc6ff7e608b8","passed","","22120","","","","","","","","","","","","","","{""checkTimeBlockNotice"":""At the beginning of each block.""}","","","","","","","","","","[0]","","","",""
"","","","","","survey-multi-choice","26","445791","0.0-11.0-1.0-5.0","5bad8fc39c0cc900017a6a28","6796e1c0ff24ca17c453c51c","67c70d4d77acfc6ff7e608b8","passed","","16679","","","","","","","","","","","","","","{""checkTimeBlockSameness"":""Yes, the time limit is the same for all trials within a block.""}","","","","","","","","","","[0]","","","",""
"","","","","","survey-multi-choice","27","466271","0.0-11.0-1.0-6.0","5bad8fc39c0cc900017a6a28","6796e1c0ff24ca17c453c51c","67c70d4d77acfc6ff7e608b8","passed","","20479","","","","","","","","","","","","","","{""checkTrianglePrecision"":""No. The proposed purple triangle is not in the correct position because it doesn't match the location of the white triangle exactly.""}","","","","","","","","","","[0]","","","",""
"","","","","","html-button-response","28","470167","0.0-11.0-2.0-0.0","5bad8fc39c0cc900017a6a28","6796e1c0ff24ca17c453c51c","67c70d4d77acfc6ff7e608b8","passed","","3895","","","","","","","","","","","","","<p>Oops! You did not pass the quiz.</p><p>You will now repeat the instructions and practice.</p>","0","","","","","","","","","","","failed","","",""
"","","","","","instructions","29","583319","0.0-11.1-0.1-0.1","5bad8fc39c0cc900017a6a28","6796e1c0ff24ca17c453c51c","67c70d4d77acfc6ff7e608b8","passed","[{""page_index"":0,""viewing_time"":49735},{""page_index"":1,""viewing_time"":32280},{""page_index"":2,""viewing_time"":8064},{""page_index"":3,""viewing_time"":23072}]","113152","","","","","","","","","","","","","","","","","","","","","","","","","","","",""
"","","","","","html-keyboard-response","30","609071","0.0-11.1-0.1-1.1","5bad8fc39c0cc900017a6a28","6796e1c0ff24ca17c453c51c","67c70d4d77acfc6ff7e608b8","passed","","25247","","","","","","","","","","","","","<br>Remember! After a ball falls, the screen will disappear, and you'll decide if the proposed position is where the hidden triangle was. <br>You will now practice this by watching a few videos and making decisions.<p>To respond:<br style=""margin-bottom: 5px; text-indent: -20px; padding-left: 20px;"">- Press <b style=""color: #12AD2B;"">J for Yes</b>, if you think the triangle is in the correct position.<br style=""margin-top: 0; text-indent: -20px; padding-left: 20px;"">- Press <b style=""color: orange;"">F for No</b>, if you think the triangle is not in the correct position.</p><p>In this practice round, there is no time limit. Focus on getting comfortable with the task first.<br>Press either J or F to begin your practice trials.</p><img src = ""YesOrNo_instruction.png"" style=""width: 65%;""></img>","f","","","","","","","","","","","","","",""
"","","","","","html-keyboard-response","31","610641","0.0-11.1-0.1-2.1-0.3","5bad8fc39c0cc900017a6a28","6796e1c0ff24ca17c453c51c","67c70d4d77acfc6ff7e608b8","passed","","","","","","","","","","","","","","","","","ballFalling_prac","441","414","302","5","fallScene","true","","","","","","",""
"","","","","","html-keyboard-response","32","613070","0.0-11.1-0.1-2.1-1.3","5bad8fc39c0cc900017a6a28","6796e1c0ff24ca17c453c51c","67c70d4d77acfc6ff7e608b8","passed","","2423","","","","","","","","","","","","","","j","yesOrNo_prac_noTimed","","","","5","","","close gt","NA","","","","",""
"","","","","","html-keyboard-response","33","614623","0.0-11.1-0.1-2.1-0.4","5bad8fc39c0cc900017a6a28","6796e1c0ff24ca17c453c51c","67c70d4d77acfc6ff7e608b8","passed","","","","","","","","","","","","","","","","","ballFalling_prac","416","464","296","1","fallScene","false","","","","","","",""
"","","","","","html-keyboard-response","34","616918","0.0-11.1-0.1-2.1-1.4","5bad8fc39c0cc900017a6a28","6796e1c0ff24ca17c453c51c","67c70d4d77acfc6ff7e608b8","passed","","2291","","","","","","","","","","","","","","j","yesOrNo_prac_noTimed","","","","1","","","gt","NA","","","","",""
"","","","","","html-keyboard-response","35","619024","0.0-11.1-0.1-2.1-0.5","5bad8fc39c0cc900017a6a28","6796e1c0ff24ca17c453c51c","67c70d4d77acfc6ff7e608b8","passed","","","","","","","","","","","","","","","","","ballFalling_prac","660","666","350","3","fallScene","false","","","","","","",""
"","","","","","html-keyboard-response","36","620702","0.0-11.1-0.1-2.1-1.5","5bad8fc39c0cc900017a6a28","6796e1c0ff24ca17c453c51c","67c70d4d77acfc6ff7e608b8","passed","","1675","","","","","","","","","","","","","","f","yesOrNo_prac_noTimed","","","","3","","","wrong direction","NA","","","","",""
"","","","","","instructions","37","684679","0.0-11.1-0.1-3.1","5bad8fc39c0cc900017a6a28","6796e1c0ff24ca17c453c51c","67c70d4d77acfc6ff7e608b8","passed","[{""page_index"":0,""viewing_time"":43560},{""page_index"":1,""viewing_time"":20416}]","63976","","","","","","","","","","","","","","","","","","","","","","","","","","","",""
"","","","","","html-button-response","38","687895","0.0-11.1-0.1-4.1","5bad8fc39c0cc900017a6a28","6796e1c0ff24ca17c453c51c","67c70d4d77acfc6ff7e608b8","passed","","2701","","","","","","","","","","","","","<p>To make sure you understood the task, we just have a <b>brief quiz</b> here.</p><p>If you need to review the instructions, click 'Previous'.</p><p>It's important to understand the task to do the study, so you have to pass the quiz to move to the study.</p>","1","","","","","","","","","","","","","",""
"","","","","","survey-multi-choice","39","717935","0.0-11.1-1.1-0.1","5bad8fc39c0cc900017a6a28","6796e1c0ff24ca17c453c51c","67c70d4d77acfc6ff7e608b8","passed","","30039","","","","","","","","","","","","","","{""generalProcedure"":""Watch a video of a ball falling, some of it behind a gray screen. After each video, decide if the triangle is at the spot where the ball hit the triangle behind the screen. There is time limit for the response.""}","","","","","","","","","","[0]","","","",""
"","","","","","survey-multi-choice","40","752351","0.0-11.1-1.1-1.1","5bad8fc39c0cc900017a6a28","6796e1c0ff24ca17c453c51c","67c70d4d77acfc6ff7e608b8","passed","","34415","","","","","","","","","","","","","","{""checkBallHitObstacle"":""Yes.""}","","","","","","","","","","[0]","","","",""
"","","","","","survey-multi-choice","41","803959","0.0-11.1-1.1-2.1","5bad8fc39c0cc900017a6a28","6796e1c0ff24ca17c453c51c","67c70d4d77acfc6ff7e608b8","passed","","51608","","","","","","","","","","","","","","{""checkTriangleVisibility"":""No, the triangle is hidden behind the gray screen.""}","","","","","","","","","","[0]","","","",""
"","","","","","survey-multi-choice","42","811743","0.0-11.1-1.1-3.1","5bad8fc39c0cc900017a6a28","6796e1c0ff24ca17c453c51c","67c70d4d77acfc6ff7e608b8","passed","","7783","","","","","","","","","","","","","","{""checkTimedResponse"":""Your response will not be recorded, and the trial will move to the next one.""}","","","","","","","","","","[0]","","","",""
"","","","","","survey-multi-choice","43","858631","0.0-11.1-1.1-4.1","5bad8fc39c0cc900017a6a28","6796e1c0ff24ca17c453c51c","67c70d4d77acfc6ff7e608b8","passed","","46887","","","","","","","","","","","","","","{""checkTimeBlockNotice"":""At the beginning of each block.""}","","","","","","","","","","[0]","","","",""
"","","","","","survey-multi-choice","44","915799","0.0-11.1-1.1-5.1","5bad8fc39c0cc900017a6a28","6796e1c0ff24ca17c453c51c","67c70d4d77acfc6ff7e608b8","passed","","57167","","","","","","","","","","","","","","{""checkTimeBlockSameness"":""Yes, the time limit is the same for all trials within a block.""}","","","","","","","","","","[0]","","","",""
"","","","","","survey-multi-choice","45","1045967","0.0-11.1-1.1-6.1","5bad8fc39c0cc900017a6a28","6796e1c0ff24ca17c453c51c","67c70d4d77acfc6ff7e608b8","passed","","130167","","","","","","","","","","","","","","{""checkTrianglePrecision"":""No. The proposed purple triangle is not in the correct position because it doesn't match the location of the white triangle exactly.""}","","","","","","","","","","[0]","","","",""
"","","","","","instructions","46","1099903","0.0-12.0","5bad8fc39c0cc900017a6a28","6796e1c0ff24ca17c453c51c","67c70d4d77acfc6ff7e608b8","passed","[{""page_index"":0,""viewing_time"":33215},{""page_index"":1,""viewing_time"":6264},{""page_index"":2,""viewing_time"":7432},{""page_index"":3,""viewing_time"":7024}]","53935","","","","","","","","","","","","","","","","","","","","","","","","","","","",""
"","","","","","instructions","47","1121063","0.0-13.0-0.0","5bad8fc39c0cc900017a6a28","6796e1c0ff24ca17c453c51c","67c70d4d77acfc6ff7e608b8","passed","[{""page_index"":0,""viewing_time"":21159}]","21160","","","","","","","","","","","","","","","","","","","","","","","","","","","",""
"","","","","","html-keyboard-response","48","1125566","0.0-13.0-1.0","5bad8fc39c0cc900017a6a28","6796e1c0ff24ca17c453c51c","67c70d4d77acfc6ff7e608b8","passed","","4503","","","","","","","","","","","","","<p><span style=""font-size:40px;"">Practice BLOCK 1</span></p><p><span style=""font-size:25px;"">You have <b style=""color: #FF644F;""><strong>3 second(s)</strong></b> to respond to the following trials.</span><br></p><p id=""blinking-text"" style=""font-weight; animation: blink 2s infinite;"">Press Space to continue</p><style>
                    @keyframes blink {
                        50% {
                            opacity: 0;
                        }
                    }
                </style>"," ","","","","","","","","","","","","","",""
"","","","","","html-keyboard-response","49","1127143","0.0-13.0-2.0-0.0","5bad8fc39c0cc900017a6a28","6796e1c0ff24ca17c453c51c","67c70d4d77acfc6ff7e608b8","passed","","","","","","","","","","","","","","","","","ballFalling_prac","660","610","263","4","fallScene","false","","","","","","",""
"","","","","","html-keyboard-response","50","1130159","0.0-13.0-2.0-1.0","5bad8fc39c0cc900017a6a28","6796e1c0ff24ca17c453c51c","67c70d4d77acfc6ff7e608b8","passed","","886","","","","","","","","","","","","","","f","yesOrNo_prac","","","","4","","","gt","3000","","","","",""
"","","","","","html-keyboard-response","51","1131710","0.0-13.0-2.0-0.1","5bad8fc39c0cc900017a6a28","6796e1c0ff24ca17c453c51c","67c70d4d77acfc6ff7e608b8","passed","","","","","","","","","","","","","","","","","ballFalling_prac","584","536","296","1","fallScene","true","","","","","","",""
"","","","","","html-keyboard-response","52","1134714","0.0-13.0-2.0-1.1","5bad8fc39c0cc900017a6a28","6796e1c0ff24ca17c453c51c","67c70d4d77acfc6ff7e608b8","passed","","1829","","","","","","","","","","","","","","f","yesOrNo_prac","","","","1","","","close gt","3000","","","","",""
"","","","","","html-keyboard-response","53","1136278","0.0-13.0-2.0-0.2","5bad8fc39c0cc900017a6a28","6796e1c0ff24ca17c453c51c","67c70d4d77acfc6ff7e608b8","passed","","","","","","","","","","","","","","","","","ballFalling_prac","416","464","296","1","fallScene","false","","","","","","",""
"","","","","","html-keyboard-response","54","1139285","0.0-13.0-2.0-1.2","5bad8fc39c0cc900017a6a28","6796e1c0ff24ca17c453c51c","67c70d4d77acfc6ff7e608b8","passed","","1940","","","","","","","","","","","","","","j","yesOrNo_prac","","","","1","","","far gt","3000","","","","",""
"","","","","","html-keyboard-response","55","1142158","0.0-13.0-3.0","5bad8fc39c0cc900017a6a28","6796e1c0ff24ca17c453c51c","67c70d4d77acfc6ff7e608b8","passed","","2871","","","","","","","","","","","","","<p><span style=""font-size:40px;"">Practice BLOCK 2</span></p><p><span style=""font-size:25px;"">You have <b style=""color: #FF644F;""><strong>0.7 second(s)</strong></b> to respond to the following trials.</span><br></p><p id=""blinking-text"" style=""font-weight; animation: blink 2s infinite;"">Press Space to continue</p><style>
                    @keyframes blink {
                        50% {
                            opacity: 0;
                        }
                    }
                </style>"," ","","","","","","","","","","","","","",""
"","","","","","html-keyboard-response","56","1143710","0.0-13.0-4.0-0.0","5bad8fc39c0cc900017a6a28","6796e1c0ff24ca17c453c51c","67c70d4d77acfc6ff7e608b8","passed","","","","","","","","","","","","","","","","","ballFalling_prac","441","500","317","6","fallScene","true","","","","","","",""
"","","","","","html-keyboard-response","57","1144425","0.0-13.0-4.0-1.0","5bad8fc39c0cc900017a6a28","6796e1c0ff24ca17c453c51c","67c70d4d77acfc6ff7e608b8","passed","","null","","","","","","","","","","","","","","null","yesOrNo_prac","","","","6","","","gt","700","","","","",""
"","","","","","html-keyboard-response","58","1146526","0.0-13.0-4.0-0.1","5bad8fc39c0cc900017a6a28","6796e1c0ff24ca17c453c51c","67c70d4d77acfc6ff7e608b8","passed","","","","","","","","","","","","","","","","","ballFalling_prac","340","334","350","3","fallScene","true","","","","","","",""
"","","","","","html-keyboard-response","59","1147232","0.0-13.0-4.0-1.1","5bad8fc39c0cc900017a6a28","6796e1c0ff24ca17c453c51c","67c70d4d77acfc6ff7e608b8","passed","","331","","","","","","","","","","","","","","f","yesOrNo_prac","","","","3","","","close gt","700","","","","",""
"","","","","","html-keyboard-response","60","1148810","0.0-13.0-4.0-0.2","5bad8fc39c0cc900017a6a28","6796e1c0ff24ca17c453c51c","67c70d4d77acfc6ff7e608b8","passed","","","","","","","","","","","","","","","","","ballFalling_prac","660","610","263","4","fallScene","false","","","","","","",""
"","","","","","html-keyboard-response","61","1149525","0.0-13.0-4.0-1.2","5bad8fc39c0cc900017a6a28","6796e1c0ff24ca17c453c51c","67c70d4d77acfc6ff7e608b8","passed","","343","","","","","","","","","","","","","","j","yesOrNo_prac","","","","4","","","far gt","700","","","","",""
"","","","","","instructions","62","1162423","0.0-13.0-5.0","5bad8fc39c0cc900017a6a28","6796e1c0ff24ca17c453c51c","67c70d4d77acfc6ff7e608b8","passed","[{""page_index"":0,""viewing_time"":12897}]","12897","","","","","","","","","","","","","","","","","","","","","","","","","","","",""
"","","","","","html-keyboard-response","63","1164197","0.0-13.0-6.0","5bad8fc39c0cc900017a6a28","6796e1c0ff24ca17c453c51c","67c70d4d77acfc6ff7e608b8","passed","","1774","","","","","","","","","","","","","<p><span style=""font-size:40px;"">Practice Test BLOCK 1</span></p><p><span style=""font-size:25px;"">You have <b style=""color: #FF644F;""><strong>0.7 second(s)</strong></b> to respond to the following trials.</span><br></p><p id=""blinking-text"" style=""font-weight; animation: blink 2s infinite;"">Press Space to continue</p><style>
                    @keyframes blink {
                        50% {
                            opacity: 0;
                        }
                    }
                </style>"," ","","","","","","","","","","","","","",""
"","","","","","html-keyboard-response","64","1165776","0.0-13.0-7.0-0.0","5bad8fc39c0cc900017a6a28","6796e1c0ff24ca17c453c51c","67c70d4d77acfc6ff7e608b8","passed","","","","","","","","","","","","","","","","","ballFalling_prac","340","390","263","4","fallScene","true","","","","","","",""
"","","","","","html-keyboard-response","65","1166485","0.0-13.0-7.0-1.0","5bad8fc39c0cc900017a6a28","6796e1c0ff24ca17c453c51c","67c70d4d77acfc6ff7e608b8","passed","","250","","","","","","","","","","","","","","j","yesOrNo_prac","","","","4","","","far gt","700","","","","",""
"","","","","","html-keyboard-response","66","1168066","0.0-13.0-7.0-0.1","5bad8fc39c0cc900017a6a28","6796e1c0ff24ca17c453c51c","67c70d4d77acfc6ff7e608b8","passed","","","","","","","","","","","","","","","","","ballFalling_prac","559","586","302","5","fallScene","false","","","","","","",""
"","","","","","html-keyboard-response","67","1168775","0.0-13.0-7.0-1.1","5bad8fc39c0cc900017a6a28","6796e1c0ff24ca17c453c51c","67c70d4d77acfc6ff7e608b8","passed","","522","","","","","","","","","","","","","","j","yesOrNo_prac","","","","5","","","gt","700","","","","",""
"","","","","","html-keyboard-response","68","1170326","0.0-13.0-7.0-0.2","5bad8fc39c0cc900017a6a28","6796e1c0ff24ca17c453c51c","67c70d4d77acfc6ff7e608b8","passed","","","","","","","","","","","","","","","","","ballFalling_prac","441","500","317","6","fallScene","true","","","","","","",""
"","","","","","html-keyboard-response","69","1171032","0.0-13.0-7.0-1.2","5bad8fc39c0cc900017a6a28","6796e1c0ff24ca17c453c51c","67c70d4d77acfc6ff7e608b8","passed","","483","","","","","","","","","","","","","","f","yesOrNo_prac","","","","6","","","close gt","700","","","","",""
"","","","","","html-keyboard-response","70","1172686","0.0-13.0-8.0","5bad8fc39c0cc900017a6a28","6796e1c0ff24ca17c453c51c","67c70d4d77acfc6ff7e608b8","passed","","1652","","","","","","","","","","","","","<p><span style=""font-size:40px;"">Practice Test BLOCK 2</span></p><p><span style=""font-size:25px;"">You have <b style=""color: #FF644F;""><strong>3 second(s)</strong></b> to respond to the following trials.</span><br></p><p id=""blinking-text"" style=""font-weight; animation: blink 2s infinite;"">Press Space to continue</p><style>
                    @keyframes blink {
                        50% {
                            opacity: 0;
                        }
                    }
                </style>"," ","","","","","","","","","","","","","",""
"","","","","","html-keyboard-response","71","1174259","0.0-13.0-9.0-0.0","5bad8fc39c0cc900017a6a28","6796e1c0ff24ca17c453c51c","67c70d4d77acfc6ff7e608b8","passed","","","","","","","","","","","","","","","","","ballFalling_prac","416","365","249","2","fallScene","false","","","","","","",""
"","","","","","html-keyboard-response","72","1177261","0.0-13.0-9.0-1.0","5bad8fc39c0cc900017a6a28","6796e1c0ff24ca17c453c51c","67c70d4d77acfc6ff7e608b8","passed","","352","","","","","","","","","","","","","","j","yesOrNo_prac","","","","2","","","gt","3000","","","","",""
"","","","","","html-keyboard-response","73","1178842","0.0-13.0-9.0-0.1","5bad8fc39c0cc900017a6a28","6796e1c0ff24ca17c453c51c","67c70d4d77acfc6ff7e608b8","passed","","","","","","","","","","","","","","","","","ballFalling_prac","340","390","263","4","fallScene","true","","","","","","",""
"","","","","","html-keyboard-response","74","1181844","0.0-13.0-9.0-1.1","5bad8fc39c0cc900017a6a28","6796e1c0ff24ca17c453c51c","67c70d4d77acfc6ff7e608b8","passed","","1082","","","","","","","","","","","","","","j","yesOrNo_prac","","","","4","","","close gt","3000","","","","",""
"","","","","","html-keyboard-response","75","1183427","0.0-13.0-9.0-0.2","5bad8fc39c0cc900017a6a28","6796e1c0ff24ca17c453c51c","67c70d4d77acfc6ff7e608b8","passed","","","","","","","","","","","","","","","","","ballFalling_prac","559","586","302","5","fallScene","false","","","","","","",""
"","","","","","html-keyboard-response","76","1186440","0.0-13.0-9.0-1.2","5bad8fc39c0cc900017a6a28","6796e1c0ff24ca17c453c51c","67c70d4d77acfc6ff7e608b8","passed","","504","","","","","","","","","","","","","","f","yesOrNo_prac","","","","5","","","far gt","3000","","","","",""
"","","","","","instructions","77","1336791","0.0-14.0","5bad8fc39c0cc900017a6a28","6796e1c0ff24ca17c453c51c","67c70d4d77acfc6ff7e608b8","passed","[{""page_index"":0,""viewing_time"":150350}]","150350","","","","","","","","","","","","","","","","","","","","","","","","","","","",""
"","","","","","html-keyboard-response","78","1338813","0.0-15.0","5bad8fc39c0cc900017a6a28","6796e1c0ff24ca17c453c51c","67c70d4d77acfc6ff7e608b8","passed","","2021","","","","","","","","","","","","","<p><span style=""font-size:40px;"">BLOCK 1</span></p><p><span style=""font-size:25px;"">You have <b style=""color: #FF644F;""><strong>3 second(s)</strong></b> to respond to the following trials.</span><br></p><p></p> <!-- Blank line -->
                <p id=""blinking-text"" style=""font-weight; animation: blink 2s infinite;"">Press Space to continue</p>
                <style>
                    @keyframes blink {
                        50% {
                            opacity: 0;
                        }
                    }
                </style></p>"," ","","","","","","","","","","","","","",""
"","","","","","html-keyboard-response","79","1340378","0.0-16.0-0.0","5bad8fc39c0cc900017a6a28","6796e1c0ff24ca17c453c51c","67c70d4d77acfc6ff7e608b8","passed","","","","","","","","","","","","","","","","","ballFalling","322.3","379.3711431702997","245.25","1","fallScene","false","","","","","1","",""
"","","","","","html-keyboard-response","80","1343393","0.0-16.0-1.0","5bad8fc39c0cc900017a6a28","6796e1c0ff24ca17c453c51c","67c70d4d77acfc6ff7e608b8","passed","","1589","","","","","","","","","","","","","","f","yesOrNo","","","","1","","","gt","3000","","","1","379.3711431702997","245.25"
"","","","","","html-keyboard-response","81","1344950","0.0-16.0-0.1","5bad8fc39c0cc900017a6a28","6796e1c0ff24ca17c453c51c","67c70d4d77acfc6ff7e608b8","passed","","","","","","","","","","","","","","","","","ballFalling","604.4000000000001","575.4211431702997","266.76","12","fallScene","false","","","","","2","",""
"","","","","","html-keyboard-response","82","1347952","0.0-16.0-1.1","5bad8fc39c0cc900017a6a28","6796e1c0ff24ca17c453c51c","67c70d4d77acfc6ff7e608b8","passed","","1038","","","","","","","","","","","","","","f","yesOrNo","","","","12","","","lp","3000","","","2","603.4000000000001","151"
"","","","","","html-keyboard-response","83","1349445","0.0-16.0-0.2","5bad8fc39c0cc900017a6a28","6796e1c0ff24ca17c453c51c","67c70d4d77acfc6ff7e608b8","passed","","","","","","","","","","","","","","","","","ballFalling","604.4000000000001","667.6211431702998","201.78","9","fallScene","true","","","","","3","",""
"","","","","","html-keyboard-response","84","1352458","0.0-16.0-1.2","5bad8fc39c0cc900017a6a28","6796e1c0ff24ca17c453c51c","67c70d4d77acfc6ff7e608b8","passed","","524","","","","","","","","","","","","","","j","yesOrNo","","","","9","","","gt","3000","","","3","667.6211431702998","201.78"
"","","","","","html-keyboard-response","85","1354461","0.0-16.0-0.3","5bad8fc39c0cc900017a6a28","6796e1c0ff24ca17c453c51c","67c70d4d77acfc6ff7e608b8","passed","","","","","","","","","","","","","","","","","ballFalling","604.4000000000001","596.8711431702998","394.5","10","fallScene","false","","","","","4","",""
"","","","","","html-keyboard-response","86","1357468","0.0-16.0-1.3","5bad8fc39c0cc900017a6a28","6796e1c0ff24ca17c453c51c","67c70d4d77acfc6ff7e608b8","passed","","975","","","","","","","","","","","","","","j","yesOrNo","","","","10","","","gt","3000","","","4","596.8711431702998","394.5"
"","","","","","html-keyboard-response","87","1358960","0.0-16.0-0.4","5bad8fc39c0cc900017a6a28","6796e1c0ff24ca17c453c51c","67c70d4d77acfc6ff7e608b8","passed","","","","","","","","","","","","","","","","","ballFalling","604.4000000000001","667.6211431702998","201.78","9","fallScene","false","","","","","5","",""
"","","","","","html-keyboard-response","88","1361976","0.0-16.0-1.4","5bad8fc39c0cc900017a6a28","6796e1c0ff24ca17c453c51c","67c70d4d77acfc6ff7e608b8","passed","","1474","","","","","","","","","","","","","","j","yesOrNo","","","","9","","","mid","3000","","","5","605.4000000000001","300"
"","","","","","html-keyboard-response","89","1363530","0.0-16.0-0.5","5bad8fc39c0cc900017a6a28","6796e1c0ff24ca17c453c51c","67c70d4d77acfc6ff7e608b8","passed","","","","","","","","","","","","","","","","","ballFalling","500","453.67114317029973","210.33","5","fallScene","true","","","","","6","",""
"","","","","","html-keyboard-response","90","1366543","0.0-16.0-1.5","5bad8fc39c0cc900017a6a28","6796e1c0ff24ca17c453c51c","67c70d4d77acfc6ff7e608b8","passed","","2048","","","","","","","","","","","","","","f","yesOrNo","","","","5","","","mid","3000","","","6","499","300"
"","","","","","html-keyboard-response","91","1368095","0.0-16.0-0.6","5bad8fc39c0cc900017a6a28","6796e1c0ff24ca17c453c51c","67c70d4d77acfc6ff7e608b8","passed","","","","","","","","","","","","","","","","","ballFalling","322.3","296.07114317029976","371.46","3","fallScene","false","","","","","7","",""
"","","","","","html-keyboard-response","92","1371100","0.0-16.0-1.6","5bad8fc39c0cc900017a6a28","6796e1c0ff24ca17c453c51c","67c70d4d77acfc6ff7e608b8","passed","","1451","","","","","","","","","","","","","","j","yesOrNo","","","","3","","","lp","3000","","","7","321.3","287.3327096511259"
"","","","","","html-keyboard-response","93","1372672","0.0-16.0-0.7","5bad8fc39c0cc900017a6a28","6796e1c0ff24ca17c453c51c","67c70d4d77acfc6ff7e608b8","passed","","","","","","","","","","","","","","","","","ballFalling","322.3","379.3711431702997","245.25","1","fallScene","false","","","","","8","",""
"","","","","","html-keyboard-response","94","1375677","0.0-16.0-1.7","5bad8fc39c0cc900017a6a28","6796e1c0ff24ca17c453c51c","67c70d4d77acfc6ff7e608b8","passed","","916","","","","","","","","","","","","","","f","yesOrNo","","","","1","","","lp","3000","","","8","323.3","217.74551669457017"
"","","","","","html-keyboard-response","95","1377228","0.0-16.0-0.8","5bad8fc39c0cc900017a6a28","6796e1c0ff24ca17c453c51c","67c70d4d77acfc6ff7e608b8","passed","","","","","","","","","","","","","","","","","ballFalling","604.4000000000001","650.0211431702996","404.58000000000004","11","fallScene","false","","","","","9","",""
"","","","","","html-keyboard-response","96","1380243","0.0-16.0-1.8","5bad8fc39c0cc900017a6a28","6796e1c0ff24ca17c453c51c","67c70d4d77acfc6ff7e608b8","passed","","2646","","","","","","","","","","","","","","f","yesOrNo","","","","11","","","lp","3000","","","9","605.4000000000001","372.6340973215488"
"","","","","","html-keyboard-response","97","1382028","0.0-16.0-0.9","5bad8fc39c0cc900017a6a28","6796e1c0ff24ca17c453c51c","67c70d4d77acfc6ff7e608b8","passed","","","","","","","","","","","","","","","","","ballFalling","322.3","308.07114317029976","253.89","2","fallScene","false","","","","","10","",""
"","","","","","html-keyboard-response","98","1385039","0.0-16.0-1.9","5bad8fc39c0cc900017a6a28","6796e1c0ff24ca17c453c51c","67c70d4d77acfc6ff7e608b8","passed","","2125","","","","","","","","","","","","","","j","yesOrNo","","","","2","","","gt","3000","","","10","308.07114317029976","253.89"
"","","","","","html-keyboard-response","99","1386606","0.0-16.0-0.10","5bad8fc39c0cc900017a6a28","6796e1c0ff24ca17c453c51c","67c70d4d77acfc6ff7e608b8","passed","","","","","","","","","","","","","","","","","ballFalling","322.3","356.42114317029973","357.87","4","fallScene","true","","","","","11","",""
"","","","","","html-keyboard-response","100","1389610","0.0-16.0-1.10","5bad8fc39c0cc900017a6a28","6796e1c0ff24ca17c453c51c","67c70d4d77acfc6ff7e608b8","passed","","965","","","","","","","","","","","","","","j","yesOrNo","","","","4","","","gt","3000","","","11","356.42114317029973","357.87"
"","","","","","html-keyboard-response","101","1391162","0.0-16.0-0.11","5bad8fc39c0cc900017a6a28","6796e1c0ff24ca17c453c51c","67c70d4d77acfc6ff7e608b8","passed","","","","","","","","","","","","","","","","","ballFalling","500","453.67114317029973","210.33","5","fallScene","false","","","","","12","",""
"","","","","","html-keyboard-response","102","1394177","0.0-16.0-1.11","5bad8fc39c0cc900017a6a28","6796e1c0ff24ca17c453c51c","67c70d4d77acfc6ff7e608b8","passed","","1606","","","","","","","","","","","","","","j","yesOrNo","","","","5","","","gt","3000","","","12","453.6711431702998","210.33"
"","","","","","html-keyboard-response","103","1395729","0.0-16.0-0.12","5bad8fc39c0cc900017a6a28","6796e1c0ff24ca17c453c51c","67c70d4d77acfc6ff7e608b8","passed","","","","","","","","","","","","","","","","","ballFalling","322.3","379.3711431702997","245.25","1","fallScene","true","","","","","13","",""
"","","","","","html-keyboard-response","104","1398740","0.0-16.0-1.12","5bad8fc39c0cc900017a6a28","6796e1c0ff24ca17c453c51c","67c70d4d77acfc6ff7e608b8","passed","","907","","","","","","","","","","","","","","j","yesOrNo","","","","1","","","gt","3000","","","13","379.3711431702997","245.25"
"","","","","","html-keyboard-response","105","1400295","0.0-16.0-0.13","5bad8fc39c0cc900017a6a28","6796e1c0ff24ca17c453c51c","67c70d4d77acfc6ff7e608b8","passed","","","","","","","","","","","","","","","","","ballFalling","500","453.67114317029973","210.33","5","fallScene","true","","","","","14","",""
"","","","","","html-keyboard-response","106","1403300","0.0-16.0-1.13","5bad8fc39c0cc900017a6a28","6796e1c0ff24ca17c453c51c","67c70d4d77acfc6ff7e608b8","passed","","802","","","","","","","","","","","","","","f","yesOrNo","","","","5","","","lp","3000","","","14","499","151"
"","","","","","html-keyboard-response","107","1404861","0.0-16.0-0.14","5bad8fc39c0cc900017a6a28","6796e1c0ff24ca17c453c51c","67c70d4d77acfc6ff7e608b8","passed","","","","","","","","","","","","","","","","","ballFalling","322.3","356.42114317029973","357.87","4","fallScene","false","","","","","15","",""
"","","","","","html-keyboard-response","108","1407865","0.0-16.0-1.14","5bad8fc39c0cc900017a6a28","6796e1c0ff24ca17c453c51c","67c70d4d77acfc6ff7e608b8","passed","","903","","","","","","","","","","","","","","j","yesOrNo","","","","4","","","gt","3000","","","15","356.42114317029973","357.87"
"","","","","","html-keyboard-response","109","1409362","0.0-16.0-0.15","5bad8fc39c0cc900017a6a28","6796e1c0ff24ca17c453c51c","67c70d4d77acfc6ff7e608b8","passed","","","","","","","","","","","","","","","","","ballFalling","604.4000000000001","667.6211431702998","201.78","9","fallScene","false","","","","","16","",""
"","","","","","html-keyboard-response","110","1412370","0.0-16.0-1.15","5bad8fc39c0cc900017a6a28","6796e1c0ff24ca17c453c51c","67c70d4d77acfc6ff7e608b8","passed","","898","","","","","","","","","","","","","","f","yesOrNo","","","","9","","","lp","3000","","","16","605.4000000000001","151"
"","","","","","html-keyboard-response","111","1413945","0.0-16.0-0.16","5bad8fc39c0cc900017a6a28","6796e1c0ff24ca17c453c51c","67c70d4d77acfc6ff7e608b8","passed","","","","","","","","","","","","","","","","","ballFalling","500","553.4711431702997","282.51","7","fallScene","false","","","","","17","",""
"","","","","","html-keyboard-response","112","1416961","0.0-16.0-1.16","5bad8fc39c0cc900017a6a28","6796e1c0ff24ca17c453c51c","67c70d4d77acfc6ff7e608b8","passed","","1816","","","","","","","","","","","","","","j","yesOrNo","","","","7","","","lp","3000","","","17","501","227.2843295913261"
"","","","","","html-keyboard-response","113","1418612","0.0-16.0-0.17","5bad8fc39c0cc900017a6a28","6796e1c0ff24ca17c453c51c","67c70d4d77acfc6ff7e608b8","passed","","","","","","","","","","","","","","","","","ballFalling","500","479.92114317029973","330.87","6","fallScene","false","","","","","18","",""
"","","","","","html-keyboard-response","114","1421620","0.0-16.0-1.17","5bad8fc39c0cc900017a6a28","6796e1c0ff24ca17c453c51c","67c70d4d77acfc6ff7e608b8","passed","","909","","","","","","","","","","","","","","j","yesOrNo","","","","6","","","mid","3000","","","18","499","300"
"","","","","","html-keyboard-response","115","1423112","0.0-16.0-0.18","5bad8fc39c0cc900017a6a28","6796e1c0ff24ca17c453c51c","67c70d4d77acfc6ff7e608b8","passed","","","","","","","","","","","","","","","","","ballFalling","604.4000000000001","667.6211431702998","201.78","9","fallScene","false","","","","","19","",""
"","","","","","html-keyboard-response","116","1426118","0.0-16.0-1.18","5bad8fc39c0cc900017a6a28","6796e1c0ff24ca17c453c51c","67c70d4d77acfc6ff7e608b8","passed","","1139","","","","","","","","","","","","","","j","yesOrNo","","","","9","","","gt","3000","","","19","667.6211431702998","201.78"
"","","","","","html-keyboard-response","117","1427679","0.0-16.0-0.19","5bad8fc39c0cc900017a6a28","6796e1c0ff24ca17c453c51c","67c70d4d77acfc6ff7e608b8","passed","","","","","","","","","","","","","","","","","ballFalling","604.4000000000001","575.4211431702997","266.76","12","fallScene","true","","","","","20","",""
"","","","","","html-keyboard-response","118","1430686","0.0-16.0-1.19","5bad8fc39c0cc900017a6a28","6796e1c0ff24ca17c453c51c","67c70d4d77acfc6ff7e608b8","passed","","1052","","","","","","","","","","","","","","j","yesOrNo","","","","12","","","gt","3000","","","20","575.4211431702997","266.76"
"","","","","","html-keyboard-response","119","1432696","0.0-16.0-0.20","5bad8fc39c0cc900017a6a28","6796e1c0ff24ca17c453c51c","67c70d4d77acfc6ff7e608b8","passed","","","","","","","","","","","","","","","","","ballFalling","604.4000000000001","596.8711431702998","394.5","10","fallScene","false","","","","","21","",""
"","","","","","html-keyboard-response","120","1435709","0.0-16.0-1.20","5bad8fc39c0cc900017a6a28","6796e1c0ff24ca17c453c51c","67c70d4d77acfc6ff7e608b8","passed","","1018","","","","","","","","","","","","","","f","yesOrNo","","","","10","","","mid","3000","","","21","536.4288568297004","300"
"","","","","","html-keyboard-response","121","1437261","0.0-16.0-0.21","5bad8fc39c0cc900017a6a28","6796e1c0ff24ca17c453c51c","67c70d4d77acfc6ff7e608b8","passed","","","","","","","","","","","","","","","","","ballFalling","322.3","296.07114317029976","371.46","3","fallScene","true","","","","","22","",""
"","","","","","html-keyboard-response","122","1440275","0.0-16.0-1.21","5bad8fc39c0cc900017a6a28","6796e1c0ff24ca17c453c51c","67c70d4d77acfc6ff7e608b8","passed","","2045","","","","","","","","","","","","","","j","yesOrNo","","","","3","","","lp","3000","","","22","321.3","287.3327096511259"
"","","","","","html-keyboard-response","123","1442062","0.0-16.0-0.22","5bad8fc39c0cc900017a6a28","6796e1c0ff24ca17c453c51c","67c70d4d77acfc6ff7e608b8","passed","","","","","","","","","","","","","","","","","ballFalling","322.3","308.07114317029976","253.89","2","fallScene","false","","","","","23","",""
"","","","","","html-keyboard-response","124","1445072","0.0-16.0-1.22","5bad8fc39c0cc900017a6a28","6796e1c0ff24ca17c453c51c","67c70d4d77acfc6ff7e608b8","passed","","2052","","","","","","","","","","","","","","j","yesOrNo","","","","2","","","lp","3000","","","23","321.3","151"
"","","","","","html-keyboard-response","125","1446562","0.0-16.0-0.23","5bad8fc39c0cc900017a6a28","6796e1c0ff24ca17c453c51c","67c70d4d77acfc6ff7e608b8","passed","","","","","","","","","","","","","","","","","ballFalling","604.4000000000001","667.6211431702998","201.78","9","fallScene","false","","","","","24","",""
"","","","","","html-keyboard-response","126","1449564","0.0-16.0-1.23","5bad8fc39c0cc900017a6a28","6796e1c0ff24ca17c453c51c","67c70d4d77acfc6ff7e608b8","passed","","898","","","","","","","","","","","","","","f","yesOrNo","","","","9","","","lp","3000","","","24","605.4000000000001","151"
"","","","","","html-keyboard-response","127","1453333","0.0-17.0","5bad8fc39c0cc900017a6a28","6796e1c0ff24ca17c453c51c","67c70d4d77acfc6ff7e608b8","passed","","3767","","","","","","","","","","","","","<p><span style=""font-size:40px;"">BLOCK 2</span></p><p><span style=""font-size:25px;"">You have <b style=""color: #FF644F;""><strong>0.7 second(s)</strong></b> to respond to the following trials.</span><br></p><p></p> <!-- Blank line -->
                <p id=""blinking-text"" style=""font-weight; animation: blink 2s infinite;"">Press Space to continue</p>
                <style>
                    @keyframes blink {
                        50% {
                            opacity: 0;
                        }
                    }
                </style></p>"," ","","","","","","","","","","","","","",""
"","","","","","html-keyboard-response","128","1455345","0.0-18.0-0.0","5bad8fc39c0cc900017a6a28","6796e1c0ff24ca17c453c51c","67c70d4d77acfc6ff7e608b8","passed","","","","","","","","","","","","","","","","","ballFalling","500","510.8711431702997","369.03","8","fallScene","false","","","","","25","",""
"","","","","","html-keyboard-response","129","1456051","0.0-18.0-1.0","5bad8fc39c0cc900017a6a28","6796e1c0ff24ca17c453c51c","67c70d4d77acfc6ff7e608b8","passed","","552","","","","","","","","","","","","","","f","yesOrNo","","","","8","","","mid","700","","","25","501","300"
"","","","","","html-keyboard-response","130","1458062","0.0-18.0-0.1","5bad8fc39c0cc900017a6a28","6796e1c0ff24ca17c453c51c","67c70d4d77acfc6ff7e608b8","passed","","","","","","","","","","","","","","","","","ballFalling","604.4000000000001","596.8711431702998","394.5","10","fallScene","false","","","","","26","",""
"","","","","","html-keyboard-response","131","1458769","0.0-18.0-1.1","5bad8fc39c0cc900017a6a28","6796e1c0ff24ca17c453c51c","67c70d4d77acfc6ff7e608b8","passed","","620","","","","","","","","","","","","","","f","yesOrNo","","","","10","","","lp","700","","","26","603.4000000000001","215.50214355555383"
"","","","","","html-keyboard-response","132","1460429","0.0-18.0-0.2","5bad8fc39c0cc900017a6a28","6796e1c0ff24ca17c453c51c","67c70d4d77acfc6ff7e608b8","passed","","","","","","","","","","","","","","","","","ballFalling","500","479.92114317029973","330.87","6","fallScene","true","","","","","27","",""
"","","","","","html-keyboard-response","133","1461144","0.0-18.0-1.2","5bad8fc39c0cc900017a6a28","6796e1c0ff24ca17c453c51c","67c70d4d77acfc6ff7e608b8","passed","","341","","","","","","","","","","","","","","j","yesOrNo","","","","6","","","mid","700","","","27","499","300"
"","","","","","html-keyboard-response","134","1462695","0.0-18.0-0.3","5bad8fc39c0cc900017a6a28","6796e1c0ff24ca17c453c51c","67c70d4d77acfc6ff7e608b8","passed","","","","","","","","","","","","","","","","","ballFalling","322.3","296.07114317029976","371.46","3","fallScene","true","","","","","28","",""
"","","","","","html-keyboard-response","135","1463399","0.0-18.0-1.3","5bad8fc39c0cc900017a6a28","6796e1c0ff24ca17c453c51c","67c70d4d77acfc6ff7e608b8","passed","","484","","","","","","","","","","","","","","j","yesOrNo","","","","3","","","mid","700","","","28","321.3","300"
"","","","","","html-keyboard-response","136","1464981","0.0-18.0-0.4","5bad8fc39c0cc900017a6a28","6796e1c0ff24ca17c453c51c","67c70d4d77acfc6ff7e608b8","passed","","","","","","","","","","","","","","","","","ballFalling","500","553.4711431702997","282.51","7","fallScene","false","","","","","29","",""
"","","","","","html-keyboard-response","137","1465694","0.0-18.0-1.4","5bad8fc39c0cc900017a6a28","6796e1c0ff24ca17c453c51c","67c70d4d77acfc6ff7e608b8","passed","","367","","","","","","","","","","","","","","j","yesOrNo","","","","7","","","mid","700","","","29","501","300"
"","","","","","html-keyboard-response","138","1467262","0.0-18.0-0.5","5bad8fc39c0cc900017a6a28","6796e1c0ff24ca17c453c51c","67c70d4d77acfc6ff7e608b8","passed","","","","","","","","","","","","","","","","","ballFalling","500","553.4711431702997","282.51","7","fallScene","false","","","","","30","",""
"","","","","","html-keyboard-response","139","1467973","0.0-18.0-1.5","5bad8fc39c0cc900017a6a28","6796e1c0ff24ca17c453c51c","67c70d4d77acfc6ff7e608b8","passed","","531","","","","","","","","","","","","","","f","yesOrNo","","","","7","","","gt","700","","","30","553.4711431702997","282.51"
"","","","","","html-keyboard-response","140","1469529","0.0-18.0-0.6","5bad8fc39c0cc900017a6a28","6796e1c0ff24ca17c453c51c","67c70d4d77acfc6ff7e608b8","passed","","","","","","","","","","","","","","","","","ballFalling","322.3","356.42114317029973","357.87","4","fallScene","true","","","","","31","",""
"","","","","","html-keyboard-response","141","1470240","0.0-18.0-1.6","5bad8fc39c0cc900017a6a28","6796e1c0ff24ca17c453c51c","67c70d4d77acfc6ff7e608b8","passed","","337","","","","","","","","","","","","","","j","yesOrNo","","","","4","","","mid","700","","","31","390.27114317029975","300"
"","","","","","html-keyboard-response","142","1471727","0.0-18.0-0.7","5bad8fc39c0cc900017a6a28","6796e1c0ff24ca17c453c51c","67c70d4d77acfc6ff7e608b8","passed","","","","","","","","","","","","","","","","","ballFalling","604.4000000000001","667.6211431702998","201.78","9","fallScene","false","","","","","32","",""
"","","","","","html-keyboard-response","143","1472429","0.0-18.0-1.7","5bad8fc39c0cc900017a6a28","6796e1c0ff24ca17c453c51c","67c70d4d77acfc6ff7e608b8","passed","","476","","","","","","","","","","","","","","j","yesOrNo","","","","9","","","gt","700","","","32","667.6211431702998","201.78"
"","","","","","html-keyboard-response","144","1473994","0.0-18.0-0.8","5bad8fc39c0cc900017a6a28","6796e1c0ff24ca17c453c51c","67c70d4d77acfc6ff7e608b8","passed","","","","","","","","","","","","","","","","","ballFalling","322.3","296.07114317029976","371.46","3","fallScene","false","","","","","33","",""
"","","","","","html-keyboard-response","145","1474695","0.0-18.0-1.8","5bad8fc39c0cc900017a6a28","6796e1c0ff24ca17c453c51c","67c70d4d77acfc6ff7e608b8","passed","","515","","","","","","","","","","","","","","f","yesOrNo","","","","3","","","gt","700","","","33","296.07114317029976","371.46"
"","","","","","html-keyboard-response","146","1476278","0.0-18.0-0.9","5bad8fc39c0cc900017a6a28","6796e1c0ff24ca17c453c51c","67c70d4d77acfc6ff7e608b8","passed","","","","","","","","","","","","","","","","","ballFalling","500","553.4711431702997","282.51","7","fallScene","false","","","","","34","",""
"","","","","","html-keyboard-response","147","1476984","0.0-18.0-1.9","5bad8fc39c0cc900017a6a28","6796e1c0ff24ca17c453c51c","67c70d4d77acfc6ff7e608b8","passed","","399","","","","","","","","","","","","","","j","yesOrNo","","","","7","","","lp","700","","","34","501","227.2843295913261"
"","","","","","html-keyboard-response","148","1478478","0.0-18.0-0.10","5bad8fc39c0cc900017a6a28","6796e1c0ff24ca17c453c51c","67c70d4d77acfc6ff7e608b8","passed","","","","","","","","","","","","","","","","","ballFalling","604.4000000000001","667.6211431702998","201.78","9","fallScene","false","","","","","35","",""
"","","","","","html-keyboard-response","149","1479180","0.0-18.0-1.10","5bad8fc39c0cc900017a6a28","6796e1c0ff24ca17c453c51c","67c70d4d77acfc6ff7e608b8","passed","","518","","","","","","","","","","","","","","f","yesOrNo","","","","9","","","lp","700","","","35","605.4000000000001","151"
"","","","","","html-keyboard-response","150","1480754","0.0-18.0-0.11","5bad8fc39c0cc900017a6a28","6796e1c0ff24ca17c453c51c","67c70d4d77acfc6ff7e608b8","passed","","","","","","","","","","","","","","","","","ballFalling","604.4000000000001","575.4211431702997","266.76","12","fallScene","true","","","","","36","",""
"","","","","","html-keyboard-response","151","1481460","0.0-18.0-1.11","5bad8fc39c0cc900017a6a28","6796e1c0ff24ca17c453c51c","67c70d4d77acfc6ff7e608b8","passed","","472","","","","","","","","","","","","","","f","yesOrNo","","","","12","","","mid","700","","","36","536.4288568297004","300"
"","","","","","html-keyboard-response","152","1482944","0.0-18.0-0.12","5bad8fc39c0cc900017a6a28","6796e1c0ff24ca17c453c51c","67c70d4d77acfc6ff7e608b8","passed","","","","","","","","","","","","","","","","","ballFalling","604.4000000000001","667.6211431702998","201.78","9","fallScene","true","","","","","37","",""
"","","","","","html-keyboard-response","153","1483653","0.0-18.0-1.12","5bad8fc39c0cc900017a6a28","6796e1c0ff24ca17c453c51c","67c70d4d77acfc6ff7e608b8","passed","","505","","","","","","","","","","","","","","j","yesOrNo","","","","9","","","gt","700","","","37","667.6211431702998","201.78"
"","","","","","html-keyboard-response","154","1485213","0.0-18.0-0.13","5bad8fc39c0cc900017a6a28","6796e1c0ff24ca17c453c51c","67c70d4d77acfc6ff7e608b8","passed","","","","","","","","","","","","","","","","","ballFalling","500","453.67114317029973","210.33","5","fallScene","false","","","","","38","",""
"","","","","","html-keyboard-response","155","1485921","0.0-18.0-1.13","5bad8fc39c0cc900017a6a28","6796e1c0ff24ca17c453c51c","67c70d4d77acfc6ff7e608b8","passed","","397","","","","","","","","","","","","","","j","yesOrNo","","","","5","","","lp","700","","","38","499","151"
"","","","","","html-keyboard-response","156","1487479","0.0-18.0-0.14","5bad8fc39c0cc900017a6a28","6796e1c0ff24ca17c453c51c","67c70d4d77acfc6ff7e608b8","passed","","","","","","","","","","","","","","","","","ballFalling","322.3","356.42114317029973","357.87","4","fallScene","true","","","","","39","",""
"","","","","","html-keyboard-response","157","1488185","0.0-18.0-1.14","5bad8fc39c0cc900017a6a28","6796e1c0ff24ca17c453c51c","67c70d4d77acfc6ff7e608b8","passed","","427","","","","","","","","","","","","","","j","yesOrNo","","","","4","","","lp","700","","","39","323.3","297.4070551689986"
"","","","","","html-keyboard-response","158","1489847","0.0-18.0-0.15","5bad8fc39c0cc900017a6a28","6796e1c0ff24ca17c453c51c","67c70d4d77acfc6ff7e608b8","passed","","","","","","","","","","","","","","","","","ballFalling","500","479.92114317029973","330.87","6","fallScene","true","","","","","40","",""
"","","","","","html-keyboard-response","159","1490560","0.0-18.0-1.15","5bad8fc39c0cc900017a6a28","6796e1c0ff24ca17c453c51c","67c70d4d77acfc6ff7e608b8","passed","","331","","","","","","","","","","","","","","f","yesOrNo","","","","6","","","mid","700","","","40","499","300"
"","","","","","html-keyboard-response","160","1492112","0.0-18.0-0.16","5bad8fc39c0cc900017a6a28","6796e1c0ff24ca17c453c51c","67c70d4d77acfc6ff7e608b8","passed","","","","","","","","","","","","","","","","","ballFalling","604.4000000000001","575.4211431702997","266.76","12","fallScene","true","","","","","41","",""
"","","","","","html-keyboard-response","161","1492823","0.0-18.0-1.16","5bad8fc39c0cc900017a6a28","6796e1c0ff24ca17c453c51c","67c70d4d77acfc6ff7e608b8","passed","","null","","","","","","","","","","","","","","null","yesOrNo","","","","12","","","lp","700","","","41","603.4000000000001","151"
"","","","","","html-keyboard-response","162","1494379","0.0-18.0-0.17","5bad8fc39c0cc900017a6a28","6796e1c0ff24ca17c453c51c","67c70d4d77acfc6ff7e608b8","passed","","","","","","","","","","","","","","","","","ballFalling","322.3","379.3711431702997","245.25","1","fallScene","true","","","","","42","",""
"","","","","","html-keyboard-response","163","1495087","0.0-18.0-1.17","5bad8fc39c0cc900017a6a28","6796e1c0ff24ca17c453c51c","67c70d4d77acfc6ff7e608b8","passed","","359","","","","","","","","","","","","","","j","yesOrNo","","","","1","","","gt","700","","","42","379.3711431702997","245.25"
"","","","","","html-keyboard-response","164","1496646","0.0-18.0-0.18","5bad8fc39c0cc900017a6a28","6796e1c0ff24ca17c453c51c","67c70d4d77acfc6ff7e608b8","passed","","","","","","","","","","","","","","","","","ballFalling","322.3","296.07114317029976","371.46","3","fallScene","true","","","","","43","",""
"","","","","","html-keyboard-response","165","1497353","0.0-18.0-1.18","5bad8fc39c0cc900017a6a28","6796e1c0ff24ca17c453c51c","67c70d4d77acfc6ff7e608b8","passed","","492","","","","","","","","","","","","","","j","yesOrNo","","","","3","","","lp","700","","","43","321.3","287.3327096511259"
"","","","","","html-keyboard-response","166","1498912","0.0-18.0-0.19","5bad8fc39c0cc900017a6a28","6796e1c0ff24ca17c453c51c","67c70d4d77acfc6ff7e608b8","passed","","","","","","","","","","","","","","","","","ballFalling","322.3","356.42114317029973","357.87","4","fallScene","true","","","","","44","",""
"","","","","","html-keyboard-response","167","1499623","0.0-18.0-1.19","5bad8fc39c0cc900017a6a28","6796e1c0ff24ca17c453c51c","67c70d4d77acfc6ff7e608b8","passed","","490","","","","","","","","","","","","","","j","yesOrNo","","","","4","","","gt","700","","","44","356.42114317029973","357.87"
"","","","","","html-keyboard-response","168","1501179","0.0-18.0-0.20","5bad8fc39c0cc900017a6a28","6796e1c0ff24ca17c453c51c","67c70d4d77acfc6ff7e608b8","passed","","","","","","","","","","","","","","","","","ballFalling","604.4000000000001","650.0211431702996","404.58000000000004","11","fallScene","false","","","","","45","",""
"","","","","","html-keyboard-response","169","1501891","0.0-18.0-1.20","5bad8fc39c0cc900017a6a28","6796e1c0ff24ca17c453c51c","67c70d4d77acfc6ff7e608b8","passed","","535","","","","","","","","","","","","","","f","yesOrNo","","","","11","","","mid","700","","","45","605.4000000000001","300"
"","","","","","html-keyboard-response","170","1503546","0.0-18.0-0.21","5bad8fc39c0cc900017a6a28","6796e1c0ff24ca17c453c51c","67c70d4d77acfc6ff7e608b8","passed","","","","","","","","","","","","","","","","","ballFalling","500","479.92114317029973","330.87","6","fallScene","false","","","","","46","",""
"","","","","","html-keyboard-response","171","1504256","0.0-18.0-1.21","5bad8fc39c0cc900017a6a28","6796e1c0ff24ca17c453c51c","67c70d4d77acfc6ff7e608b8","passed","","367","","","","","","","","","","","","","","j","yesOrNo","","","","6","","","lp","700","","","46","499","189.92909825697632"
"","","","","","html-keyboard-response","172","1505813","0.0-18.0-0.22","5bad8fc39c0cc900017a6a28","6796e1c0ff24ca17c453c51c","67c70d4d77acfc6ff7e608b8","passed","","","","","","","","","","","","","","","","","ballFalling","604.4000000000001","650.0211431702996","404.58000000000004","11","fallScene","true","","","","","47","",""
"","","","","","html-keyboard-response","173","1506521","0.0-18.0-1.22","5bad8fc39c0cc900017a6a28","6796e1c0ff24ca17c453c51c","67c70d4d77acfc6ff7e608b8","passed","","301","","","","","","","","","","","","","","j","yesOrNo","","","","11","","","gt","700","","","47","650.0211431702996","404.58"
"","","","","","html-keyboard-response","174","1508106","0.0-18.0-0.23","5bad8fc39c0cc900017a6a28","6796e1c0ff24ca17c453c51c","67c70d4d77acfc6ff7e608b8","passed","","","","","","","","","","","","","","","","","ballFalling","500","553.4711431702997","282.51","7","fallScene","false","","","","","48","",""
"","","","","","html-keyboard-response","175","1508811","0.0-18.0-1.23","5bad8fc39c0cc900017a6a28","6796e1c0ff24ca17c453c51c","67c70d4d77acfc6ff7e608b8","passed","","330","","","","","","","","","","","","","","f","yesOrNo","","","","7","","","lp","700","","","48","501","227.2843295913261"
"","","","","","html-keyboard-response","176","1510381","0.0-19.0","5bad8fc39c0cc900017a6a28","6796e1c0ff24ca17c453c51c","67c70d4d77acfc6ff7e608b8","passed","","1568","","","","","","","","","","","","","<p><span style=""font-size:40px;"">BLOCK 3</span></p><p><span style=""font-size:25px;"">You have <b style=""color: #FF644F;""><strong>3 second(s)</strong></b> to respond to the following trials.</span><br></p><p></p> <!-- Blank line -->
                <p id=""blinking-text"" style=""font-weight; animation: blink 2s infinite;"">Press Space to continue</p>
                <style>
                    @keyframes blink {
                        50% {
                            opacity: 0;
                        }
                    }
                </style></p>"," ","","","","","","","","","","","","","",""
"","","","","","html-keyboard-response","177","1511946","0.0-20.0-0.0","5bad8fc39c0cc900017a6a28","6796e1c0ff24ca17c453c51c","67c70d4d77acfc6ff7e608b8","passed","","","","","","","","","","","","","","","","","ballFalling","604.4000000000001","650.0211431702996","404.58000000000004","11","fallScene","true","","","","","49","",""
"","","","","","html-keyboard-response","178","1514957","0.0-20.0-1.0","5bad8fc39c0cc900017a6a28","6796e1c0ff24ca17c453c51c","67c70d4d77acfc6ff7e608b8","passed","","2144","","","","","","","","","","","","","","f","yesOrNo","","","","11","","","lp","3000","","","49","605.4000000000001","372.6340973215488"
"","","","","","html-keyboard-response","179","1516445","0.0-20.0-0.1","5bad8fc39c0cc900017a6a28","6796e1c0ff24ca17c453c51c","67c70d4d77acfc6ff7e608b8","passed","","","","","","","","","","","","","","","","","ballFalling","604.4000000000001","667.6211431702998","201.78","9","fallScene","false","","","","","50","",""
"","","","","","html-keyboard-response","180","1519460","0.0-20.0-1.1","5bad8fc39c0cc900017a6a28","6796e1c0ff24ca17c453c51c","67c70d4d77acfc6ff7e608b8","passed","","1391","","","","","","","","","","","","","","j","yesOrNo","","","","9","","","mid","3000","","","50","605.4000000000001","300"
"","","","","","html-keyboard-response","181","1521011","0.0-20.0-0.2","5bad8fc39c0cc900017a6a28","6796e1c0ff24ca17c453c51c","67c70d4d77acfc6ff7e608b8","passed","","","","","","","","","","","","","","","","","ballFalling","322.3","379.3711431702997","245.25","1","fallScene","false","","","","","51","",""
"","","","","","html-keyboard-response","182","1524015","0.0-20.0-1.2","5bad8fc39c0cc900017a6a28","6796e1c0ff24ca17c453c51c","67c70d4d77acfc6ff7e608b8","passed","","1206","","","","","","","","","","","","","","j","yesOrNo","","","","1","","","mid","3000","","","51","390.27114317029975","300"
"","","","","","html-keyboard-response","183","1525579","0.0-20.0-0.3","5bad8fc39c0cc900017a6a28","6796e1c0ff24ca17c453c51c","67c70d4d77acfc6ff7e608b8","passed","","","","","","","","","","","","","","","","","ballFalling","604.4000000000001","575.4211431702997","266.76","12","fallScene","false","","","","","52","",""
"","","","","","html-keyboard-response","184","1528584","0.0-20.0-1.3","5bad8fc39c0cc900017a6a28","6796e1c0ff24ca17c453c51c","67c70d4d77acfc6ff7e608b8","passed","","870","","","","","","","","","","","","","","f","yesOrNo","","","","12","","","lp","3000","","","52","603.4000000000001","151"
"","","","","","html-keyboard-response","185","1530146","0.0-20.0-0.4","5bad8fc39c0cc900017a6a28","6796e1c0ff24ca17c453c51c","67c70d4d77acfc6ff7e608b8","passed","","","","","","","","","","","","","","","","","ballFalling","322.3","356.42114317029973","357.87","4","fallScene","true","","","","","53","",""
"","","","","","html-keyboard-response","186","1533158","0.0-20.0-1.4","5bad8fc39c0cc900017a6a28","6796e1c0ff24ca17c453c51c","67c70d4d77acfc6ff7e608b8","passed","","840","","","","","","","","","","","","","","j","yesOrNo","","","","4","","","mid","3000","","","53","390.27114317029975","300"
"","","","","","html-keyboard-response","187","1535162","0.0-20.0-0.5","5bad8fc39c0cc900017a6a28","6796e1c0ff24ca17c453c51c","67c70d4d77acfc6ff7e608b8","passed","","","","","","","","","","","","","","","","","ballFalling","500","510.8711431702997","369.03","8","fallScene","false","","","","","54","",""
"","","","","","html-keyboard-response","188","1538165","0.0-20.0-1.5","5bad8fc39c0cc900017a6a28","6796e1c0ff24ca17c453c51c","67c70d4d77acfc6ff7e608b8","passed","","1305","","","","","","","","","","","","","","f","yesOrNo","","","","8","","","lp","3000","","","54","501","151"
"","","","","","html-keyboard-response","189","1539746","0.0-20.0-0.6","5bad8fc39c0cc900017a6a28","6796e1c0ff24ca17c453c51c","67c70d4d77acfc6ff7e608b8","passed","","","","","","","","","","","","","","","","","ballFalling","500","553.4711431702997","282.51","7","fallScene","true","","","","","55","",""
"","","","","","html-keyboard-response","190","1542761","0.0-20.0-1.6","5bad8fc39c0cc900017a6a28","6796e1c0ff24ca17c453c51c","67c70d4d77acfc6ff7e608b8","passed","","1065","","","","","","","","","","","","","","j","yesOrNo","","","","7","","","mid","3000","","","55","501","300"
"","","","","","html-keyboard-response","191","1544762","0.0-20.0-0.7","5bad8fc39c0cc900017a6a28","6796e1c0ff24ca17c453c51c","67c70d4d77acfc6ff7e608b8","passed","","","","","","","","","","","","","","","","","ballFalling","500","510.8711431702997","369.03","8","fallScene","true","","","","","56","",""
"","","","","","html-keyboard-response","192","1547763","0.0-20.0-1.7","5bad8fc39c0cc900017a6a28","6796e1c0ff24ca17c453c51c","67c70d4d77acfc6ff7e608b8","passed","","2962","","","","","","","","","","","","","","j","yesOrNo","","","","8","","","gt","3000","","","56","510.8711431702997","369.03"
"","","","","","html-keyboard-response","193","1549434","0.0-20.0-0.8","5bad8fc39c0cc900017a6a28","6796e1c0ff24ca17c453c51c","67c70d4d77acfc6ff7e608b8","passed","","","","","","","","","","","","","","","","","ballFalling","500","479.92114317029973","330.87","6","fallScene","true","","","","","57","",""
"","","","","","html-keyboard-response","194","1552437","0.0-20.0-1.8","5bad8fc39c0cc900017a6a28","6796e1c0ff24ca17c453c51c","67c70d4d77acfc6ff7e608b8","passed","","1530","","","","","","","","","","","","","","f","yesOrNo","","","","6","","","lp","3000","","","57","499","189.92909825697632"
"","","","","","html-keyboard-response","195","1553997","0.0-20.0-0.9","5bad8fc39c0cc900017a6a28","6796e1c0ff24ca17c453c51c","67c70d4d77acfc6ff7e608b8","passed","","","","","","","","","","","","","","","","","ballFalling","322.3","296.07114317029976","371.46","3","fallScene","false","","","","","58","",""
"","","","","","html-keyboard-response","196","1557002","0.0-20.0-1.9","5bad8fc39c0cc900017a6a28","6796e1c0ff24ca17c453c51c","67c70d4d77acfc6ff7e608b8","passed","","1117","","","","","","","","","","","","","","j","yesOrNo","","","","3","","","mid","3000","","","58","321.3","300"
"","","","","","html-keyboard-response","197","1558563","0.0-20.0-0.10","5bad8fc39c0cc900017a6a28","6796e1c0ff24ca17c453c51c","67c70d4d77acfc6ff7e608b8","passed","","","","","","","","","","","","","","","","","ballFalling","604.4000000000001","575.4211431702997","266.76","12","fallScene","false","","","","","59","",""
"","","","","","html-keyboard-response","198","1561575","0.0-20.0-1.10","5bad8fc39c0cc900017a6a28","6796e1c0ff24ca17c453c51c","67c70d4d77acfc6ff7e608b8","passed","","783","","","","","","","","","","","","","","j","yesOrNo","","","","12","","","mid","3000","","","59","536.4288568297004","300"
"","","","","","html-keyboard-response","199","1563129","0.0-20.0-0.11","5bad8fc39c0cc900017a6a28","6796e1c0ff24ca17c453c51c","67c70d4d77acfc6ff7e608b8","passed","","","","","","","","","","","","","","","","","ballFalling","322.3","379.3711431702997","245.25","1","fallScene","true","","","","","60","",""
"","","","","","html-keyboard-response","200","1566133","0.0-20.0-1.11","5bad8fc39c0cc900017a6a28","6796e1c0ff24ca17c453c51c","67c70d4d77acfc6ff7e608b8","passed","","1122","","","","","","","","","","","","","","j","yesOrNo","","","","1","","","lp","3000","","","60","323.3","217.74551669457017"
"","","","","","html-keyboard-response","201","1567929","0.0-20.0-0.12","5bad8fc39c0cc900017a6a28","6796e1c0ff24ca17c453c51c","67c70d4d77acfc6ff7e608b8","passed","","","","","","","","","","","","","","","","","ballFalling","322.3","308.07114317029976","253.89","2","fallScene","false","","","","","61","",""
"","","","","","html-keyboard-response","202","1570933","0.0-20.0-1.12","5bad8fc39c0cc900017a6a28","6796e1c0ff24ca17c453c51c","67c70d4d77acfc6ff7e608b8","passed","","961","","","","","","","","","","","","","","j","yesOrNo","","","","2","","","gt","3000","","","61","308.07114317029976","253.89"
"","","","","","html-keyboard-response","203","1572496","0.0-20.0-0.13","5bad8fc39c0cc900017a6a28","6796e1c0ff24ca17c453c51c","67c70d4d77acfc6ff7e608b8","passed","","","","","","","","","","","","","","","","","ballFalling","604.4000000000001","650.0211431702996","404.58000000000004","11","fallScene","true","","","","","62","",""
"","","","","","html-keyboard-response","204","1575501","0.0-20.0-1.13","5bad8fc39c0cc900017a6a28","6796e1c0ff24ca17c453c51c","67c70d4d77acfc6ff7e608b8","passed","","1218","","","","","","","","","","","","","","f","yesOrNo","","","","11","","","gt","3000","","","62","650.0211431702996","404.58"
"","","","","","html-keyboard-response","205","1577513","0.0-20.0-0.14","5bad8fc39c0cc900017a6a28","6796e1c0ff24ca17c453c51c","67c70d4d77acfc6ff7e608b8","passed","","","","","","","","","","","","","","","","","ballFalling","604.4000000000001","596.8711431702998","394.5","10","fallScene","false","","","","","63","",""
"","","","","","html-keyboard-response","206","1580520","0.0-20.0-1.14","5bad8fc39c0cc900017a6a28","6796e1c0ff24ca17c453c51c","67c70d4d77acfc6ff7e608b8","passed","","1457","","","","","","","","","","","","","","j","yesOrNo","","","","10","","","lp","3000","","","63","603.4000000000001","215.50214355555383"
"","","","","","html-keyboard-response","207","1582096","0.0-20.0-0.15","5bad8fc39c0cc900017a6a28","6796e1c0ff24ca17c453c51c","67c70d4d77acfc6ff7e608b8","passed","","","","","","","","","","","","","","","","","ballFalling","500","553.4711431702997","282.51","7","fallScene","false","","","","","64","",""
"","","","","","html-keyboard-response","208","1585110","0.0-20.0-1.15","5bad8fc39c0cc900017a6a28","6796e1c0ff24ca17c453c51c","67c70d4d77acfc6ff7e608b8","passed","","866","","","","","","","","","","","","","","j","yesOrNo","","","","7","","","gt","3000","","","64","553.4711431702997","282.51"
"","","","","","html-keyboard-response","209","1586676","0.0-20.0-0.16","5bad8fc39c0cc900017a6a28","6796e1c0ff24ca17c453c51c","67c70d4d77acfc6ff7e608b8","passed","","","","","","","","","","","","","","","","","ballFalling","500","453.67114317029973","210.33","5","fallScene","true","","","","","65","",""
"","","","","","html-keyboard-response","210","1589678","0.0-20.0-1.16","5bad8fc39c0cc900017a6a28","6796e1c0ff24ca17c453c51c","67c70d4d77acfc6ff7e608b8","passed","","1183","","","","","","","","","","","","","","j","yesOrNo","","","","5","","","gt","3000","","","65","453.6711431702998","210.33"
"","","","","","html-keyboard-response","211","1591330","0.0-20.0-0.17","5bad8fc39c0cc900017a6a28","6796e1c0ff24ca17c453c51c","67c70d4d77acfc6ff7e608b8","passed","","","","","","","","","","","","","","","","","ballFalling","500","479.92114317029973","330.87","6","fallScene","false","","","","","66","",""
"","","","","","html-keyboard-response","212","1594340","0.0-20.0-1.17","5bad8fc39c0cc900017a6a28","6796e1c0ff24ca17c453c51c","67c70d4d77acfc6ff7e608b8","passed","","1352","","","","","","","","","","","","","","j","yesOrNo","","","","6","","","gt","3000","","","66","479.9211431702998","330.87"
"","","","","","html-keyboard-response","213","1596346","0.0-20.0-0.18","5bad8fc39c0cc900017a6a28","6796e1c0ff24ca17c453c51c","67c70d4d77acfc6ff7e608b8","passed","","","","","","","","","","","","","","","","","ballFalling","604.4000000000001","596.8711431702998","394.5","10","fallScene","true","","","","","67","",""
"","","","","","html-keyboard-response","214","1599362","0.0-20.0-1.18","5bad8fc39c0cc900017a6a28","6796e1c0ff24ca17c453c51c","67c70d4d77acfc6ff7e608b8","passed","","1736","","","","","","","","","","","","","","j","yesOrNo","","","","10","","","lp","3000","","","67","603.4000000000001","215.50214355555383"
"","","","","","html-keyboard-response","215","1601362","0.0-20.0-0.19","5bad8fc39c0cc900017a6a28","6796e1c0ff24ca17c453c51c","67c70d4d77acfc6ff7e608b8","passed","","","","","","","","","","","","","","","","","ballFalling","500","510.8711431702997","369.03","8","fallScene","true","","","","","68","",""
"","","","","","html-keyboard-response","216","1604367","0.0-20.0-1.19","5bad8fc39c0cc900017a6a28","6796e1c0ff24ca17c453c51c","67c70d4d77acfc6ff7e608b8","passed","","1088","","","","","","","","","","","","","","j","yesOrNo","","","","8","","","mid","3000","","","68","501","300"
"","","","","","html-keyboard-response","217","1606162","0.0-20.0-0.20","5bad8fc39c0cc900017a6a28","6796e1c0ff24ca17c453c51c","67c70d4d77acfc6ff7e608b8","passed","","","","","","","","","","","","","","","","","ballFalling","322.3","308.07114317029976","253.89","2","fallScene","true","","","","","69","",""
"","","","","","html-keyboard-response","218","1609165","0.0-20.0-1.20","5bad8fc39c0cc900017a6a28","6796e1c0ff24ca17c453c51c","67c70d4d77acfc6ff7e608b8","passed","","889","","","","","","","","","","","","","","j","yesOrNo","","","","2","","","mid","3000","","","69","321.3","300"
"","","","","","html-keyboard-response","219","1610743","0.0-20.0-0.21","5bad8fc39c0cc900017a6a28","6796e1c0ff24ca17c453c51c","67c70d4d77acfc6ff7e608b8","passed","","","","","","","","","","","","","","","","","ballFalling","604.4000000000001","575.4211431702997","266.76","12","fallScene","true","","","","","70","",""
"","","","","","html-keyboard-response","220","1613746","0.0-20.0-1.21","5bad8fc39c0cc900017a6a28","6796e1c0ff24ca17c453c51c","67c70d4d77acfc6ff7e608b8","passed","","796","","","","","","","","","","","","","","j","yesOrNo","","","","12","","","gt","3000","","","70","575.4211431702997","266.76"
"","","","","","html-keyboard-response","221","1615312","0.0-20.0-0.22","5bad8fc39c0cc900017a6a28","6796e1c0ff24ca17c453c51c","67c70d4d77acfc6ff7e608b8","passed","","","","","","","","","","","","","","","","","ballFalling","500","453.67114317029973","210.33","5","fallScene","false","","","","","71","",""
"","","","","","html-keyboard-response","222","1618323","0.0-20.0-1.22","5bad8fc39c0cc900017a6a28","6796e1c0ff24ca17c453c51c","67c70d4d77acfc6ff7e608b8","passed","","971","","","","","","","","","","","","","","f","yesOrNo","","","","5","","","lp","3000","","","71","499","151"
"","","","","","html-keyboard-response","223","1619893","0.0-20.0-0.23","5bad8fc39c0cc900017a6a28","6796e1c0ff24ca17c453c51c","67c70d4d77acfc6ff7e608b8","passed","","","","","","","","","","","","","","","","","ballFalling","604.4000000000001","575.4211431702997","266.76","12","fallScene","false","","","","","72","",""
"","","","","","html-keyboard-response","224","1622895","0.0-20.0-1.23","5bad8fc39c0cc900017a6a28","6796e1c0ff24ca17c453c51c","67c70d4d77acfc6ff7e608b8","passed","","943","","","","","","","","","","","","","","j","yesOrNo","","","","12","","","mid","3000","","","72","536.4288568297004","300"
"","","","","","html-keyboard-response","225","1624765","0.0-21.0","5bad8fc39c0cc900017a6a28","6796e1c0ff24ca17c453c51c","67c70d4d77acfc6ff7e608b8","passed","","1869","","","","","","","","","","","","","<p><span style=""font-size:40px;"">BLOCK 4</span></p><p><span style=""font-size:25px;"">You have <b style=""color: #FF644F;""><strong>3 second(s)</strong></b> to respond to the following trials.</span><br></p><p></p> <!-- Blank line -->
                <p id=""blinking-text"" style=""font-weight; animation: blink 2s infinite;"">Press Space to continue</p>
                <style>
                    @keyframes blink {
                        50% {
                            opacity: 0;
                        }
                    }
                </style></p>"," ","","","","","","","","","","","","","",""
"","","","","","html-keyboard-response","226","1626346","0.0-22.0-0.0","5bad8fc39c0cc900017a6a28","6796e1c0ff24ca17c453c51c","67c70d4d77acfc6ff7e608b8","passed","","","","","","","","","","","","","","","","","ballFalling","500","553.4711431702997","282.51","7","fallScene","true","","","","","73","",""
"","","","","","html-keyboard-response","227","1629348","0.0-22.0-1.0","5bad8fc39c0cc900017a6a28","6796e1c0ff24ca17c453c51c","67c70d4d77acfc6ff7e608b8","passed","","889","","","","","","","","","","","","","","j","yesOrNo","","","","7","","","lp","3000","","","73","501","227.2843295913261"
"","","","","","html-keyboard-response","228","1631362","0.0-22.0-0.1","5bad8fc39c0cc900017a6a28","6796e1c0ff24ca17c453c51c","67c70d4d77acfc6ff7e608b8","passed","","","","","","","","","","","","","","","","","ballFalling","500","510.8711431702997","369.03","8","fallScene","true","","","","","74","",""
"","","","","","html-keyboard-response","229","1634375","0.0-22.0-1.1","5bad8fc39c0cc900017a6a28","6796e1c0ff24ca17c453c51c","67c70d4d77acfc6ff7e608b8","passed","","1416","","","","","","","","","","","","","","j","yesOrNo","","","","8","","","lp","3000","","","74","501","151"
"","","","","","html-keyboard-response","230","1636163","0.0-22.0-0.2","5bad8fc39c0cc900017a6a28","6796e1c0ff24ca17c453c51c","67c70d4d77acfc6ff7e608b8","passed","","","","","","","","","","","","","","","","","ballFalling","322.3","308.07114317029976","253.89","2","fallScene","true","","","","","75","",""
"","","","","","html-keyboard-response","231","1639169","0.0-22.0-1.2","5bad8fc39c0cc900017a6a28","6796e1c0ff24ca17c453c51c","67c70d4d77acfc6ff7e608b8","passed","","1566","","","","","","","","","","","","","","j","yesOrNo","","","","2","","","lp","3000","","","75","321.3","151"
"","","","","","html-keyboard-response","232","1641179","0.0-22.0-0.3","5bad8fc39c0cc900017a6a28","6796e1c0ff24ca17c453c51c","67c70d4d77acfc6ff7e608b8","passed","","","","","","","","","","","","","","","","","ballFalling","604.4000000000001","596.8711431702998","394.5","10","fallScene","false","","","","","76","",""
"","","","","","html-keyboard-response","233","1644180","0.0-22.0-1.3","5bad8fc39c0cc900017a6a28","6796e1c0ff24ca17c453c51c","67c70d4d77acfc6ff7e608b8","passed","","912","","","","","","","","","","","","","","j","yesOrNo","","","","10","","","gt","3000","","","76","596.8711431702998","394.5"
"","","","","","html-keyboard-response","234","1645746","0.0-22.0-0.4","5bad8fc39c0cc900017a6a28","6796e1c0ff24ca17c453c51c","67c70d4d77acfc6ff7e608b8","passed","","","","","","","","","","","","","","","","","ballFalling","500","453.67114317029973","210.33","5","fallScene","false","","","","","77","",""
"","","","","","html-keyboard-response","235","1648762","0.0-22.0-1.4","5bad8fc39c0cc900017a6a28","6796e1c0ff24ca17c453c51c","67c70d4d77acfc6ff7e608b8","passed","","863","","","","","","","","","","","","","","f","yesOrNo","","","","5","","","mid","3000","","","77","499","300"
"","","","","","html-keyboard-response","236","1650313","0.0-22.0-0.5","5bad8fc39c0cc900017a6a28","6796e1c0ff24ca17c453c51c","67c70d4d77acfc6ff7e608b8","passed","","","","","","","","","","","","","","","","","ballFalling","322.3","296.07114317029976","371.46","3","fallScene","false","","","","","78","",""
"","","","","","html-keyboard-response","237","1653317","0.0-22.0-1.5","5bad8fc39c0cc900017a6a28","6796e1c0ff24ca17c453c51c","67c70d4d77acfc6ff7e608b8","passed","","1561","","","","","","","","","","","","","","j","yesOrNo","","","","3","","","gt","3000","","","78","296.07114317029976","371.46"
"","","","","","html-keyboard-response","238","1654880","0.0-22.0-0.6","5bad8fc39c0cc900017a6a28","6796e1c0ff24ca17c453c51c","67c70d4d77acfc6ff7e608b8","passed","","","","","","","","","","","","","","","","","ballFalling","322.3","379.3711431702997","245.25","1","fallScene","true","","","","","79","",""
"","","","","","html-keyboard-response","239","1657888","0.0-22.0-1.6","5bad8fc39c0cc900017a6a28","6796e1c0ff24ca17c453c51c","67c70d4d77acfc6ff7e608b8","passed","","883","","","","","","","","","","","","","","f","yesOrNo","","","","1","","","mid","3000","","","79","390.27114317029975","300"
"","","","","","html-keyboard-response","240","1659897","0.0-22.0-0.7","5bad8fc39c0cc900017a6a28","6796e1c0ff24ca17c453c51c","67c70d4d77acfc6ff7e608b8","passed","","","","","","","","","","","","","","","","","ballFalling","500","510.8711431702997","369.03","8","fallScene","false","","","","","80","",""
"","","","","","html-keyboard-response","241","1662912","0.0-22.0-1.7","5bad8fc39c0cc900017a6a28","6796e1c0ff24ca17c453c51c","67c70d4d77acfc6ff7e608b8","passed","","880","","","","","","","","","","","","","","j","yesOrNo","","","","8","","","gt","3000","","","80","510.8711431702997","369.03"
"","","","","","html-keyboard-response","242","1664464","0.0-22.0-0.8","5bad8fc39c0cc900017a6a28","6796e1c0ff24ca17c453c51c","67c70d4d77acfc6ff7e608b8","passed","","","","","","","","","","","","","","","","","ballFalling","322.3","296.07114317029976","371.46","3","fallScene","false","","","","","81","",""
"","","","","","html-keyboard-response","243","1667478","0.0-22.0-1.8","5bad8fc39c0cc900017a6a28","6796e1c0ff24ca17c453c51c","67c70d4d77acfc6ff7e608b8","passed","","1132","","","","","","","","","","","","","","f","yesOrNo","","","","3","","","mid","3000","","","81","321.3","300"
"","","","","","html-keyboard-response","244","1669030","0.0-22.0-0.9","5bad8fc39c0cc900017a6a28","6796e1c0ff24ca17c453c51c","67c70d4d77acfc6ff7e608b8","passed","","","","","","","","","","","","","","","","","ballFalling","322.3","296.07114317029976","371.46","3","fallScene","false","","","","","82","",""
"","","","","","html-keyboard-response","245","1672039","0.0-22.0-1.9","5bad8fc39c0cc900017a6a28","6796e1c0ff24ca17c453c51c","67c70d4d77acfc6ff7e608b8","passed","","940","","","","","","","","","","","","","","j","yesOrNo","","","","3","","","gt","3000","","","82","296.07114317029976","371.46"
"","","","","","html-keyboard-response","246","1673597","0.0-22.0-0.10","5bad8fc39c0cc900017a6a28","6796e1c0ff24ca17c453c51c","67c70d4d77acfc6ff7e608b8","passed","","","","","","","","","","","","","","","","","ballFalling","322.3","356.42114317029973","357.87","4","fallScene","false","","","","","83","",""
"","","","","","html-keyboard-response","247","1676607","0.0-22.0-1.10","5bad8fc39c0cc900017a6a28","6796e1c0ff24ca17c453c51c","67c70d4d77acfc6ff7e608b8","passed","","1245","","","","","","","","","","","","","","f","yesOrNo","","","","4","","","lp","3000","","","83","323.3","297.4070551689986"
"","","","","","html-keyboard-response","248","1678180","0.0-22.0-0.11","5bad8fc39c0cc900017a6a28","6796e1c0ff24ca17c453c51c","67c70d4d77acfc6ff7e608b8","passed","","","","","","","","","","","","","","","","","ballFalling","500","553.4711431702997","282.51","7","fallScene","false","","","","","84","",""
"","","","","","html-keyboard-response","249","1681195","0.0-22.0-1.11","5bad8fc39c0cc900017a6a28","6796e1c0ff24ca17c453c51c","67c70d4d77acfc6ff7e608b8","passed","","1069","","","","","","","","","","","","","","j","yesOrNo","","","","7","","","mid","3000","","","84","501","300"
"","","","","","html-keyboard-response","250","1682764","0.0-22.0-0.12","5bad8fc39c0cc900017a6a28","6796e1c0ff24ca17c453c51c","67c70d4d77acfc6ff7e608b8","passed","","","","","","","","","","","","","","","","","ballFalling","500","553.4711431702997","282.51","7","fallScene","false","","","","","85","",""
"","","","","","html-keyboard-response","251","1685772","0.0-22.0-1.12","5bad8fc39c0cc900017a6a28","6796e1c0ff24ca17c453c51c","67c70d4d77acfc6ff7e608b8","passed","","1032","","","","","","","","","","","","","","j","yesOrNo","","","","7","","","gt","3000","","","85","553.4711431702997","282.51"
"","","","","","html-keyboard-response","252","1687329","0.0-22.0-0.13","5bad8fc39c0cc900017a6a28","6796e1c0ff24ca17c453c51c","67c70d4d77acfc6ff7e608b8","passed","","","","","","","","","","","","","","","","","ballFalling","322.3","356.42114317029973","357.87","4","fallScene","true","","","","","86","",""
"","","","","","html-keyboard-response","253","1690334","0.0-22.0-1.13","5bad8fc39c0cc900017a6a28","6796e1c0ff24ca17c453c51c","67c70d4d77acfc6ff7e608b8","passed","","1001","","","","","","","","","","","","","","j","yesOrNo","","","","4","","","mid","3000","","","86","390.27114317029975","300"
"","","","","","html-keyboard-response","254","1691997","0.0-22.0-0.14","5bad8fc39c0cc900017a6a28","6796e1c0ff24ca17c453c51c","67c70d4d77acfc6ff7e608b8","passed","","","","","","","","","","","","","","","","","ballFalling","500","479.92114317029973","330.87","6","fallScene","false","","","","","87","",""
"","","","","","html-keyboard-response","255","1695012","0.0-22.0-1.14","5bad8fc39c0cc900017a6a28","6796e1c0ff24ca17c453c51c","67c70d4d77acfc6ff7e608b8","passed","","1032","","","","","","","","","","","","","","j","yesOrNo","","","","6","","","gt","3000","","","87","479.9211431702998","330.87"
"","","","","","html-keyboard-response","256","1696663","0.0-22.0-0.15","5bad8fc39c0cc900017a6a28","6796e1c0ff24ca17c453c51c","67c70d4d77acfc6ff7e608b8","passed","","","","","","","","","","","","","","","","","ballFalling","500","479.92114317029973","330.87","6","fallScene","true","","","","","88","",""
"","","","","","html-keyboard-response","257","1699679","0.0-22.0-1.15","5bad8fc39c0cc900017a6a28","6796e1c0ff24ca17c453c51c","67c70d4d77acfc6ff7e608b8","passed","","1300","","","","","","","","","","","","","","j","yesOrNo","","","","6","","","lp","3000","","","88","499","189.92909825697632"
"","","","","","html-keyboard-response","258","1701229","0.0-22.0-0.16","5bad8fc39c0cc900017a6a28","6796e1c0ff24ca17c453c51c","67c70d4d77acfc6ff7e608b8","passed","","","","","","","","","","","","","","","","","ballFalling","322.3","356.42114317029973","357.87","4","fallScene","true","","","","","89","",""
"","","","","","html-keyboard-response","259","1704236","0.0-22.0-1.16","5bad8fc39c0cc900017a6a28","6796e1c0ff24ca17c453c51c","67c70d4d77acfc6ff7e608b8","passed","","565","","","","","","","","","","","","","","f","yesOrNo","","","","4","","","lp","3000","","","89","323.3","297.4070551689986"
"","","","","","html-keyboard-response","260","1705797","0.0-22.0-0.17","5bad8fc39c0cc900017a6a28","6796e1c0ff24ca17c453c51c","67c70d4d77acfc6ff7e608b8","passed","","","","","","","","","","","","","","","","","ballFalling","604.4000000000001","650.0211431702996","404.58000000000004","11","fallScene","true","","","","","90","",""
"","","","","","html-keyboard-response","261","1708804","0.0-22.0-1.17","5bad8fc39c0cc900017a6a28","6796e1c0ff24ca17c453c51c","67c70d4d77acfc6ff7e608b8","passed","","861","","","","","","","","","","","","","","j","yesOrNo","","","","11","","","mid","3000","","","90","605.4000000000001","300"
"","","","","","html-keyboard-response","262","1710827","0.0-22.0-0.18","5bad8fc39c0cc900017a6a28","6796e1c0ff24ca17c453c51c","67c70d4d77acfc6ff7e608b8","passed","","","","","","","","","","","","","","","","","ballFalling","604.4000000000001","596.8711431702998","394.5","10","fallScene","true","","","","","91","",""
"","","","","","html-keyboard-response","263","1713829","0.0-22.0-1.18","5bad8fc39c0cc900017a6a28","6796e1c0ff24ca17c453c51c","67c70d4d77acfc6ff7e608b8","passed","","961","","","","","","","","","","","","","","j","yesOrNo","","","","10","","","mid","3000","","","91","536.4288568297004","300"
"","","","","","html-keyboard-response","264","1715380","0.0-22.0-0.19","5bad8fc39c0cc900017a6a28","6796e1c0ff24ca17c453c51c","67c70d4d77acfc6ff7e608b8","passed","","","","","","","","","","","","","","","","","ballFalling","604.4000000000001","650.0211431702996","404.58000000000004","11","fallScene","true","","","","","92","",""
"","","","","","html-keyboard-response","265","1718386","0.0-22.0-1.19","5bad8fc39c0cc900017a6a28","6796e1c0ff24ca17c453c51c","67c70d4d77acfc6ff7e608b8","passed","","782","","","","","","","","","","","","","","j","yesOrNo","","","","11","","","gt","3000","","","92","650.0211431702996","404.58"
"","","","","","html-keyboard-response","266","1719947","0.0-22.0-0.20","5bad8fc39c0cc900017a6a28","6796e1c0ff24ca17c453c51c","67c70d4d77acfc6ff7e608b8","passed","","","","","","","","","","","","","","","","","ballFalling","604.4000000000001","650.0211431702996","404.58000000000004","11","fallScene","true","","","","","93","",""
"","","","","","html-keyboard-response","267","1722962","0.0-22.0-1.20","5bad8fc39c0cc900017a6a28","6796e1c0ff24ca17c453c51c","67c70d4d77acfc6ff7e608b8","passed","","775","","","","","","","","","","","","","","f","yesOrNo","","","","11","","","mid","3000","","","93","605.4000000000001","300"
"","","","","","html-keyboard-response","268","1724964","0.0-22.0-0.21","5bad8fc39c0cc900017a6a28","6796e1c0ff24ca17c453c51c","67c70d4d77acfc6ff7e608b8","passed","","","","","","","","","","","","","","","","","ballFalling","500","510.8711431702997","369.03","8","fallScene","true","","","","","94","",""
"","","","","","html-keyboard-response","269","1727979","0.0-22.0-1.21","5bad8fc39c0cc900017a6a28","6796e1c0ff24ca17c453c51c","67c70d4d77acfc6ff7e608b8","passed","","1119","","","","","","","","","","","","","","j","yesOrNo","","","","8","","","mid","3000","","","94","501","300"
"","","","","","html-keyboard-response","270","1729630","0.0-22.0-0.22","5bad8fc39c0cc900017a6a28","6796e1c0ff24ca17c453c51c","67c70d4d77acfc6ff7e608b8","passed","","","","","","","","","","","","","","","","","ballFalling","500","479.92114317029973","330.87","6","fallScene","false","","","","","95","",""
"","","","","","html-keyboard-response","271","1732638","0.0-22.0-1.22","5bad8fc39c0cc900017a6a28","6796e1c0ff24ca17c453c51c","67c70d4d77acfc6ff7e608b8","passed","","813","","","","","","","","","","","","","","j","yesOrNo","","","","6","","","mid","3000","","","95","499","300"
"","","","","","html-keyboard-response","272","1734431","0.0-22.0-0.23","5bad8fc39c0cc900017a6a28","6796e1c0ff24ca17c453c51c","67c70d4d77acfc6ff7e608b8","passed","","","","","","","","","","","","","","","","","ballFalling","322.3","308.07114317029976","253.89","2","fallScene","true","","","","","96","",""
"","","","","","html-keyboard-response","273","1737437","0.0-22.0-1.23","5bad8fc39c0cc900017a6a28","6796e1c0ff24ca17c453c51c","67c70d4d77acfc6ff7e608b8","passed","","949","","","","","","","","","","","","","","j","yesOrNo","","","","2","","","mid","3000","","","96","321.3","300"
"","","","","","html-keyboard-response","274","1741982","0.0-23.0","5bad8fc39c0cc900017a6a28","6796e1c0ff24ca17c453c51c","67c70d4d77acfc6ff7e608b8","passed","","4544","","","","","","","","","","","","","<p><span style=""font-size:40px;"">BLOCK 5</span></p><p><span style=""font-size:25px;"">You have <b style=""color: #FF644F;""><strong>0.7 second(s)</strong></b> to respond to the following trials.</span><br></p><p></p> <!-- Blank line -->
                <p id=""blinking-text"" style=""font-weight; animation: blink 2s infinite;"">Press Space to continue</p>
                <style>
                    @keyframes blink {
                        50% {
                            opacity: 0;
                        }
                    }
                </style></p>"," ","","","","","","","","","","","","","",""
"","","","","","html-keyboard-response","275","1743547","0.0-24.0-0.0","5bad8fc39c0cc900017a6a28","6796e1c0ff24ca17c453c51c","67c70d4d77acfc6ff7e608b8","passed","","","","","","","","","","","","","","","","","ballFalling","604.4000000000001","575.4211431702997","266.76","12","fallScene","false","","","","","97","",""
"","","","","","html-keyboard-response","276","1744253","0.0-24.0-1.0","5bad8fc39c0cc900017a6a28","6796e1c0ff24ca17c453c51c","67c70d4d77acfc6ff7e608b8","passed","","455","","","","","","","","","","","","","","f","yesOrNo","","","","12","","","mid","700","","","97","536.4288568297004","300"
"","","","","","html-keyboard-response","277","1746046","0.0-24.0-0.1","5bad8fc39c0cc900017a6a28","6796e1c0ff24ca17c453c51c","67c70d4d77acfc6ff7e608b8","passed","","","","","","","","","","","","","","","","","ballFalling","322.3","308.07114317029976","253.89","2","fallScene","true","","","","","98","",""
"","","","","","html-keyboard-response","278","1746757","0.0-24.0-1.1","5bad8fc39c0cc900017a6a28","6796e1c0ff24ca17c453c51c","67c70d4d77acfc6ff7e608b8","passed","","395","","","","","","","","","","","","","","j","yesOrNo","","","","2","","","gt","700","","","98","308.07114317029976","253.89"
"","","","","","html-keyboard-response","279","1748314","0.0-24.0-0.2","5bad8fc39c0cc900017a6a28","6796e1c0ff24ca17c453c51c","67c70d4d77acfc6ff7e608b8","passed","","","","","","","","","","","","","","","","","ballFalling","604.4000000000001","650.0211431702996","404.58000000000004","11","fallScene","false","","","","","99","",""
"","","","","","html-keyboard-response","280","1749029","0.0-24.0-1.2","5bad8fc39c0cc900017a6a28","6796e1c0ff24ca17c453c51c","67c70d4d77acfc6ff7e608b8","passed","","487","","","","","","","","","","","","","","f","yesOrNo","","","","11","","","mid","700","","","99","605.4000000000001","300"
"","","","","","html-keyboard-response","281","1750597","0.0-24.0-0.3","5bad8fc39c0cc900017a6a28","6796e1c0ff24ca17c453c51c","67c70d4d77acfc6ff7e608b8","passed","","","","","","","","","","","","","","","","","ballFalling","500","553.4711431702997","282.51","7","fallScene","false","","","","","100","",""
"","","","","","html-keyboard-response","282","1751311","0.0-24.0-1.3","5bad8fc39c0cc900017a6a28","6796e1c0ff24ca17c453c51c","67c70d4d77acfc6ff7e608b8","passed","","317","","","","","","","","","","","","","","j","yesOrNo","","","","7","","","mid","700","","","100","501","300"
"","","","","","html-keyboard-response","283","1752864","0.0-24.0-0.4","5bad8fc39c0cc900017a6a28","6796e1c0ff24ca17c453c51c","67c70d4d77acfc6ff7e608b8","passed","","","","","","","","","","","","","","","","","ballFalling","322.3","379.3711431702997","245.25","1","fallScene","true","","","","","101","",""
"","","","","","html-keyboard-response","284","1753578","0.0-24.0-1.4","5bad8fc39c0cc900017a6a28","6796e1c0ff24ca17c453c51c","67c70d4d77acfc6ff7e608b8","passed","","394","","","","","","","","","","","","","","f","yesOrNo","","","","1","","","lp","700","","","101","323.3","217.74551669457017"
"","","","","","html-keyboard-response","285","1755581","0.0-24.0-0.5","5bad8fc39c0cc900017a6a28","6796e1c0ff24ca17c453c51c","67c70d4d77acfc6ff7e608b8","passed","","","","","","","","","","","","","","","","","ballFalling","604.4000000000001","596.8711431702998","394.5","10","fallScene","false","","","","","102","",""
"","","","","","html-keyboard-response","286","1756290","0.0-24.0-1.5","5bad8fc39c0cc900017a6a28","6796e1c0ff24ca17c453c51c","67c70d4d77acfc6ff7e608b8","passed","","437","","","","","","","","","","","","","","f","yesOrNo","","","","10","","","lp","700","","","102","603.4000000000001","215.50214355555383"
"","","","","","html-keyboard-response","287","1757848","0.0-24.0-0.6","5bad8fc39c0cc900017a6a28","6796e1c0ff24ca17c453c51c","67c70d4d77acfc6ff7e608b8","passed","","","","","","","","","","","","","","","","","ballFalling","322.3","379.3711431702997","245.25","1","fallScene","true","","","","","103","",""
"","","","","","html-keyboard-response","288","1758556","0.0-24.0-1.6","5bad8fc39c0cc900017a6a28","6796e1c0ff24ca17c453c51c","67c70d4d77acfc6ff7e608b8","passed","","450","","","","","","","","","","","","","","j","yesOrNo","","","","1","","","mid","700","","","103","390.27114317029975","300"
"","","","","","html-keyboard-response","289","1760114","0.0-24.0-0.7","5bad8fc39c0cc900017a6a28","6796e1c0ff24ca17c453c51c","67c70d4d77acfc6ff7e608b8","passed","","","","","","","","","","","","","","","","","ballFalling","322.3","379.3711431702997","245.25","1","fallScene","true","","","","","104","",""
"","","","","","html-keyboard-response","290","1760829","0.0-24.0-1.7","5bad8fc39c0cc900017a6a28","6796e1c0ff24ca17c453c51c","67c70d4d77acfc6ff7e608b8","passed","","384","","","","","","","","","","","","","","j","yesOrNo","","","","1","","","mid","700","","","104","390.27114317029975","300"
"","","","","","html-keyboard-response","291","1762381","0.0-24.0-0.8","5bad8fc39c0cc900017a6a28","6796e1c0ff24ca17c453c51c","67c70d4d77acfc6ff7e608b8","passed","","","","","","","","","","","","","","","","","ballFalling","604.4000000000001","650.0211431702996","404.58000000000004","11","fallScene","false","","","","","105","",""
"","","","","","html-keyboard-response","292","1763095","0.0-24.0-1.8","5bad8fc39c0cc900017a6a28","6796e1c0ff24ca17c453c51c","67c70d4d77acfc6ff7e608b8","passed","","277","","","","","","","","","","","","","","f","yesOrNo","","","","11","","","lp","700","","","105","605.4000000000001","372.6340973215488"
"","","","","","html-keyboard-response","293","1764651","0.0-24.0-0.9","5bad8fc39c0cc900017a6a28","6796e1c0ff24ca17c453c51c","67c70d4d77acfc6ff7e608b8","passed","","","","","","","","","","","","","","","","","ballFalling","500","453.67114317029973","210.33","5","fallScene","true","","","","","106","",""
"","","","","","html-keyboard-response","294","1765363","0.0-24.0-1.9","5bad8fc39c0cc900017a6a28","6796e1c0ff24ca17c453c51c","67c70d4d77acfc6ff7e608b8","passed","","415","","","","","","","","","","","","","","j","yesOrNo","","","","5","","","mid","700","","","106","499","300"
"","","","","","html-keyboard-response","295","1767364","0.0-24.0-0.10","5bad8fc39c0cc900017a6a28","6796e1c0ff24ca17c453c51c","67c70d4d77acfc6ff7e608b8","passed","","","","","","","","","","","","","","","","","ballFalling","604.4000000000001","596.8711431702998","394.5","10","fallScene","false","","","","","107","",""
"","","","","","html-keyboard-response","296","1768071","0.0-24.0-1.10","5bad8fc39c0cc900017a6a28","6796e1c0ff24ca17c453c51c","67c70d4d77acfc6ff7e608b8","passed","","333","","","","","","","","","","","","","","j","yesOrNo","","","","10","","","gt","700","","","107","596.8711431702998","394.5"
"","","","","","html-keyboard-response","297","1769563","0.0-24.0-0.11","5bad8fc39c0cc900017a6a28","6796e1c0ff24ca17c453c51c","67c70d4d77acfc6ff7e608b8","passed","","","","","","","","","","","","","","","","","ballFalling","604.4000000000001","667.6211431702998","201.78","9","fallScene","true","","","","","108","",""
"","","","","","html-keyboard-response","298","1770264","0.0-24.0-1.11","5bad8fc39c0cc900017a6a28","6796e1c0ff24ca17c453c51c","67c70d4d77acfc6ff7e608b8","passed","","360","","","","","","","","","","","","","","f","yesOrNo","","","","9","","","lp","700","","","108","605.4000000000001","151"
"","","","","","html-keyboard-response","299","1771835","0.0-24.0-0.12","5bad8fc39c0cc900017a6a28","6796e1c0ff24ca17c453c51c","67c70d4d77acfc6ff7e608b8","passed","","","","","","","","","","","","","","","","","ballFalling","322.3","296.07114317029976","371.46","3","fallScene","true","","","","","109","",""
