"success","timeout","failed_images","failed_audio","failed_video","trial_type","trial_index","time_elapsed","internal_node_id","subject_id","study_id","session_id","practiceTestResult","view_history","rt","width","height","webaudio","browser","browser_version","mobile","os","fullscreen","vsync_rate","webcam","microphone","url","stimulus","response","task","ball_X","obstacle_groundTruth_x","obstacle_groundTruth_y","stimulus_idx","trial_name","flipped","choice","timeLimit","question_order","comprehensionCheck","currentTrial","obstacle_choice_x","obstacle_choice_y"
"true","false","[]","[]","[]","preload","0","109","0.0-0.0","5d337586669d96001cbbb059","6796e1c0ff24ca17c453c51c","67c6abb317d1045ae78b637b","passed","","","","","","","","","","","","","","","","","","","","","","","","","","","","","",""
"","","","","","instructions","1","44206","0.0-1.0","5d337586669d96001cbbb059","6796e1c0ff24ca17c453c51c","67c6abb317d1045ae78b637b","passed","[{""page_index"":0,""viewing_time"":44097}]","44097","","","","","","","","","","","","","","","","","","","","","","","","","","","",""
"","","","","","browser-check","2","45193","0.0-2.0","5d337586669d96001cbbb059","6796e1c0ff24ca17c453c51c","67c6abb317d1045ae78b637b","passed","","","2560","1317","true","chrome","133.0.0","false","Windows 10","true","60.99","false","true","","","","","","","","","","","","","","","","",""
"","","","","","external-html","3","51523","0.0-3.0","5d337586669d96001cbbb059","6796e1c0ff24ca17c453c51c","67c6abb317d1045ae78b637b","passed","","6298","","","","","","","","","","","","consent.html","","","","","","","","","","","","","","","",""
"true","","","","","fullscreen","4","58314","0.0-4.0","5d337586669d96001cbbb059","6796e1c0ff24ca17c453c51c","67c6abb317d1045ae78b637b","passed","","6480","","","","","","","","","","","","","","","","","","","","","","","","","","","",""
"","","","","","browser-check","5","59306","0.0-5.0","5d337586669d96001cbbb059","6796e1c0ff24ca17c453c51c","67c6abb317d1045ae78b637b","passed","","","2560","1440","true","chrome","133.0.0","false","Windows 10","true","60.57","false","true","","","","","","","","","","","","","","","","",""
"","","","","","html-keyboard-response","6","64387","0.0-6.0","5d337586669d96001cbbb059","6796e1c0ff24ca17c453c51c","67c6abb317d1045ae78b637b","passed","","5081","","","","","","","","","","","","","<p><b>This experiment requires keyboard input.</b></p> 
        <p><b>To ensure your response will be recorded successfully, please press 'Space' to continue.</b></p>
        <p>If you can't proceed, you won't be able to complete this study.</p>
        <p></p> <!-- Blank line -->
        <p id=""blinking-text"" style=""font-weight; animation: blink 2s infinite;"">Press Space to continue</p>
        <style>
            @keyframes blink {
                50% {
                    opacity: 0;
                }
            }
        </style>"," ","","","","","","","","","","","","","",""
"","","","","","html-keyboard-response","7","67145","0.0-7.0","5d337586669d96001cbbb059","6796e1c0ff24ca17c453c51c","67c6abb317d1045ae78b637b","passed","","2758","","","","","","","","","","","","","<p><b>This experiment requires keyboard input.</b></p> 
        <p><b>To ensure your response will be recorded successfully, please press the 'f' key to continue.</b></p>
        <p>If you can't proceed, you won't be able to complete this study.</p>
        <p></p> <!-- Blank line -->
        <p id=""blinking-text"" style=""font-weight; animation: blink 2s infinite;"">Press f to continue</p>
        <style>
            @keyframes blink {
                50% {
                    opacity: 0;
                }
            }
        </style>","f","","","","","","","","","","","","","",""
"","","","","","html-keyboard-response","8","69957","0.0-8.0","5d337586669d96001cbbb059","6796e1c0ff24ca17c453c51c","67c6abb317d1045ae78b637b","passed","","2811","","","","","","","","","","","","","<p><b>This experiment requires keyboard input.</b></p> 
        <p><b>To ensure your response will be recorded successfully, please press the 'j' key to continue.</b></p>
        <p>If you can't proceed, you won't be able to complete this study.</p>
        <p></p> <!-- Blank line -->
        <p id=""blinking-text"" style=""font-weight; animation: blink 2s infinite;"">Press j to continue</p>
        <style>
            @keyframes blink {
                50% {
                    opacity: 0;
                }
            }
        </style>","j","","","","","","","","","","","","","",""
"","","","","","browser-check","9","70964","0.0-9.0","5d337586669d96001cbbb059","6796e1c0ff24ca17c453c51c","67c6abb317d1045ae78b637b","passed","","","2560","1440","true","chrome","133.0.0","false","Windows 10","true","60","false","true","","","","","","","","","","","","","","","","",""
"","","","","","survey-text","10","85490","0.0-10.0","5d337586669d96001cbbb059","6796e1c0ff24ca17c453c51c","67c6abb317d1045ae78b637b","passed","","14524","","","","","","","","","","","","","","{""prolificID"":""5d337586669d96001cbbb059""}","","","","","","","","","","","","","",""
"","","","","","instructions","11","174553","0.0-11.0-0.0-0.0","5d337586669d96001cbbb059","6796e1c0ff24ca17c453c51c","67c6abb317d1045ae78b637b","passed","[{""page_index"":0,""viewing_time"":26338},{""page_index"":1,""viewing_time"":22462},{""page_index"":2,""viewing_time"":24453},{""page_index"":3,""viewing_time"":15810}]","89062","","","","","","","","","","","","","","","","","","","","","","","","","","","",""
"","","","","","html-keyboard-response","12","197347","0.0-11.0-0.0-1.0","5d337586669d96001cbbb059","6796e1c0ff24ca17c453c51c","67c6abb317d1045ae78b637b","passed","","22290","","","","","","","","","","","","","<br>Remember! After a ball falls, the screen will disappear, and you'll decide if the proposed position is where the hidden triangle was. <br>You will now practice this by watching a few videos and making decisions.<p>To respond:<br style=""margin-bottom: 5px; text-indent: -20px; padding-left: 20px;"">- Press <b style=""color: #12AD2B;"">J for Yes</b>, if you think the triangle is in the correct position.<br style=""margin-top: 0; text-indent: -20px; padding-left: 20px;"">- Press <b style=""color: orange;"">F for No</b>, if you think the triangle is not in the correct position.</p><p>In this practice round, there is no time limit. Focus on getting comfortable with the task first.<br>Press either J or F to begin your practice trials.</p><img src = ""YesOrNo_instruction.png"" style=""width: 65%;""></img>","f","","","","","","","","","","","","","",""
"","","","","","html-keyboard-response","13","198923","0.0-11.0-0.0-2.0-0.0","5d337586669d96001cbbb059","6796e1c0ff24ca17c453c51c","67c6abb317d1045ae78b637b","passed","","","","","","","","","","","","","","","","","ballFalling_prac","416","464","296","1","fallScene","false","","","","","","",""
"","","","","","html-keyboard-response","14","201609","0.0-11.0-0.0-2.0-1.0","5d337586669d96001cbbb059","6796e1c0ff24ca17c453c51c","67c6abb317d1045ae78b637b","passed","","2681","","","","","","","","","","","","","","j","yesOrNo_prac_noTimed","","","","1","","","gt","NA","","","","",""
"","","","","","html-keyboard-response","15","203193","0.0-11.0-0.0-2.0-0.1","5d337586669d96001cbbb059","6796e1c0ff24ca17c453c51c","67c6abb317d1045ae78b637b","passed","","","","","","","","","","","","","","","","","ballFalling_prac","441","414","302","5","fallScene","true","","","","","","",""
"","","","","","html-keyboard-response","16","204709","0.0-11.0-0.0-2.0-1.1","5d337586669d96001cbbb059","6796e1c0ff24ca17c453c51c","67c6abb317d1045ae78b637b","passed","","1514","","","","","","","","","","","","","","j","yesOrNo_prac_noTimed","","","","5","","","close gt","NA","","","","",""
"","","","","","html-keyboard-response","17","206817","0.0-11.0-0.0-2.0-0.2","5d337586669d96001cbbb059","6796e1c0ff24ca17c453c51c","67c6abb317d1045ae78b637b","passed","","","","","","","","","","","","","","","","","ballFalling_prac","660","666","350","3","fallScene","false","","","","","","",""
"","","","","","html-keyboard-response","18","208695","0.0-11.0-0.0-2.0-1.2","5d337586669d96001cbbb059","6796e1c0ff24ca17c453c51c","67c6abb317d1045ae78b637b","passed","","1877","","","","","","","","","","","","","","f","yesOrNo_prac_noTimed","","","","3","","","wrong direction","NA","","","","",""
"","","","","","instructions","19","236488","0.0-11.0-0.0-3.0","5d337586669d96001cbbb059","6796e1c0ff24ca17c453c51c","67c6abb317d1045ae78b637b","passed","[{""page_index"":0,""viewing_time"":18192},{""page_index"":1,""viewing_time"":9600}]","27793","","","","","","","","","","","","","","","","","","","","","","","","","","","",""
"","","","","","html-button-response","20","242480","0.0-11.0-0.0-4.0","5d337586669d96001cbbb059","6796e1c0ff24ca17c453c51c","67c6abb317d1045ae78b637b","passed","","5490","","","","","","","","","","","","","<p>To make sure you understood the task, we just have a <b>brief quiz</b> here.</p><p>If you need to review the instructions, click 'Previous'.</p><p>It's important to understand the task to do the study, so you have to pass the quiz to move to the study.</p>","1","","","","","","","","","","","","","",""
"","","","","","survey-multi-choice","21","271028","0.0-11.0-1.0-0.0","5d337586669d96001cbbb059","6796e1c0ff24ca17c453c51c","67c6abb317d1045ae78b637b","passed","","28547","","","","","","","","","","","","","","{""generalProcedure"":""Watch a video of a ball falling, some of it behind a gray screen. After each video, decide if the triangle is at the spot where the ball hit the triangle behind the screen. There is time limit for the response.""}","","","","","","","","","","[0]","","","",""
"","","","","","survey-multi-choice","22","275153","0.0-11.0-1.0-1.0","5d337586669d96001cbbb059","6796e1c0ff24ca17c453c51c","67c6abb317d1045ae78b637b","passed","","4124","","","","","","","","","","","","","","{""checkBallHitObstacle"":""Yes.""}","","","","","","","","","","[0]","","","",""
"","","","","","survey-multi-choice","23","279716","0.0-11.0-1.0-2.0","5d337586669d96001cbbb059","6796e1c0ff24ca17c453c51c","67c6abb317d1045ae78b637b","passed","","4563","","","","","","","","","","","","","","{""checkTriangleVisibility"":""No, the triangle is hidden behind the gray screen.""}","","","","","","","","","","[0]","","","",""
"","","","","","survey-multi-choice","24","285549","0.0-11.0-1.0-3.0","5d337586669d96001cbbb059","6796e1c0ff24ca17c453c51c","67c6abb317d1045ae78b637b","passed","","5832","","","","","","","","","","","","","","{""checkTimedResponse"":""Your response will not be recorded, and the trial will move to the next one.""}","","","","","","","","","","[0]","","","",""
"","","","","","survey-multi-choice","25","297294","0.0-11.0-1.0-4.0","5d337586669d96001cbbb059","6796e1c0ff24ca17c453c51c","67c6abb317d1045ae78b637b","passed","","11744","","","","","","","","","","","","","","{""checkTimeBlockNotice"":""You won't be notified about the time limit.""}","","","","","","","","","","[0]","","","",""
"","","","","","survey-multi-choice","26","305012","0.0-11.0-1.0-5.0","5d337586669d96001cbbb059","6796e1c0ff24ca17c453c51c","67c6abb317d1045ae78b637b","passed","","7717","","","","","","","","","","","","","","{""checkTimeBlockSameness"":""Yes, the time limit is the same for all trials within a block.""}","","","","","","","","","","[0]","","","",""
"","","","","","survey-multi-choice","27","329368","0.0-11.0-1.0-6.0","5d337586669d96001cbbb059","6796e1c0ff24ca17c453c51c","67c6abb317d1045ae78b637b","passed","","24356","","","","","","","","","","","","","","{""checkTrianglePrecision"":""Yes. The proposed purple triangle is very close to the correct position, so I should choose 'Yes.'""}","","","","","","","","","","[0]","","","",""
"","","","","","html-button-response","28","332552","0.0-11.0-2.0-0.0","5d337586669d96001cbbb059","6796e1c0ff24ca17c453c51c","67c6abb317d1045ae78b637b","passed","","3183","","","","","","","","","","","","","<p>Oops! You did not pass the quiz.</p><p>You will now repeat the instructions and practice.</p>","0","","","","","","","","","","","failed","","",""
"","","","","","instructions","29","360100","0.0-11.1-0.1-0.1","5d337586669d96001cbbb059","6796e1c0ff24ca17c453c51c","67c6abb317d1045ae78b637b","passed","[{""page_index"":0,""viewing_time"":16079},{""page_index"":1,""viewing_time"":6177},{""page_index"":2,""viewing_time"":2776},{""page_index"":3,""viewing_time"":2515}]","27548","","","","","","","","","","","","","","","","","","","","","","","","","","","",""
"","","","","","html-keyboard-response","30","366799","0.0-11.1-0.1-1.1","5d337586669d96001cbbb059","6796e1c0ff24ca17c453c51c","67c6abb317d1045ae78b637b","passed","","6191","","","","","","","","","","","","","<br>Remember! After a ball falls, the screen will disappear, and you'll decide if the proposed position is where the hidden triangle was. <br>You will now practice this by watching a few videos and making decisions.<p>To respond:<br style=""margin-bottom: 5px; text-indent: -20px; padding-left: 20px;"">- Press <b style=""color: #12AD2B;"">J for Yes</b>, if you think the triangle is in the correct position.<br style=""margin-top: 0; text-indent: -20px; padding-left: 20px;"">- Press <b style=""color: orange;"">F for No</b>, if you think the triangle is not in the correct position.</p><p>In this practice round, there is no time limit. Focus on getting comfortable with the task first.<br>Press either J or F to begin your practice trials.</p><img src = ""YesOrNo_instruction.png"" style=""width: 65%;""></img>","f","","","","","","","","","","","","","",""
"","","","","","html-keyboard-response","31","368365","0.0-11.1-0.1-2.1-0.3","5d337586669d96001cbbb059","6796e1c0ff24ca17c453c51c","67c6abb317d1045ae78b637b","passed","","","","","","","","","","","","","","","","","ballFalling_prac","416","464","296","1","fallScene","false","","","","","","",""
"","","","","","html-keyboard-response","32","370795","0.0-11.1-0.1-2.1-1.3","5d337586669d96001cbbb059","6796e1c0ff24ca17c453c51c","67c6abb317d1045ae78b637b","passed","","2428","","","","","","","","","","","","","","f","yesOrNo_prac_noTimed","","","","1","","","gt","NA","","","","",""
"","","","","","html-keyboard-response","33","372903","0.0-11.1-0.1-2.1-0.4","5d337586669d96001cbbb059","6796e1c0ff24ca17c453c51c","67c6abb317d1045ae78b637b","passed","","","","","","","","","","","","","","","","","ballFalling_prac","660","666","350","3","fallScene","false","","","","","","",""
"","","","","","html-keyboard-response","34","374910","0.0-11.1-0.1-2.1-1.4","5d337586669d96001cbbb059","6796e1c0ff24ca17c453c51c","67c6abb317d1045ae78b637b","passed","","2006","","","","","","","","","","","","","","f","yesOrNo_prac_noTimed","","","","3","","","wrong direction","NA","","","","",""
"","","","","","html-keyboard-response","35","376489","0.0-11.1-0.1-2.1-0.5","5d337586669d96001cbbb059","6796e1c0ff24ca17c453c51c","67c6abb317d1045ae78b637b","passed","","","","","","","","","","","","","","","","","ballFalling_prac","441","414","302","5","fallScene","true","","","","","","",""
"","","","","","html-keyboard-response","36","378414","0.0-11.1-0.1-2.1-1.5","5d337586669d96001cbbb059","6796e1c0ff24ca17c453c51c","67c6abb317d1045ae78b637b","passed","","1925","","","","","","","","","","","","","","j","yesOrNo_prac_noTimed","","","","5","","","close gt","NA","","","","",""
"","","","","","instructions","37","429173","0.0-11.1-0.1-3.1","5d337586669d96001cbbb059","6796e1c0ff24ca17c453c51c","67c6abb317d1045ae78b637b","passed","[{""page_index"":0,""viewing_time"":32740},{""page_index"":1,""viewing_time"":18018}]","50758","","","","","","","","","","","","","","","","","","","","","","","","","","","",""
"","","","","","html-button-response","38","433358","0.0-11.1-0.1-4.1","5d337586669d96001cbbb059","6796e1c0ff24ca17c453c51c","67c6abb317d1045ae78b637b","passed","","3678","","","","","","","","","","","","","<p>To make sure you understood the task, we just have a <b>brief quiz</b> here.</p><p>If you need to review the instructions, click 'Previous'.</p><p>It's important to understand the task to do the study, so you have to pass the quiz to move to the study.</p>","1","","","","","","","","","","","","","",""
"","","","","","survey-multi-choice","39","445386","0.0-11.1-1.1-0.1","5d337586669d96001cbbb059","6796e1c0ff24ca17c453c51c","67c6abb317d1045ae78b637b","passed","","12027","","","","","","","","","","","","","","{""generalProcedure"":""Watch a video of a ball falling, some of it behind a gray screen. After each video, decide if the triangle is at the spot where the ball hit the triangle behind the screen. There is time limit for the response.""}","","","","","","","","","","[0]","","","",""
"","","","","","survey-multi-choice","40","448960","0.0-11.1-1.1-1.1","5d337586669d96001cbbb059","6796e1c0ff24ca17c453c51c","67c6abb317d1045ae78b637b","passed","","3573","","","","","","","","","","","","","","{""checkBallHitObstacle"":""Yes.""}","","","","","","","","","","[0]","","","",""
"","","","","","survey-multi-choice","41","453267","0.0-11.1-1.1-2.1","5d337586669d96001cbbb059","6796e1c0ff24ca17c453c51c","67c6abb317d1045ae78b637b","passed","","4307","","","","","","","","","","","","","","{""checkTriangleVisibility"":""No, the triangle is hidden behind the gray screen.""}","","","","","","","","","","[0]","","","",""
"","","","","","survey-multi-choice","42","458406","0.0-11.1-1.1-3.1","5d337586669d96001cbbb059","6796e1c0ff24ca17c453c51c","67c6abb317d1045ae78b637b","passed","","5138","","","","","","","","","","","","","","{""checkTimedResponse"":""Your response will not be recorded, and the trial will move to the next one.""}","","","","","","","","","","[0]","","","",""
"","","","","","survey-multi-choice","43","467959","0.0-11.1-1.1-4.1","5d337586669d96001cbbb059","6796e1c0ff24ca17c453c51c","67c6abb317d1045ae78b637b","passed","","9553","","","","","","","","","","","","","","{""checkTimeBlockNotice"":""At the beginning of each block.""}","","","","","","","","","","[0]","","","",""
"","","","","","survey-multi-choice","44","471313","0.0-11.1-1.1-5.1","5d337586669d96001cbbb059","6796e1c0ff24ca17c453c51c","67c6abb317d1045ae78b637b","passed","","3354","","","","","","","","","","","","","","{""checkTimeBlockSameness"":""Yes, the time limit is the same for all trials within a block.""}","","","","","","","","","","[0]","","","",""
"","","","","","survey-multi-choice","45","479026","0.0-11.1-1.1-6.1","5d337586669d96001cbbb059","6796e1c0ff24ca17c453c51c","67c6abb317d1045ae78b637b","passed","","7712","","","","","","","","","","","","","","{""checkTrianglePrecision"":""Yes. The proposed purple triangle is very close to the correct position, so I should choose 'Yes.'""}","","","","","","","","","","[0]","","","",""
"","","","","","html-button-response","46","481056","0.0-11.1-2.1-0.1","5d337586669d96001cbbb059","6796e1c0ff24ca17c453c51c","67c6abb317d1045ae78b637b","passed","","2029","","","","","","","","","","","","","<p>Oops! You did not pass the quiz.</p><p>You will now repeat the instructions and practice.</p>","0","","","","","","","","","","","failed","","",""
"","","","","","instructions","47","487365","0.0-11.2-0.2-0.2","5d337586669d96001cbbb059","6796e1c0ff24ca17c453c51c","67c6abb317d1045ae78b637b","passed","[{""page_index"":0,""viewing_time"":2411},{""page_index"":1,""viewing_time"":362},{""page_index"":2,""viewing_time"":2763},{""page_index"":3,""viewing_time"":772}]","6308","","","","","","","","","","","","","","","","","","","","","","","","","","","",""
"","","","","","html-keyboard-response","48","491074","0.0-11.2-0.2-1.2","5d337586669d96001cbbb059","6796e1c0ff24ca17c453c51c","67c6abb317d1045ae78b637b","passed","","3207","","","","","","","","","","","","","<br>Remember! After a ball falls, the screen will disappear, and you'll decide if the proposed position is where the hidden triangle was. <br>You will now practice this by watching a few videos and making decisions.<p>To respond:<br style=""margin-bottom: 5px; text-indent: -20px; padding-left: 20px;"">- Press <b style=""color: #12AD2B;"">J for Yes</b>, if you think the triangle is in the correct position.<br style=""margin-top: 0; text-indent: -20px; padding-left: 20px;"">- Press <b style=""color: orange;"">F for No</b>, if you think the triangle is not in the correct position.</p><p>In this practice round, there is no time limit. Focus on getting comfortable with the task first.<br>Press either J or F to begin your practice trials.</p><img src = ""YesOrNo_instruction.png"" style=""width: 65%;""></img>","f","","","","","","","","","","","","","",""
"","","","","","html-keyboard-response","49","493171","0.0-11.2-0.2-2.2-0.6","5d337586669d96001cbbb059","6796e1c0ff24ca17c453c51c","67c6abb317d1045ae78b637b","passed","","","","","","","","","","","","","","","","","ballFalling_prac","660","666","350","3","fallScene","false","","","","","","",""
"","","","","","html-keyboard-response","50","495710","0.0-11.2-0.2-2.2-1.6","5d337586669d96001cbbb059","6796e1c0ff24ca17c453c51c","67c6abb317d1045ae78b637b","passed","","2538","","","","","","","","","","","","","","f","yesOrNo_prac_noTimed","","","","3","","","wrong direction","NA","","","","",""
"","","","","","html-keyboard-response","51","497291","0.0-11.2-0.2-2.2-0.7","5d337586669d96001cbbb059","6796e1c0ff24ca17c453c51c","67c6abb317d1045ae78b637b","passed","","","","","","","","","","","","","","","","","ballFalling_prac","441","414","302","5","fallScene","true","","","","","","",""
"","","","","","html-keyboard-response","52","498639","0.0-11.2-0.2-2.2-1.7","5d337586669d96001cbbb059","6796e1c0ff24ca17c453c51c","67c6abb317d1045ae78b637b","passed","","1346","","","","","","","","","","","","","","j","yesOrNo_prac_noTimed","","","","5","","","close gt","NA","","","","",""
"","","","","","html-keyboard-response","53","500193","0.0-11.2-0.2-2.2-0.8","5d337586669d96001cbbb059","6796e1c0ff24ca17c453c51c","67c6abb317d1045ae78b637b","passed","","","","","","","","","","","","","","","","","ballFalling_prac","416","464","296","1","fallScene","false","","","","","","",""
"","","","","","html-keyboard-response","54","501472","0.0-11.2-0.2-2.2-1.8","5d337586669d96001cbbb059","6796e1c0ff24ca17c453c51c","67c6abb317d1045ae78b637b","passed","","1278","","","","","","","","","","","","","","j","yesOrNo_prac_noTimed","","","","1","","","gt","NA","","","","",""
"","","","","","instructions","55","532272","0.0-11.2-0.2-3.2","5d337586669d96001cbbb059","6796e1c0ff24ca17c453c51c","67c6abb317d1045ae78b637b","passed","[{""page_index"":0,""viewing_time"":29084},{""page_index"":1,""viewing_time"":1715}]","30800","","","","","","","","","","","","","","","","","","","","","","","","","","","",""
"","","","","","html-button-response","56","533673","0.0-11.2-0.2-4.2","5d337586669d96001cbbb059","6796e1c0ff24ca17c453c51c","67c6abb317d1045ae78b637b","passed","","896","","","","","","","","","","","","","<p>To make sure you understood the task, we just have a <b>brief quiz</b> here.</p><p>If you need to review the instructions, click 'Previous'.</p><p>It's important to understand the task to do the study, so you have to pass the quiz to move to the study.</p>","1","","","","","","","","","","","","","",""
"","","","","","survey-multi-choice","57","547059","0.0-11.2-1.2-0.2","5d337586669d96001cbbb059","6796e1c0ff24ca17c453c51c","67c6abb317d1045ae78b637b","passed","","13385","","","","","","","","","","","","","","{""generalProcedure"":""Watch a video of a ball falling, some of it behind a gray screen. After each video, decide if the triangle is at the spot where the ball hit the triangle behind the screen. There is time limit for the response.""}","","","","","","","","","","[0]","","","",""
"","","","","","survey-multi-choice","58","553171","0.0-11.2-1.2-1.2","5d337586669d96001cbbb059","6796e1c0ff24ca17c453c51c","67c6abb317d1045ae78b637b","passed","","6112","","","","","","","","","","","","","","{""checkBallHitObstacle"":""Yes.""}","","","","","","","","","","[0]","","","",""
"","","","","","survey-multi-choice","59","555972","0.0-11.2-1.2-2.2","5d337586669d96001cbbb059","6796e1c0ff24ca17c453c51c","67c6abb317d1045ae78b637b","passed","","2800","","","","","","","","","","","","","","{""checkTriangleVisibility"":""No, the triangle is hidden behind the gray screen.""}","","","","","","","","","","[0]","","","",""
"","","","","","survey-multi-choice","60","558187","0.0-11.2-1.2-3.2","5d337586669d96001cbbb059","6796e1c0ff24ca17c453c51c","67c6abb317d1045ae78b637b","passed","","2214","","","","","","","","","","","","","","{""checkTimedResponse"":""Your response will not be recorded, and the trial will move to the next one.""}","","","","","","","","","","[0]","","","",""
"","","","","","survey-multi-choice","61","568897","0.0-11.2-1.2-4.2","5d337586669d96001cbbb059","6796e1c0ff24ca17c453c51c","67c6abb317d1045ae78b637b","passed","","10709","","","","","","","","","","","","","","{""checkTimeBlockNotice"":""At the beginning of each block.""}","","","","","","","","","","[0]","","","",""
"","","","","","survey-multi-choice","62","577989","0.0-11.2-1.2-5.2","5d337586669d96001cbbb059","6796e1c0ff24ca17c453c51c","67c6abb317d1045ae78b637b","passed","","9091","","","","","","","","","","","","","","{""checkTimeBlockSameness"":""Yes, the time limit is the same for all trials within a block.""}","","","","","","","","","","[0]","","","",""
"","","","","","survey-multi-choice","63","585991","0.0-11.2-1.2-6.2","5d337586669d96001cbbb059","6796e1c0ff24ca17c453c51c","67c6abb317d1045ae78b637b","passed","","8002","","","","","","","","","","","","","","{""checkTrianglePrecision"":""No. The proposed purple triangle is not in the correct position because it doesn't match the location of the white triangle exactly.""}","","","","","","","","","","[0]","","","",""
"","","","","","instructions","64","604410","0.0-12.0","5d337586669d96001cbbb059","6796e1c0ff24ca17c453c51c","67c6abb317d1045ae78b637b","passed","[{""page_index"":0,""viewing_time"":6451},{""page_index"":1,""viewing_time"":3231},{""page_index"":2,""viewing_time"":3684},{""page_index"":3,""viewing_time"":5052}]","18418","","","","","","","","","","","","","","","","","","","","","","","","","","","",""
"","","","","","instructions","65","612837","0.0-13.0-0.0","5d337586669d96001cbbb059","6796e1c0ff24ca17c453c51c","67c6abb317d1045ae78b637b","passed","[{""page_index"":0,""viewing_time"":8427}]","8427","","","","","","","","","","","","","","","","","","","","","","","","","","","",""
"","","","","","html-keyboard-response","66","616879","0.0-13.0-1.0","5d337586669d96001cbbb059","6796e1c0ff24ca17c453c51c","67c6abb317d1045ae78b637b","passed","","4041","","","","","","","","","","","","","<p><span style=""font-size:40px;"">Practice BLOCK 1</span></p><p><span style=""font-size:25px;"">You have <b style=""color: #FF644F;""><strong>3 second(s)</strong></b> to respond to the following trials.</span><br></p><p id=""blinking-text"" style=""font-weight; animation: blink 2s infinite;"">Press Space to continue</p><style>
                    @keyframes blink {
                        50% {
                            opacity: 0;
                        }
                    }
                </style>"," ","","","","","","","","","","","","","",""
"","","","","","html-keyboard-response","67","618460","0.0-13.0-2.0-0.0","5d337586669d96001cbbb059","6796e1c0ff24ca17c453c51c","67c6abb317d1045ae78b637b","passed","","","","","","","","","","","","","","","","","ballFalling_prac","660","610","263","4","fallScene","false","","","","","","",""
"","","","","","html-keyboard-response","68","621464","0.0-13.0-2.0-1.0","5d337586669d96001cbbb059","6796e1c0ff24ca17c453c51c","67c6abb317d1045ae78b637b","passed","","492","","","","","","","","","","","","","","j","yesOrNo_prac","","","","4","","","gt","3000","","","","",""
"","","","","","html-keyboard-response","69","623031","0.0-13.0-2.0-0.1","5d337586669d96001cbbb059","6796e1c0ff24ca17c453c51c","67c6abb317d1045ae78b637b","passed","","","","","","","","","","","","","","","","","ballFalling_prac","584","536","296","1","fallScene","true","","","","","","",""
"","","","","","html-keyboard-response","70","626033","0.0-13.0-2.0-1.1","5d337586669d96001cbbb059","6796e1c0ff24ca17c453c51c","67c6abb317d1045ae78b637b","passed","","756","","","","","","","","","","","","","","f","yesOrNo_prac","","","","1","","","close gt","3000","","","","",""
"","","","","","html-keyboard-response","71","627587","0.0-13.0-2.0-0.2","5d337586669d96001cbbb059","6796e1c0ff24ca17c453c51c","67c6abb317d1045ae78b637b","passed","","","","","","","","","","","","","","","","","ballFalling_prac","416","464","296","1","fallScene","false","","","","","","",""
"","","","","","html-keyboard-response","72","630589","0.0-13.0-2.0-1.2","5d337586669d96001cbbb059","6796e1c0ff24ca17c453c51c","67c6abb317d1045ae78b637b","passed","","868","","","","","","","","","","","","","","j","yesOrNo_prac","","","","1","","","far gt","3000","","","","",""
"","","","","","html-keyboard-response","73","634747","0.0-13.0-3.0","5d337586669d96001cbbb059","6796e1c0ff24ca17c453c51c","67c6abb317d1045ae78b637b","passed","","4157","","","","","","","","","","","","","<p><span style=""font-size:40px;"">Practice BLOCK 2</span></p><p><span style=""font-size:25px;"">You have <b style=""color: #FF644F;""><strong>0.7 second(s)</strong></b> to respond to the following trials.</span><br></p><p id=""blinking-text"" style=""font-weight; animation: blink 2s infinite;"">Press Space to continue</p><style>
                    @keyframes blink {
                        50% {
                            opacity: 0;
                        }
                    }
                </style>"," ","","","","","","","","","","","","","",""
"","","","","","html-keyboard-response","74","636308","0.0-13.0-4.0-0.0","5d337586669d96001cbbb059","6796e1c0ff24ca17c453c51c","67c6abb317d1045ae78b637b","passed","","","","","","","","","","","","","","","","","ballFalling_prac","441","500","317","6","fallScene","true","","","","","","",""
"","","","","","html-keyboard-response","75","637010","0.0-13.0-4.0-1.0","5d337586669d96001cbbb059","6796e1c0ff24ca17c453c51c","67c6abb317d1045ae78b637b","passed","","587","","","","","","","","","","","","","","j","yesOrNo_prac","","","","6","","","gt","700","","","","",""
"","","","","","html-keyboard-response","76","638593","0.0-13.0-4.0-0.1","5d337586669d96001cbbb059","6796e1c0ff24ca17c453c51c","67c6abb317d1045ae78b637b","passed","","","","","","","","","","","","","","","","","ballFalling_prac","660","610","263","4","fallScene","false","","","","","","",""
"","","","","","html-keyboard-response","77","639295","0.0-13.0-4.0-1.1","5d337586669d96001cbbb059","6796e1c0ff24ca17c453c51c","67c6abb317d1045ae78b637b","passed","","559","","","","","","","","","","","","","","j","yesOrNo_prac","","","","4","","","far gt","700","","","","",""
"","","","","","html-keyboard-response","78","641413","0.0-13.0-4.0-0.2","5d337586669d96001cbbb059","6796e1c0ff24ca17c453c51c","67c6abb317d1045ae78b637b","passed","","","","","","","","","","","","","","","","","ballFalling_prac","340","334","350","3","fallScene","true","","","","","","",""
"","","","","","html-keyboard-response","79","642114","0.0-13.0-4.0-1.2","5d337586669d96001cbbb059","6796e1c0ff24ca17c453c51c","67c6abb317d1045ae78b637b","passed","","null","","","","","","","","","","","","","","null","yesOrNo_prac","","","","3","","","close gt","700","","","","",""
"","","","","","instructions","80","645605","0.0-13.0-5.0","5d337586669d96001cbbb059","6796e1c0ff24ca17c453c51c","67c6abb317d1045ae78b637b","passed","[{""page_index"":0,""viewing_time"":3490}]","3490","","","","","","","","","","","","","","","","","","","","","","","","","","","",""
"","","","","","html-keyboard-response","81","647551","0.0-13.0-6.0","5d337586669d96001cbbb059","6796e1c0ff24ca17c453c51c","67c6abb317d1045ae78b637b","passed","","1945","","","","","","","","","","","","","<p><span style=""font-size:40px;"">Practice Test BLOCK 1</span></p><p><span style=""font-size:25px;"">You have <b style=""color: #FF644F;""><strong>0.7 second(s)</strong></b> to respond to the following trials.</span><br></p><p id=""blinking-text"" style=""font-weight; animation: blink 2s infinite;"">Press Space to continue</p><style>
                    @keyframes blink {
                        50% {
                            opacity: 0;
                        }
                    }
                </style>"," ","","","","","","","","","","","","","",""
"","","","","","html-keyboard-response","82","649136","0.0-13.0-7.0-0.0","5d337586669d96001cbbb059","6796e1c0ff24ca17c453c51c","67c6abb317d1045ae78b637b","passed","","","","","","","","","","","","","","","","","ballFalling_prac","559","586","302","5","fallScene","false","","","","","","",""
"","","","","","html-keyboard-response","83","649837","0.0-13.0-7.0-1.0","5d337586669d96001cbbb059","6796e1c0ff24ca17c453c51c","67c6abb317d1045ae78b637b","passed","","458","","","","","","","","","","","","","","f","yesOrNo_prac","","","","5","","","gt","700","","","","",""
"","","","","","html-keyboard-response","84","651405","0.0-13.0-7.0-0.1","5d337586669d96001cbbb059","6796e1c0ff24ca17c453c51c","67c6abb317d1045ae78b637b","passed","","","","","","","","","","","","","","","","","ballFalling_prac","441","500","317","6","fallScene","true","","","","","","",""
"","","","","","html-keyboard-response","85","652112","0.0-13.0-7.0-1.1","5d337586669d96001cbbb059","6796e1c0ff24ca17c453c51c","67c6abb317d1045ae78b637b","passed","","649","","","","","","","","","","","","","","j","yesOrNo_prac","","","","6","","","close gt","700","","","","",""
"","","","","","html-keyboard-response","86","653689","0.0-13.0-7.0-0.2","5d337586669d96001cbbb059","6796e1c0ff24ca17c453c51c","67c6abb317d1045ae78b637b","passed","","","","","","","","","","","","","","","","","ballFalling_prac","340","390","263","4","fallScene","true","","","","","","",""
"","","","","","html-keyboard-response","87","654391","0.0-13.0-7.0-1.2","5d337586669d96001cbbb059","6796e1c0ff24ca17c453c51c","67c6abb317d1045ae78b637b","passed","","514","","","","","","","","","","","","","","j","yesOrNo_prac","","","","4","","","far gt","700","","","","",""
"","","","","","html-keyboard-response","88","655512","0.0-13.0-8.0","5d337586669d96001cbbb059","6796e1c0ff24ca17c453c51c","67c6abb317d1045ae78b637b","passed","","1121","","","","","","","","","","","","","<p><span style=""font-size:40px;"">Practice Test BLOCK 2</span></p><p><span style=""font-size:25px;"">You have <b style=""color: #FF644F;""><strong>3 second(s)</strong></b> to respond to the following trials.</span><br></p><p id=""blinking-text"" style=""font-weight; animation: blink 2s infinite;"">Press Space to continue</p><style>
                    @keyframes blink {
                        50% {
                            opacity: 0;
                        }
                    }
                </style>"," ","","","","","","","","","","","","","",""
"","","","","","html-keyboard-response","89","657093","0.0-13.0-9.0-0.0","5d337586669d96001cbbb059","6796e1c0ff24ca17c453c51c","67c6abb317d1045ae78b637b","passed","","","","","","","","","","","","","","","","","ballFalling_prac","416","365","249","2","fallScene","false","","","","","","",""
"","","","","","html-keyboard-response","90","660095","0.0-13.0-9.0-1.0","5d337586669d96001cbbb059","6796e1c0ff24ca17c453c51c","67c6abb317d1045ae78b637b","passed","","919","","","","","","","","","","","","","","f","yesOrNo_prac","","","","2","","","gt","3000","","","","",""
"","","","","","html-keyboard-response","91","661663","0.0-13.0-9.0-0.1","5d337586669d96001cbbb059","6796e1c0ff24ca17c453c51c","67c6abb317d1045ae78b637b","passed","","","","","","","","","","","","","","","","","ballFalling_prac","559","586","302","5","fallScene","false","","","","","","",""
"","","","","","html-keyboard-response","92","664666","0.0-13.0-9.0-1.1","5d337586669d96001cbbb059","6796e1c0ff24ca17c453c51c","67c6abb317d1045ae78b637b","passed","","1498","","","","","","","","","","","","","","f","yesOrNo_prac","","","","5","","","far gt","3000","","","","",""
"","","","","","html-keyboard-response","93","666234","0.0-13.0-9.0-0.2","5d337586669d96001cbbb059","6796e1c0ff24ca17c453c51c","67c6abb317d1045ae78b637b","passed","","","","","","","","","","","","","","","","","ballFalling_prac","340","390","263","4","fallScene","true","","","","","","",""
"","","","","","html-keyboard-response","94","669236","0.0-13.0-9.0-1.2","5d337586669d96001cbbb059","6796e1c0ff24ca17c453c51c","67c6abb317d1045ae78b637b","passed","","676","","","","","","","","","","","","","","j","yesOrNo_prac","","","","4","","","close gt","3000","","","","",""
"","","","","","instructions","95","673983","0.0-14.0","5d337586669d96001cbbb059","6796e1c0ff24ca17c453c51c","67c6abb317d1045ae78b637b","passed","[{""page_index"":0,""viewing_time"":4746}]","4746","","","","","","","","","","","","","","","","","","","","","","","","","","","",""
"","","","","","html-keyboard-response","96","675986","0.0-15.0","5d337586669d96001cbbb059","6796e1c0ff24ca17c453c51c","67c6abb317d1045ae78b637b","passed","","2003","","","","","","","","","","","","","<p><span style=""font-size:40px;"">BLOCK 1</span></p><p><span style=""font-size:25px;"">You have <b style=""color: #FF644F;""><strong>3 second(s)</strong></b> to respond to the following trials.</span><br></p><p></p> <!-- Blank line -->
                <p id=""blinking-text"" style=""font-weight; animation: blink 2s infinite;"">Press Space to continue</p>
                <style>
                    @keyframes blink {
                        50% {
                            opacity: 0;
                        }
                    }
                </style></p>"," ","","","","","","","","","","","","","",""
"","","","","","html-keyboard-response","97","677543","0.0-16.0-0.0","5d337586669d96001cbbb059","6796e1c0ff24ca17c453c51c","67c6abb317d1045ae78b637b","passed","","","","","","","","","","","","","","","","","ballFalling","322.3","296.07114317029976","371.46","3","fallScene","true","","","","","1","",""
"","","","","","html-keyboard-response","98","680545","0.0-16.0-1.0","5d337586669d96001cbbb059","6796e1c0ff24ca17c453c51c","67c6abb317d1045ae78b637b","passed","","644","","","","","","","","","","","","","","j","yesOrNo","","","","3","","","gt","3000","","","1","296.07114317029976","371.46"
"","","","","","html-keyboard-response","99","682097","0.0-16.0-0.1","5d337586669d96001cbbb059","6796e1c0ff24ca17c453c51c","67c6abb317d1045ae78b637b","passed","","","","","","","","","","","","","","","","","ballFalling","322.3","379.3711431702997","245.25","1","fallScene","true","","","","","2","",""
"","","","","","html-keyboard-response","100","685100","0.0-16.0-1.1","5d337586669d96001cbbb059","6796e1c0ff24ca17c453c51c","67c6abb317d1045ae78b637b","passed","","652","","","","","","","","","","","","","","f","yesOrNo","","","","1","","","mid","3000","","","2","390.27114317029975","300"
"","","","","","html-keyboard-response","101","686651","0.0-16.0-0.2","5d337586669d96001cbbb059","6796e1c0ff24ca17c453c51c","67c6abb317d1045ae78b637b","passed","","","","","","","","","","","","","","","","","ballFalling","322.3","379.3711431702997","245.25","1","fallScene","true","","","","","3","",""
"","","","","","html-keyboard-response","102","689653","0.0-16.0-1.2","5d337586669d96001cbbb059","6796e1c0ff24ca17c453c51c","67c6abb317d1045ae78b637b","passed","","787","","","","","","","","","","","","","","f","yesOrNo","","","","1","","","lp","3000","","","3","323.3","217.74551669457017"
"","","","","","html-keyboard-response","103","691204","0.0-16.0-0.3","5d337586669d96001cbbb059","6796e1c0ff24ca17c453c51c","67c6abb317d1045ae78b637b","passed","","","","","","","","","","","","","","","","","ballFalling","322.3","356.42114317029973","357.87","4","fallScene","false","","","","","4","",""
"","","","","","html-keyboard-response","104","694207","0.0-16.0-1.3","5d337586669d96001cbbb059","6796e1c0ff24ca17c453c51c","67c6abb317d1045ae78b637b","passed","","1446","","","","","","","","","","","","","","f","yesOrNo","","","","4","","","lp","3000","","","4","323.3","297.4070551689986"
"","","","","","html-keyboard-response","105","695758","0.0-16.0-0.4","5d337586669d96001cbbb059","6796e1c0ff24ca17c453c51c","67c6abb317d1045ae78b637b","passed","","","","","","","","","","","","","","","","","ballFalling","604.4000000000001","575.4211431702997","266.76","12","fallScene","true","","","","","5","",""
"","","","","","html-keyboard-response","106","698761","0.0-16.0-1.4","5d337586669d96001cbbb059","6796e1c0ff24ca17c453c51c","67c6abb317d1045ae78b637b","passed","","1508","","","","","","","","","","","","","","f","yesOrNo","","","","12","","","mid","3000","","","5","536.4288568297004","300"
"","","","","","html-keyboard-response","107","700763","0.0-16.0-0.5","5d337586669d96001cbbb059","6796e1c0ff24ca17c453c51c","67c6abb317d1045ae78b637b","passed","","","","","","","","","","","","","","","","","ballFalling","604.4000000000001","596.8711431702998","394.5","10","fallScene","true","","","","","6","",""
"","","","","","html-keyboard-response","108","703765","0.0-16.0-1.5","5d337586669d96001cbbb059","6796e1c0ff24ca17c453c51c","67c6abb317d1045ae78b637b","passed","","893","","","","","","","","","","","","","","f","yesOrNo","","","","10","","","lp","3000","","","6","603.4000000000001","215.50214355555383"
"","","","","","html-keyboard-response","109","705317","0.0-16.0-0.6","5d337586669d96001cbbb059","6796e1c0ff24ca17c453c51c","67c6abb317d1045ae78b637b","passed","","","","","","","","","","","","","","","","","ballFalling","322.3","356.42114317029973","357.87","4","fallScene","true","","","","","7","",""
"","","","","","html-keyboard-response","110","708319","0.0-16.0-1.6","5d337586669d96001cbbb059","6796e1c0ff24ca17c453c51c","67c6abb317d1045ae78b637b","passed","","548","","","","","","","","","","","","","","j","yesOrNo","","","","4","","","gt","3000","","","7","356.42114317029973","357.87"
"","","","","","html-keyboard-response","111","709971","0.0-16.0-0.7","5d337586669d96001cbbb059","6796e1c0ff24ca17c453c51c","67c6abb317d1045ae78b637b","passed","","","","","","","","","","","","","","","","","ballFalling","500","479.92114317029973","330.87","6","fallScene","true","","","","","8","",""
"","","","","","html-keyboard-response","112","712973","0.0-16.0-1.7","5d337586669d96001cbbb059","6796e1c0ff24ca17c453c51c","67c6abb317d1045ae78b637b","passed","","573","","","","","","","","","","","","","","j","yesOrNo","","","","6","","","mid","3000","","","8","499","300"
"","","","","","html-keyboard-response","113","714625","0.0-16.0-0.8","5d337586669d96001cbbb059","6796e1c0ff24ca17c453c51c","67c6abb317d1045ae78b637b","passed","","","","","","","","","","","","","","","","","ballFalling","500","479.92114317029973","330.87","6","fallScene","true","","","","","9","",""
"","","","","","html-keyboard-response","114","717627","0.0-16.0-1.8","5d337586669d96001cbbb059","6796e1c0ff24ca17c453c51c","67c6abb317d1045ae78b637b","passed","","566","","","","","","","","","","","","","","f","yesOrNo","","","","6","","","lp","3000","","","9","499","189.92909825697632"
"","","","","","html-keyboard-response","115","719629","0.0-16.0-0.9","5d337586669d96001cbbb059","6796e1c0ff24ca17c453c51c","67c6abb317d1045ae78b637b","passed","","","","","","","","","","","","","","","","","ballFalling","604.4000000000001","596.8711431702998","394.5","10","fallScene","false","","","","","10","",""
"","","","","","html-keyboard-response","116","722631","0.0-16.0-1.9","5d337586669d96001cbbb059","6796e1c0ff24ca17c453c51c","67c6abb317d1045ae78b637b","passed","","668","","","","","","","","","","","","","","f","yesOrNo","","","","10","","","lp","3000","","","10","603.4000000000001","215.50214355555383"
"","","","","","html-keyboard-response","117","724633","0.0-16.0-0.10","5d337586669d96001cbbb059","6796e1c0ff24ca17c453c51c","67c6abb317d1045ae78b637b","passed","","","","","","","","","","","","","","","","","ballFalling","604.4000000000001","596.8711431702998","394.5","10","fallScene","true","","","","","11","",""
"","","","","","html-keyboard-response","118","727635","0.0-16.0-1.10","5d337586669d96001cbbb059","6796e1c0ff24ca17c453c51c","67c6abb317d1045ae78b637b","passed","","1473","","","","","","","","","","","","","","f","yesOrNo","","","","10","","","gt","3000","","","11","596.8711431702998","394.5"
"","","","","","html-keyboard-response","119","729187","0.0-16.0-0.11","5d337586669d96001cbbb059","6796e1c0ff24ca17c453c51c","67c6abb317d1045ae78b637b","passed","","","","","","","","","","","","","","","","","ballFalling","604.4000000000001","650.0211431702996","404.58000000000004","11","fallScene","true","","","","","12","",""
"","","","","","html-keyboard-response","120","732189","0.0-16.0-1.11","5d337586669d96001cbbb059","6796e1c0ff24ca17c453c51c","67c6abb317d1045ae78b637b","passed","","1684","","","","","","","","","","","","","","j","yesOrNo","","","","11","","","gt","3000","","","12","650.0211431702996","404.58"
"","","","","","html-keyboard-response","121","733841","0.0-16.0-0.12","5d337586669d96001cbbb059","6796e1c0ff24ca17c453c51c","67c6abb317d1045ae78b637b","passed","","","","","","","","","","","","","","","","","ballFalling","500","479.92114317029973","330.87","6","fallScene","true","","","","","13","",""
"","","","","","html-keyboard-response","122","736843","0.0-16.0-1.12","5d337586669d96001cbbb059","6796e1c0ff24ca17c453c51c","67c6abb317d1045ae78b637b","passed","","695","","","","","","","","","","","","","","f","yesOrNo","","","","6","","","lp","3000","","","13","499","189.92909825697632"
"","","","","","html-keyboard-response","123","738395","0.0-16.0-0.13","5d337586669d96001cbbb059","6796e1c0ff24ca17c453c51c","67c6abb317d1045ae78b637b","passed","","","","","","","","","","","","","","","","","ballFalling","604.4000000000001","575.4211431702997","266.76","12","fallScene","true","","","","","14","",""
"","","","","","html-keyboard-response","124","741397","0.0-16.0-1.13","5d337586669d96001cbbb059","6796e1c0ff24ca17c453c51c","67c6abb317d1045ae78b637b","passed","","703","","","","","","","","","","","","","","j","yesOrNo","","","","12","","","gt","3000","","","14","575.4211431702997","266.76"
"","","","","","html-keyboard-response","125","742949","0.0-16.0-0.14","5d337586669d96001cbbb059","6796e1c0ff24ca17c453c51c","67c6abb317d1045ae78b637b","passed","","","","","","","","","","","","","","","","","ballFalling","322.3","356.42114317029973","357.87","4","fallScene","false","","","","","15","",""
"","","","","","html-keyboard-response","126","745951","0.0-16.0-1.14","5d337586669d96001cbbb059","6796e1c0ff24ca17c453c51c","67c6abb317d1045ae78b637b","passed","","796","","","","","","","","","","","","","","f","yesOrNo","","","","4","","","lp","3000","","","15","323.3","297.4070551689986"
"","","","","","html-keyboard-response","127","747736","0.0-16.0-0.15","5d337586669d96001cbbb059","6796e1c0ff24ca17c453c51c","67c6abb317d1045ae78b637b","passed","","","","","","","","","","","","","","","","","ballFalling","322.3","308.07114317029976","253.89","2","fallScene","true","","","","","16","",""
"","","","","","html-keyboard-response","128","750739","0.0-16.0-1.15","5d337586669d96001cbbb059","6796e1c0ff24ca17c453c51c","67c6abb317d1045ae78b637b","passed","","752","","","","","","","","","","","","","","f","yesOrNo","","","","2","","","lp","3000","","","16","321.3","151"
"","","","","","html-keyboard-response","129","752740","0.0-16.0-0.16","5d337586669d96001cbbb059","6796e1c0ff24ca17c453c51c","67c6abb317d1045ae78b637b","passed","","","","","","","","","","","","","","","","","ballFalling","500","510.8711431702997","369.03","8","fallScene","false","","","","","17","",""
"","","","","","html-keyboard-response","130","755742","0.0-16.0-1.16","5d337586669d96001cbbb059","6796e1c0ff24ca17c453c51c","67c6abb317d1045ae78b637b","passed","","1611","","","","","","","","","","","","","","j","yesOrNo","","","","8","","","mid","3000","","","17","501","300"
"","","","","","html-keyboard-response","131","757293","0.0-16.0-0.17","5d337586669d96001cbbb059","6796e1c0ff24ca17c453c51c","67c6abb317d1045ae78b637b","passed","","","","","","","","","","","","","","","","","ballFalling","604.4000000000001","575.4211431702997","266.76","12","fallScene","true","","","","","18","",""
"","","","","","html-keyboard-response","132","760296","0.0-16.0-1.17","5d337586669d96001cbbb059","6796e1c0ff24ca17c453c51c","67c6abb317d1045ae78b637b","passed","","553","","","","","","","","","","","","","","f","yesOrNo","","","","12","","","lp","3000","","","18","603.4000000000001","151"
"","","","","","html-keyboard-response","133","762298","0.0-16.0-0.18","5d337586669d96001cbbb059","6796e1c0ff24ca17c453c51c","67c6abb317d1045ae78b637b","passed","","","","","","","","","","","","","","","","","ballFalling","500","510.8711431702997","369.03","8","fallScene","true","","","","","19","",""
"","","","","","html-keyboard-response","134","765300","0.0-16.0-1.18","5d337586669d96001cbbb059","6796e1c0ff24ca17c453c51c","67c6abb317d1045ae78b637b","passed","","1240","","","","","","","","","","","","","","f","yesOrNo","","","","8","","","gt","3000","","","19","510.8711431702997","369.03"
"","","","","","html-keyboard-response","135","766852","0.0-16.0-0.19","5d337586669d96001cbbb059","6796e1c0ff24ca17c453c51c","67c6abb317d1045ae78b637b","passed","","","","","","","","","","","","","","","","","ballFalling","322.3","379.3711431702997","245.25","1","fallScene","true","","","","","20","",""
"","","","","","html-keyboard-response","136","769854","0.0-16.0-1.19","5d337586669d96001cbbb059","6796e1c0ff24ca17c453c51c","67c6abb317d1045ae78b637b","passed","","737","","","","","","","","","","","","","","j","yesOrNo","","","","1","","","gt","3000","","","20","379.3711431702997","245.25"
"","","","","","html-keyboard-response","137","771505","0.0-16.0-0.20","5d337586669d96001cbbb059","6796e1c0ff24ca17c453c51c","67c6abb317d1045ae78b637b","passed","","","","","","","","","","","","","","","","","ballFalling","500","479.92114317029973","330.87","6","fallScene","true","","","","","21","",""
"","","","","","html-keyboard-response","138","774508","0.0-16.0-1.20","5d337586669d96001cbbb059","6796e1c0ff24ca17c453c51c","67c6abb317d1045ae78b637b","passed","","516","","","","","","","","","","","","","","j","yesOrNo","","","","6","","","gt","3000","","","21","479.9211431702998","330.87"
"","","","","","html-keyboard-response","139","776160","0.0-16.0-0.21","5d337586669d96001cbbb059","6796e1c0ff24ca17c453c51c","67c6abb317d1045ae78b637b","passed","","","","","","","","","","","","","","","","","ballFalling","500","479.92114317029973","330.87","6","fallScene","false","","","","","22","",""
"","","","","","html-keyboard-response","140","779162","0.0-16.0-1.21","5d337586669d96001cbbb059","6796e1c0ff24ca17c453c51c","67c6abb317d1045ae78b637b","passed","","765","","","","","","","","","","","","","","j","yesOrNo","","","","6","","","gt","3000","","","22","479.9211431702998","330.87"
"","","","","","html-keyboard-response","141","780947","0.0-16.0-0.22","5d337586669d96001cbbb059","6796e1c0ff24ca17c453c51c","67c6abb317d1045ae78b637b","passed","","","","","","","","","","","","","","","","","ballFalling","322.3","308.07114317029976","253.89","2","fallScene","false","","","","","23","",""
"","","","","","html-keyboard-response","142","783949","0.0-16.0-1.22","5d337586669d96001cbbb059","6796e1c0ff24ca17c453c51c","67c6abb317d1045ae78b637b","passed","","657","","","","","","","","","","","","","","j","yesOrNo","","","","2","","","gt","3000","","","23","308.07114317029976","253.89"
"","","","","","html-keyboard-response","143","785951","0.0-16.0-0.23","5d337586669d96001cbbb059","6796e1c0ff24ca17c453c51c","67c6abb317d1045ae78b637b","passed","","","","","","","","","","","","","","","","","ballFalling","500","510.8711431702997","369.03","8","fallScene","false","","","","","24","",""
"","","","","","html-keyboard-response","144","788954","0.0-16.0-1.23","5d337586669d96001cbbb059","6796e1c0ff24ca17c453c51c","67c6abb317d1045ae78b637b","passed","","525","","","","","","","","","","","","","","f","yesOrNo","","","","8","","","lp","3000","","","24","501","151"
"","","","","","html-keyboard-response","145","790815","0.0-17.0","5d337586669d96001cbbb059","6796e1c0ff24ca17c453c51c","67c6abb317d1045ae78b637b","passed","","1861","","","","","","","","","","","","","<p><span style=""font-size:40px;"">BLOCK 2</span></p><p><span style=""font-size:25px;"">You have <b style=""color: #FF644F;""><strong>0.7 second(s)</strong></b> to respond to the following trials.</span><br></p><p></p> <!-- Blank line -->
                <p id=""blinking-text"" style=""font-weight; animation: blink 2s infinite;"">Press Space to continue</p>
                <style>
                    @keyframes blink {
                        50% {
                            opacity: 0;
                        }
                    }
                </style></p>"," ","","","","","","","","","","","","","",""
"","","","","","html-keyboard-response","146","792374","0.0-18.0-0.0","5d337586669d96001cbbb059","6796e1c0ff24ca17c453c51c","67c6abb317d1045ae78b637b","passed","","","","","","","","","","","","","","","","","ballFalling","604.4000000000001","650.0211431702996","404.58000000000004","11","fallScene","true","","","","","25","",""
"","","","","","html-keyboard-response","147","793090","0.0-18.0-1.0","5d337586669d96001cbbb059","6796e1c0ff24ca17c453c51c","67c6abb317d1045ae78b637b","passed","","687","","","","","","","","","","","","","","f","yesOrNo","","","","11","","","gt","700","","","25","650.0211431702996","404.58"
"","","","","","html-keyboard-response","148","794743","0.0-18.0-0.1","5d337586669d96001cbbb059","6796e1c0ff24ca17c453c51c","67c6abb317d1045ae78b637b","passed","","","","","","","","","","","","","","","","","ballFalling","500","479.92114317029973","330.87","6","fallScene","true","","","","","26","",""
"","","","","","html-keyboard-response","149","795450","0.0-18.0-1.1","5d337586669d96001cbbb059","6796e1c0ff24ca17c453c51c","67c6abb317d1045ae78b637b","passed","","null","","","","","","","","","","","","","","null","yesOrNo","","","","6","","","gt","700","","","26","479.9211431702998","330.87"
"","","","","","html-keyboard-response","150","797011","0.0-18.0-0.2","5d337586669d96001cbbb059","6796e1c0ff24ca17c453c51c","67c6abb317d1045ae78b637b","passed","","","","","","","","","","","","","","","","","ballFalling","322.3","296.07114317029976","371.46","3","fallScene","true","","","","","27","",""
"","","","","","html-keyboard-response","151","797719","0.0-18.0-1.2","5d337586669d96001cbbb059","6796e1c0ff24ca17c453c51c","67c6abb317d1045ae78b637b","passed","","479","","","","","","","","","","","","","","j","yesOrNo","","","","3","","","gt","700","","","27","296.07114317029976","371.46"
"","","","","","html-keyboard-response","152","799513","0.0-18.0-0.3","5d337586669d96001cbbb059","6796e1c0ff24ca17c453c51c","67c6abb317d1045ae78b637b","passed","","","","","","","","","","","","","","","","","ballFalling","322.3","308.07114317029976","253.89","2","fallScene","true","","","","","28","",""
"","","","","","html-keyboard-response","153","800214","0.0-18.0-1.3","5d337586669d96001cbbb059","6796e1c0ff24ca17c453c51c","67c6abb317d1045ae78b637b","passed","","468","","","","","","","","","","","","","","j","yesOrNo","","","","2","","","gt","700","","","28","308.07114317029976","253.89"
"","","","","","html-keyboard-response","154","801781","0.0-18.0-0.4","5d337586669d96001cbbb059","6796e1c0ff24ca17c453c51c","67c6abb317d1045ae78b637b","passed","","","","","","","","","","","","","","","","","ballFalling","500","453.67114317029973","210.33","5","fallScene","true","","","","","29","",""
"","","","","","html-keyboard-response","155","802482","0.0-18.0-1.4","5d337586669d96001cbbb059","6796e1c0ff24ca17c453c51c","67c6abb317d1045ae78b637b","passed","","511","","","","","","","","","","","","","","f","yesOrNo","","","","5","","","gt","700","","","29","453.6711431702998","210.33"
"","","","","","html-keyboard-response","156","804033","0.0-18.0-0.5","5d337586669d96001cbbb059","6796e1c0ff24ca17c453c51c","67c6abb317d1045ae78b637b","passed","","","","","","","","","","","","","","","","","ballFalling","604.4000000000001","575.4211431702997","266.76","12","fallScene","true","","","","","30","",""
"","","","","","html-keyboard-response","157","804734","0.0-18.0-1.5","5d337586669d96001cbbb059","6796e1c0ff24ca17c453c51c","67c6abb317d1045ae78b637b","passed","","441","","","","","","","","","","","","","","j","yesOrNo","","","","12","","","gt","700","","","30","575.4211431702997","266.76"
"","","","","","html-keyboard-response","158","806302","0.0-18.0-0.6","5d337586669d96001cbbb059","6796e1c0ff24ca17c453c51c","67c6abb317d1045ae78b637b","passed","","","","","","","","","","","","","","","","","ballFalling","500","453.67114317029973","210.33","5","fallScene","true","","","","","31","",""
"","","","","","html-keyboard-response","159","807003","0.0-18.0-1.6","5d337586669d96001cbbb059","6796e1c0ff24ca17c453c51c","67c6abb317d1045ae78b637b","passed","","526","","","","","","","","","","","","","","j","yesOrNo","","","","5","","","mid","700","","","31","499","300"
"","","","","","html-keyboard-response","160","808504","0.0-18.0-0.7","5d337586669d96001cbbb059","6796e1c0ff24ca17c453c51c","67c6abb317d1045ae78b637b","passed","","","","","","","","","","","","","","","","","ballFalling","604.4000000000001","667.6211431702998","201.78","9","fallScene","true","","","","","32","",""
"","","","","","html-keyboard-response","161","809213","0.0-18.0-1.7","5d337586669d96001cbbb059","6796e1c0ff24ca17c453c51c","67c6abb317d1045ae78b637b","passed","","398","","","","","","","","","","","","","","f","yesOrNo","","","","9","","","gt","700","","","32","667.6211431702998","201.78"
"","","","","","html-keyboard-response","162","811006","0.0-18.0-0.8","5d337586669d96001cbbb059","6796e1c0ff24ca17c453c51c","67c6abb317d1045ae78b637b","passed","","","","","","","","","","","","","","","","","ballFalling","322.3","308.07114317029976","253.89","2","fallScene","true","","","","","33","",""
"","","","","","html-keyboard-response","163","811708","0.0-18.0-1.8","5d337586669d96001cbbb059","6796e1c0ff24ca17c453c51c","67c6abb317d1045ae78b637b","passed","","368","","","","","","","","","","","","","","j","yesOrNo","","","","2","","","lp","700","","","33","321.3","151"
"","","","","","html-keyboard-response","164","813275","0.0-18.0-0.9","5d337586669d96001cbbb059","6796e1c0ff24ca17c453c51c","67c6abb317d1045ae78b637b","passed","","","","","","","","","","","","","","","","","ballFalling","322.3","379.3711431702997","245.25","1","fallScene","false","","","","","34","",""
"","","","","","html-keyboard-response","165","813981","0.0-18.0-1.9","5d337586669d96001cbbb059","6796e1c0ff24ca17c453c51c","67c6abb317d1045ae78b637b","passed","","419","","","","","","","","","","","","","","f","yesOrNo","","","","1","","","gt","700","","","34","379.3711431702997","245.25"
"","","","","","html-keyboard-response","166","815544","0.0-18.0-0.10","5d337586669d96001cbbb059","6796e1c0ff24ca17c453c51c","67c6abb317d1045ae78b637b","passed","","","","","","","","","","","","","","","","","ballFalling","604.4000000000001","575.4211431702997","266.76","12","fallScene","false","","","","","35","",""
"","","","","","html-keyboard-response","167","816255","0.0-18.0-1.10","5d337586669d96001cbbb059","6796e1c0ff24ca17c453c51c","67c6abb317d1045ae78b637b","passed","","503","","","","","","","","","","","","","","f","yesOrNo","","","","12","","","lp","700","","","35","603.4000000000001","151"
"","","","","","html-keyboard-response","168","817812","0.0-18.0-0.11","5d337586669d96001cbbb059","6796e1c0ff24ca17c453c51c","67c6abb317d1045ae78b637b","passed","","","","","","","","","","","","","","","","","ballFalling","322.3","296.07114317029976","371.46","3","fallScene","false","","","","","36","",""
"","","","","","html-keyboard-response","169","818520","0.0-18.0-1.11","5d337586669d96001cbbb059","6796e1c0ff24ca17c453c51c","67c6abb317d1045ae78b637b","passed","","427","","","","","","","","","","","","","","j","yesOrNo","","","","3","","","mid","700","","","36","321.3","300"
"","","","","","html-keyboard-response","170","820080","0.0-18.0-0.12","5d337586669d96001cbbb059","6796e1c0ff24ca17c453c51c","67c6abb317d1045ae78b637b","passed","","","","","","","","","","","","","","","","","ballFalling","322.3","296.07114317029976","371.46","3","fallScene","true","","","","","37","",""
"","","","","","html-keyboard-response","171","820781","0.0-18.0-1.12","5d337586669d96001cbbb059","6796e1c0ff24ca17c453c51c","67c6abb317d1045ae78b637b","passed","","438","","","","","","","","","","","","","","j","yesOrNo","","","","3","","","lp","700","","","37","321.3","287.3327096511259"
"","","","","","html-keyboard-response","172","822571","0.0-18.0-0.13","5d337586669d96001cbbb059","6796e1c0ff24ca17c453c51c","67c6abb317d1045ae78b637b","passed","","","","","","","","","","","","","","","","","ballFalling","322.3","308.07114317029976","253.89","2","fallScene","true","","","","","38","",""
"","","","","","html-keyboard-response","173","823282","0.0-18.0-1.13","5d337586669d96001cbbb059","6796e1c0ff24ca17c453c51c","67c6abb317d1045ae78b637b","passed","","407","","","","","","","","","","","","","","f","yesOrNo","","","","2","","","mid","700","","","38","321.3","300"
"","","","","","html-keyboard-response","174","824768","0.0-18.0-0.14","5d337586669d96001cbbb059","6796e1c0ff24ca17c453c51c","67c6abb317d1045ae78b637b","passed","","","","","","","","","","","","","","","","","ballFalling","604.4000000000001","667.6211431702998","201.78","9","fallScene","true","","","","","39","",""
"","","","","","html-keyboard-response","175","825469","0.0-18.0-1.14","5d337586669d96001cbbb059","6796e1c0ff24ca17c453c51c","67c6abb317d1045ae78b637b","passed","","413","","","","","","","","","","","","","","j","yesOrNo","","","","9","","","mid","700","","","39","605.4000000000001","300"
"","","","","","html-keyboard-response","176","827053","0.0-18.0-0.15","5d337586669d96001cbbb059","6796e1c0ff24ca17c453c51c","67c6abb317d1045ae78b637b","passed","","","","","","","","","","","","","","","","","ballFalling","500","553.4711431702997","282.51","7","fallScene","false","","","","","40","",""
"","","","","","html-keyboard-response","177","827761","0.0-18.0-1.15","5d337586669d96001cbbb059","6796e1c0ff24ca17c453c51c","67c6abb317d1045ae78b637b","passed","","406","","","","","","","","","","","","","","j","yesOrNo","","","","7","","","gt","700","","","40","553.4711431702997","282.51"
"","","","","","html-keyboard-response","178","829321","0.0-18.0-0.16","5d337586669d96001cbbb059","6796e1c0ff24ca17c453c51c","67c6abb317d1045ae78b637b","passed","","","","","","","","","","","","","","","","","ballFalling","604.4000000000001","650.0211431702996","404.58000000000004","11","fallScene","false","","","","","41","",""
"","","","","","html-keyboard-response","179","830022","0.0-18.0-1.16","5d337586669d96001cbbb059","6796e1c0ff24ca17c453c51c","67c6abb317d1045ae78b637b","passed","","406","","","","","","","","","","","","","","f","yesOrNo","","","","11","","","gt","700","","","41","650.0211431702996","404.58"
"","","","","","html-keyboard-response","180","831590","0.0-18.0-0.17","5d337586669d96001cbbb059","6796e1c0ff24ca17c453c51c","67c6abb317d1045ae78b637b","passed","","","","","","","","","","","","","","","","","ballFalling","322.3","379.3711431702997","245.25","1","fallScene","true","","","","","42","",""
"","","","","","html-keyboard-response","181","832291","0.0-18.0-1.17","5d337586669d96001cbbb059","6796e1c0ff24ca17c453c51c","67c6abb317d1045ae78b637b","passed","","459","","","","","","","","","","","","","","f","yesOrNo","","","","1","","","lp","700","","","42","323.3","217.74551669457017"
"","","","","","html-keyboard-response","182","834309","0.0-18.0-0.18","5d337586669d96001cbbb059","6796e1c0ff24ca17c453c51c","67c6abb317d1045ae78b637b","passed","","","","","","","","","","","","","","","","","ballFalling","604.4000000000001","596.8711431702998","394.5","10","fallScene","false","","","","","43","",""
"","","","","","html-keyboard-response","183","835014","0.0-18.0-1.18","5d337586669d96001cbbb059","6796e1c0ff24ca17c453c51c","67c6abb317d1045ae78b637b","passed","","539","","","","","","","","","","","","","","j","yesOrNo","","","","10","","","gt","700","","","43","596.8711431702998","394.5"
"","","","","","html-keyboard-response","184","836678","0.0-18.0-0.19","5d337586669d96001cbbb059","6796e1c0ff24ca17c453c51c","67c6abb317d1045ae78b637b","passed","","","","","","","","","","","","","","","","","ballFalling","500","479.92114317029973","330.87","6","fallScene","true","","","","","44","",""
"","","","","","html-keyboard-response","185","837389","0.0-18.0-1.19","5d337586669d96001cbbb059","6796e1c0ff24ca17c453c51c","67c6abb317d1045ae78b637b","passed","","577","","","","","","","","","","","","","","j","yesOrNo","","","","6","","","mid","700","","","44","499","300"
"","","","","","html-keyboard-response","186","838963","0.0-18.0-0.20","5d337586669d96001cbbb059","6796e1c0ff24ca17c453c51c","67c6abb317d1045ae78b637b","passed","","","","","","","","","","","","","","","","","ballFalling","500","553.4711431702997","282.51","7","fallScene","false","","","","","45","",""
"","","","","","html-keyboard-response","187","839670","0.0-18.0-1.20","5d337586669d96001cbbb059","6796e1c0ff24ca17c453c51c","67c6abb317d1045ae78b637b","passed","","474","","","","","","","","","","","","","","j","yesOrNo","","","","7","","","mid","700","","","45","501","300"
"","","","","","html-keyboard-response","188","841248","0.0-18.0-0.21","5d337586669d96001cbbb059","6796e1c0ff24ca17c453c51c","67c6abb317d1045ae78b637b","passed","","","","","","","","","","","","","","","","","ballFalling","500","553.4711431702997","282.51","7","fallScene","true","","","","","46","",""
"","","","","","html-keyboard-response","189","841949","0.0-18.0-1.21","5d337586669d96001cbbb059","6796e1c0ff24ca17c453c51c","67c6abb317d1045ae78b637b","passed","","479","","","","","","","","","","","","","","j","yesOrNo","","","","7","","","mid","700","","","46","501","300"
"","","","","","html-keyboard-response","190","843617","0.0-18.0-0.22","5d337586669d96001cbbb059","6796e1c0ff24ca17c453c51c","67c6abb317d1045ae78b637b","passed","","","","","","","","","","","","","","","","","ballFalling","500","479.92114317029973","330.87","6","fallScene","false","","","","","47","",""
"","","","","","html-keyboard-response","191","844330","0.0-18.0-1.22","5d337586669d96001cbbb059","6796e1c0ff24ca17c453c51c","67c6abb317d1045ae78b637b","passed","","547","","","","","","","","","","","","","","j","yesOrNo","","","","6","","","mid","700","","","47","499","300"
"","","","","","html-keyboard-response","192","845897","0.0-18.0-0.23","5d337586669d96001cbbb059","6796e1c0ff24ca17c453c51c","67c6abb317d1045ae78b637b","passed","","","","","","","","","","","","","","","","","ballFalling","322.3","356.42114317029973","357.87","4","fallScene","true","","","","","48","",""
"","","","","","html-keyboard-response","193","846603","0.0-18.0-1.23","5d337586669d96001cbbb059","6796e1c0ff24ca17c453c51c","67c6abb317d1045ae78b637b","passed","","406","","","","","","","","","","","","","","f","yesOrNo","","","","4","","","lp","700","","","48","323.3","297.4070551689986"
"","","","","","html-keyboard-response","194","847890","0.0-19.0","5d337586669d96001cbbb059","6796e1c0ff24ca17c453c51c","67c6abb317d1045ae78b637b","passed","","1287","","","","","","","","","","","","","<p><span style=""font-size:40px;"">BLOCK 3</span></p><p><span style=""font-size:25px;"">You have <b style=""color: #FF644F;""><strong>0.7 second(s)</strong></b> to respond to the following trials.</span><br></p><p></p> <!-- Blank line -->
                <p id=""blinking-text"" style=""font-weight; animation: blink 2s infinite;"">Press Space to continue</p>
                <style>
                    @keyframes blink {
                        50% {
                            opacity: 0;
                        }
                    }
                </style></p>"," ","","","","","","","","","","","","","",""
"","","","","","html-keyboard-response","195","849906","0.0-20.0-0.0","5d337586669d96001cbbb059","6796e1c0ff24ca17c453c51c","67c6abb317d1045ae78b637b","passed","","","","","","","","","","","","","","","","","ballFalling","500","510.8711431702997","369.03","8","fallScene","true","","","","","49","",""
"","","","","","html-keyboard-response","196","850610","0.0-20.0-1.0","5d337586669d96001cbbb059","6796e1c0ff24ca17c453c51c","67c6abb317d1045ae78b637b","passed","","485","","","","","","","","","","","","","","f","yesOrNo","","","","8","","","lp","700","","","49","501","151"
"","","","","","html-keyboard-response","197","852408","0.0-20.0-0.1","5d337586669d96001cbbb059","6796e1c0ff24ca17c453c51c","67c6abb317d1045ae78b637b","passed","","","","","","","","","","","","","","","","","ballFalling","322.3","308.07114317029976","253.89","2","fallScene","true","","","","","50","",""
"","","","","","html-keyboard-response","198","853116","0.0-20.0-1.1","5d337586669d96001cbbb059","6796e1c0ff24ca17c453c51c","67c6abb317d1045ae78b637b","passed","","657","","","","","","","","","","","","","","j","yesOrNo","","","","2","","","mid","700","","","50","321.3","300"
"","","","","","html-keyboard-response","199","854910","0.0-20.0-0.2","5d337586669d96001cbbb059","6796e1c0ff24ca17c453c51c","67c6abb317d1045ae78b637b","passed","","","","","","","","","","","","","","","","","ballFalling","322.3","308.07114317029976","253.89","2","fallScene","false","","","","","51","",""
"","","","","","html-keyboard-response","200","855611","0.0-20.0-1.2","5d337586669d96001cbbb059","6796e1c0ff24ca17c453c51c","67c6abb317d1045ae78b637b","passed","","380","","","","","","","","","","","","","","j","yesOrNo","","","","2","","","lp","700","","","51","321.3","151"
"","","","","","html-keyboard-response","201","857278","0.0-20.0-0.3","5d337586669d96001cbbb059","6796e1c0ff24ca17c453c51c","67c6abb317d1045ae78b637b","passed","","","","","","","","","","","","","","","","","ballFalling","500","479.92114317029973","330.87","6","fallScene","true","","","","","52","",""
"","","","","","html-keyboard-response","202","857979","0.0-20.0-1.3","5d337586669d96001cbbb059","6796e1c0ff24ca17c453c51c","67c6abb317d1045ae78b637b","passed","","460","","","","","","","","","","","","","","j","yesOrNo","","","","6","","","gt","700","","","52","479.9211431702998","330.87"
"","","","","","html-keyboard-response","203","859530","0.0-20.0-0.4","5d337586669d96001cbbb059","6796e1c0ff24ca17c453c51c","67c6abb317d1045ae78b637b","passed","","","","","","","","","","","","","","","","","ballFalling","604.4000000000001","575.4211431702997","266.76","12","fallScene","true","","","","","53","",""
"","","","","","html-keyboard-response","204","860234","0.0-20.0-1.4","5d337586669d96001cbbb059","6796e1c0ff24ca17c453c51c","67c6abb317d1045ae78b637b","passed","","549","","","","","","","","","","","","","","f","yesOrNo","","","","12","","","mid","700","","","53","536.4288568297004","300"
"","","","","","html-keyboard-response","205","862249","0.0-20.0-0.5","5d337586669d96001cbbb059","6796e1c0ff24ca17c453c51c","67c6abb317d1045ae78b637b","passed","","","","","","","","","","","","","","","","","ballFalling","604.4000000000001","596.8711431702998","394.5","10","fallScene","true","","","","","54","",""
"","","","","","html-keyboard-response","206","862950","0.0-20.0-1.5","5d337586669d96001cbbb059","6796e1c0ff24ca17c453c51c","67c6abb317d1045ae78b637b","passed","","311","","","","","","","","","","","","","","j","yesOrNo","","","","10","","","mid","700","","","54","536.4288568297004","300"
"","","","","","html-keyboard-response","207","864517","0.0-20.0-0.6","5d337586669d96001cbbb059","6796e1c0ff24ca17c453c51c","67c6abb317d1045ae78b637b","passed","","","","","","","","","","","","","","","","","ballFalling","322.3","296.07114317029976","371.46","3","fallScene","false","","","","","55","",""
"","","","","","html-keyboard-response","208","865219","0.0-20.0-1.6","5d337586669d96001cbbb059","6796e1c0ff24ca17c453c51c","67c6abb317d1045ae78b637b","passed","","503","","","","","","","","","","","","","","j","yesOrNo","","","","3","","","gt","700","","","55","296.07114317029976","371.46"
"","","","","","html-keyboard-response","209","866770","0.0-20.0-0.7","5d337586669d96001cbbb059","6796e1c0ff24ca17c453c51c","67c6abb317d1045ae78b637b","passed","","","","","","","","","","","","","","","","","ballFalling","322.3","379.3711431702997","245.25","1","fallScene","true","","","","","56","",""
"","","","","","html-keyboard-response","210","867481","0.0-20.0-1.7","5d337586669d96001cbbb059","6796e1c0ff24ca17c453c51c","67c6abb317d1045ae78b637b","passed","","613","","","","","","","","","","","","","","f","yesOrNo","","","","1","","","mid","700","","","56","390.27114317029975","300"
"","","","","","html-keyboard-response","211","869489","0.0-20.0-0.8","5d337586669d96001cbbb059","6796e1c0ff24ca17c453c51c","67c6abb317d1045ae78b637b","passed","","","","","","","","","","","","","","","","","ballFalling","500","510.8711431702997","369.03","8","fallScene","true","","","","","57","",""
"","","","","","html-keyboard-response","212","870203","0.0-20.0-1.8","5d337586669d96001cbbb059","6796e1c0ff24ca17c453c51c","67c6abb317d1045ae78b637b","passed","","439","","","","","","","","","","","","","","j","yesOrNo","","","","8","","","gt","700","","","57","510.8711431702997","369.03"
"","","","","","html-keyboard-response","213","871769","0.0-20.0-0.9","5d337586669d96001cbbb059","6796e1c0ff24ca17c453c51c","67c6abb317d1045ae78b637b","passed","","","","","","","","","","","","","","","","","ballFalling","604.4000000000001","575.4211431702997","266.76","12","fallScene","false","","","","","58","",""
"","","","","","html-keyboard-response","214","872475","0.0-20.0-1.9","5d337586669d96001cbbb059","6796e1c0ff24ca17c453c51c","67c6abb317d1045ae78b637b","passed","","533","","","","","","","","","","","","","","f","yesOrNo","","","","12","","","mid","700","","","58","536.4288568297004","300"
"","","","","","html-keyboard-response","215","874125","0.0-20.0-0.10","5d337586669d96001cbbb059","6796e1c0ff24ca17c453c51c","67c6abb317d1045ae78b637b","passed","","","","","","","","","","","","","","","","","ballFalling","500","479.92114317029973","330.87","6","fallScene","true","","","","","59","",""
"","","","","","html-keyboard-response","216","874827","0.0-20.0-1.10","5d337586669d96001cbbb059","6796e1c0ff24ca17c453c51c","67c6abb317d1045ae78b637b","passed","","423","","","","","","","","","","","","","","j","yesOrNo","","","","6","","","lp","700","","","59","499","189.92909825697632"
"","","","","","html-keyboard-response","217","876411","0.0-20.0-0.11","5d337586669d96001cbbb059","6796e1c0ff24ca17c453c51c","67c6abb317d1045ae78b637b","passed","","","","","","","","","","","","","","","","","ballFalling","500","553.4711431702997","282.51","7","fallScene","false","","","","","60","",""
"","","","","","html-keyboard-response","218","877113","0.0-20.0-1.11","5d337586669d96001cbbb059","6796e1c0ff24ca17c453c51c","67c6abb317d1045ae78b637b","passed","","479","","","","","","","","","","","","","","j","yesOrNo","","","","7","","","gt","700","","","60","553.4711431702997","282.51"
"","","","","","html-keyboard-response","219","879130","0.0-20.0-0.12","5d337586669d96001cbbb059","6796e1c0ff24ca17c453c51c","67c6abb317d1045ae78b637b","passed","","","","","","","","","","","","","","","","","ballFalling","500","510.8711431702997","369.03","8","fallScene","true","","","","","61","",""
"","","","","","html-keyboard-response","220","879845","0.0-20.0-1.12","5d337586669d96001cbbb059","6796e1c0ff24ca17c453c51c","67c6abb317d1045ae78b637b","passed","","337","","","","","","","","","","","","","","j","yesOrNo","","","","8","","","mid","700","","","61","501","300"
"","","","","","html-keyboard-response","221","881399","0.0-20.0-0.13","5d337586669d96001cbbb059","6796e1c0ff24ca17c453c51c","67c6abb317d1045ae78b637b","passed","","","","","","","","","","","","","","","","","ballFalling","500","453.67114317029973","210.33","5","fallScene","true","","","","","62","",""
"","","","","","html-keyboard-response","222","882112","0.0-20.0-1.13","5d337586669d96001cbbb059","6796e1c0ff24ca17c453c51c","67c6abb317d1045ae78b637b","passed","","507","","","","","","","","","","","","","","f","yesOrNo","","","","5","","","lp","700","","","62","499","151"
"","","","","","html-keyboard-response","223","884118","0.0-20.0-0.14","5d337586669d96001cbbb059","6796e1c0ff24ca17c453c51c","67c6abb317d1045ae78b637b","passed","","","","","","","","","","","","","","","","","ballFalling","604.4000000000001","596.8711431702998","394.5","10","fallScene","false","","","","","63","",""
"","","","","","html-keyboard-response","224","884821","0.0-20.0-1.14","5d337586669d96001cbbb059","6796e1c0ff24ca17c453c51c","67c6abb317d1045ae78b637b","passed","","471","","","","","","","","","","","","","","f","yesOrNo","","","","10","","","lp","700","","","63","603.4000000000001","215.50214355555383"
"","","","","","html-keyboard-response","225","886486","0.0-20.0-0.15","5d337586669d96001cbbb059","6796e1c0ff24ca17c453c51c","67c6abb317d1045ae78b637b","passed","","","","","","","","","","","","","","","","","ballFalling","500","479.92114317029973","330.87","6","fallScene","true","","","","","64","",""
"","","","","","html-keyboard-response","226","887191","0.0-20.0-1.15","5d337586669d96001cbbb059","6796e1c0ff24ca17c453c51c","67c6abb317d1045ae78b637b","passed","","391","","","","","","","","","","","","","","f","yesOrNo","","","","6","","","lp","700","","","64","499","189.92909825697632"
"","","","","","html-keyboard-response","227","889219","0.0-20.0-0.16","5d337586669d96001cbbb059","6796e1c0ff24ca17c453c51c","67c6abb317d1045ae78b637b","passed","","","","","","","","","","","","","","","","","ballFalling","604.4000000000001","596.8711431702998","394.5","10","fallScene","true","","","","","65","",""
"","","","","","html-keyboard-response","228","889922","0.0-20.0-1.16","5d337586669d96001cbbb059","6796e1c0ff24ca17c453c51c","67c6abb317d1045ae78b637b","passed","","438","","","","","","","","","","","","","","f","yesOrNo","","","","10","","","lp","700","","","65","603.4000000000001","215.50214355555383"
"","","","","","html-keyboard-response","229","891474","0.0-20.0-0.17","5d337586669d96001cbbb059","6796e1c0ff24ca17c453c51c","67c6abb317d1045ae78b637b","passed","","","","","","","","","","","","","","","","","ballFalling","500","453.67114317029973","210.33","5","fallScene","true","","","","","66","",""
"","","","","","html-keyboard-response","230","892191","0.0-20.0-1.17","5d337586669d96001cbbb059","6796e1c0ff24ca17c453c51c","67c6abb317d1045ae78b637b","passed","","504","","","","","","","","","","","","","","j","yesOrNo","","","","5","","","gt","700","","","66","453.6711431702998","210.33"
"","","","","","html-keyboard-response","231","894193","0.0-20.0-0.18","5d337586669d96001cbbb059","6796e1c0ff24ca17c453c51c","67c6abb317d1045ae78b637b","passed","","","","","","","","","","","","","","","","","ballFalling","604.4000000000001","596.8711431702998","394.5","10","fallScene","true","","","","","67","",""
"","","","","","html-keyboard-response","232","894894","0.0-20.0-1.18","5d337586669d96001cbbb059","6796e1c0ff24ca17c453c51c","67c6abb317d1045ae78b637b","passed","","373","","","","","","","","","","","","","","f","yesOrNo","","","","10","","","mid","700","","","67","536.4288568297004","300"
"","","","","","html-keyboard-response","233","896461","0.0-20.0-0.19","5d337586669d96001cbbb059","6796e1c0ff24ca17c453c51c","67c6abb317d1045ae78b637b","passed","","","","","","","","","","","","","","","","","ballFalling","322.3","379.3711431702997","245.25","1","fallScene","false","","","","","68","",""
"","","","","","html-keyboard-response","234","897163","0.0-20.0-1.19","5d337586669d96001cbbb059","6796e1c0ff24ca17c453c51c","67c6abb317d1045ae78b637b","passed","","596","","","","","","","","","","","","","","j","yesOrNo","","","","1","","","lp","700","","","68","323.3","217.74551669457017"
"","","","","","html-keyboard-response","235","898730","0.0-20.0-0.20","5d337586669d96001cbbb059","6796e1c0ff24ca17c453c51c","67c6abb317d1045ae78b637b","passed","","","","","","","","","","","","","","","","","ballFalling","604.4000000000001","650.0211431702996","404.58000000000004","11","fallScene","true","","","","","69","",""
"","","","","","html-keyboard-response","236","899432","0.0-20.0-1.20","5d337586669d96001cbbb059","6796e1c0ff24ca17c453c51c","67c6abb317d1045ae78b637b","passed","","584","","","","","","","","","","","","","","j","yesOrNo","","","","11","","","lp","700","","","69","605.4000000000001","372.6340973215488"
"","","","","","html-keyboard-response","237","901015","0.0-20.0-0.21","5d337586669d96001cbbb059","6796e1c0ff24ca17c453c51c","67c6abb317d1045ae78b637b","passed","","","","","","","","","","","","","","","","","ballFalling","500","553.4711431702997","282.51","7","fallScene","true","","","","","70","",""
"","","","","","html-keyboard-response","238","901716","0.0-20.0-1.21","5d337586669d96001cbbb059","6796e1c0ff24ca17c453c51c","67c6abb317d1045ae78b637b","passed","","374","","","","","","","","","","","","","","j","yesOrNo","","","","7","","","lp","700","","","70","501","227.2843295913261"
"","","","","","html-keyboard-response","239","903284","0.0-20.0-0.22","5d337586669d96001cbbb059","6796e1c0ff24ca17c453c51c","67c6abb317d1045ae78b637b","passed","","","","","","","","","","","","","","","","","ballFalling","604.4000000000001","650.0211431702996","404.58000000000004","11","fallScene","true","","","","","71","",""
"","","","","","html-keyboard-response","240","903986","0.0-20.0-1.22","5d337586669d96001cbbb059","6796e1c0ff24ca17c453c51c","67c6abb317d1045ae78b637b","passed","","309","","","","","","","","","","","","","","j","yesOrNo","","","","11","","","mid","700","","","71","605.4000000000001","300"
"","","","","","html-keyboard-response","241","905553","0.0-20.0-0.23","5d337586669d96001cbbb059","6796e1c0ff24ca17c453c51c","67c6abb317d1045ae78b637b","passed","","","","","","","","","","","","","","","","","ballFalling","604.4000000000001","650.0211431702996","404.58000000000004","11","fallScene","true","","","","","72","",""
"","","","","","html-keyboard-response","242","906257","0.0-20.0-1.23","5d337586669d96001cbbb059","6796e1c0ff24ca17c453c51c","67c6abb317d1045ae78b637b","passed","","510","","","","","","","","","","","","","","f","yesOrNo","","","","11","","","mid","700","","","72","605.4000000000001","300"
"","","","","","html-keyboard-response","243","907831","0.0-21.0","5d337586669d96001cbbb059","6796e1c0ff24ca17c453c51c","67c6abb317d1045ae78b637b","passed","","1573","","","","","","","","","","","","","<p><span style=""font-size:40px;"">BLOCK 4</span></p><p><span style=""font-size:25px;"">You have <b style=""color: #FF644F;""><strong>0.7 second(s)</strong></b> to respond to the following trials.</span><br></p><p></p> <!-- Blank line -->
                <p id=""blinking-text"" style=""font-weight; animation: blink 2s infinite;"">Press Space to continue</p>
                <style>
                    @keyframes blink {
                        50% {
                            opacity: 0;
                        }
                    }
                </style></p>"," ","","","","","","","","","","","","","",""
"","","","","","html-keyboard-response","244","909322","0.0-22.0-0.0","5d337586669d96001cbbb059","6796e1c0ff24ca17c453c51c","67c6abb317d1045ae78b637b","passed","","","","","","","","","","","","","","","","","ballFalling","604.4000000000001","667.6211431702998","201.78","9","fallScene","true","","","","","73","",""
"","","","","","html-keyboard-response","245","910026","0.0-22.0-1.0","5d337586669d96001cbbb059","6796e1c0ff24ca17c453c51c","67c6abb317d1045ae78b637b","passed","","464","","","","","","","","","","","","","","f","yesOrNo","","","","9","","","lp","700","","","73","605.4000000000001","151"
"","","","","","html-keyboard-response","246","911608","0.0-22.0-0.1","5d337586669d96001cbbb059","6796e1c0ff24ca17c453c51c","67c6abb317d1045ae78b637b","passed","","","","","","","","","","","","","","","","","ballFalling","500","553.4711431702997","282.51","7","fallScene","false","","","","","74","",""
"","","","","","html-keyboard-response","247","912323","0.0-22.0-1.1","5d337586669d96001cbbb059","6796e1c0ff24ca17c453c51c","67c6abb317d1045ae78b637b","passed","","564","","","","","","","","","","","","","","j","yesOrNo","","","","7","","","lp","700","","","74","501","227.2843295913261"
"","","","","","html-keyboard-response","248","913876","0.0-22.0-0.2","5d337586669d96001cbbb059","6796e1c0ff24ca17c453c51c","67c6abb317d1045ae78b637b","passed","","","","","","","","","","","","","","","","","ballFalling","322.3","356.42114317029973","357.87","4","fallScene","true","","","","","75","",""
"","","","","","html-keyboard-response","249","914577","0.0-22.0-1.2","5d337586669d96001cbbb059","6796e1c0ff24ca17c453c51c","67c6abb317d1045ae78b637b","passed","","456","","","","","","","","","","","","","","j","yesOrNo","","","","4","","","gt","700","","","75","356.42114317029973","357.87"
"","","","","","html-keyboard-response","250","916128","0.0-22.0-0.3","5d337586669d96001cbbb059","6796e1c0ff24ca17c453c51c","67c6abb317d1045ae78b637b","passed","","","","","","","","","","","","","","","","","ballFalling","322.3","356.42114317029973","357.87","4","fallScene","false","","","","","76","",""
"","","","","","html-keyboard-response","251","916829","0.0-22.0-1.3","5d337586669d96001cbbb059","6796e1c0ff24ca17c453c51c","67c6abb317d1045ae78b637b","passed","","450","","","","","","","","","","","","","","f","yesOrNo","","","","4","","","lp","700","","","76","323.3","297.4070551689986"
"","","","","","html-keyboard-response","252","918397","0.0-22.0-0.4","5d337586669d96001cbbb059","6796e1c0ff24ca17c453c51c","67c6abb317d1045ae78b637b","passed","","","","","","","","","","","","","","","","","ballFalling","322.3","379.3711431702997","245.25","1","fallScene","true","","","","","77","",""
"","","","","","html-keyboard-response","253","919098","0.0-22.0-1.4","5d337586669d96001cbbb059","6796e1c0ff24ca17c453c51c","67c6abb317d1045ae78b637b","passed","","470","","","","","","","","","","","","","","j","yesOrNo","","","","1","","","mid","700","","","77","390.27114317029975","300"
"","","","","","html-keyboard-response","254","920665","0.0-22.0-0.5","5d337586669d96001cbbb059","6796e1c0ff24ca17c453c51c","67c6abb317d1045ae78b637b","passed","","","","","","","","","","","","","","","","","ballFalling","322.3","356.42114317029973","357.87","4","fallScene","true","","","","","78","",""
"","","","","","html-keyboard-response","255","921376","0.0-22.0-1.5","5d337586669d96001cbbb059","6796e1c0ff24ca17c453c51c","67c6abb317d1045ae78b637b","passed","","628","","","","","","","","","","","","","","j","yesOrNo","","","","4","","","gt","700","","","78","356.42114317029973","357.87"
"","","","","","html-keyboard-response","256","922867","0.0-22.0-0.6","5d337586669d96001cbbb059","6796e1c0ff24ca17c453c51c","67c6abb317d1045ae78b637b","passed","","","","","","","","","","","","","","","","","ballFalling","604.4000000000001","667.6211431702998","201.78","9","fallScene","false","","","","","79","",""
"","","","","","html-keyboard-response","257","923568","0.0-22.0-1.6","5d337586669d96001cbbb059","6796e1c0ff24ca17c453c51c","67c6abb317d1045ae78b637b","passed","","438","","","","","","","","","","","","","","f","yesOrNo","","","","9","","","lp","700","","","79","605.4000000000001","151"
"","","","","","html-keyboard-response","258","925136","0.0-22.0-0.7","5d337586669d96001cbbb059","6796e1c0ff24ca17c453c51c","67c6abb317d1045ae78b637b","passed","","","","","","","","","","","","","","","","","ballFalling","604.4000000000001","650.0211431702996","404.58000000000004","11","fallScene","false","","","","","80","",""
"","","","","","html-keyboard-response","259","925837","0.0-22.0-1.7","5d337586669d96001cbbb059","6796e1c0ff24ca17c453c51c","67c6abb317d1045ae78b637b","passed","","457","","","","","","","","","","","","","","j","yesOrNo","","","","11","","","lp","700","","","80","605.4000000000001","372.6340973215488"
"","","","","","html-keyboard-response","260","927854","0.0-22.0-0.8","5d337586669d96001cbbb059","6796e1c0ff24ca17c453c51c","67c6abb317d1045ae78b637b","passed","","","","","","","","","","","","","","","","","ballFalling","604.4000000000001","596.8711431702998","394.5","10","fallScene","true","","","","","81","",""
"","","","","","html-keyboard-response","261","928556","0.0-22.0-1.8","5d337586669d96001cbbb059","6796e1c0ff24ca17c453c51c","67c6abb317d1045ae78b637b","passed","","284","","","","","","","","","","","","","","j","yesOrNo","","","","10","","","gt","700","","","81","596.8711431702998","394.5"
"","","","","","html-keyboard-response","262","930573","0.0-22.0-0.9","5d337586669d96001cbbb059","6796e1c0ff24ca17c453c51c","67c6abb317d1045ae78b637b","passed","","","","","","","","","","","","","","","","","ballFalling","500","510.8711431702997","369.03","8","fallScene","false","","","","","82","",""
"","","","","","html-keyboard-response","263","931275","0.0-22.0-1.9","5d337586669d96001cbbb059","6796e1c0ff24ca17c453c51c","67c6abb317d1045ae78b637b","passed","","419","","","","","","","","","","","","","","j","yesOrNo","","","","8","","","mid","700","","","82","501","300"
"","","","","","html-keyboard-response","264","932842","0.0-22.0-0.10","5d337586669d96001cbbb059","6796e1c0ff24ca17c453c51c","67c6abb317d1045ae78b637b","passed","","","","","","","","","","","","","","","","","ballFalling","322.3","296.07114317029976","371.46","3","fallScene","true","","","","","83","",""
"","","","","","html-keyboard-response","265","933555","0.0-22.0-1.10","5d337586669d96001cbbb059","6796e1c0ff24ca17c453c51c","67c6abb317d1045ae78b637b","passed","","null","","","","","","","","","","","","","","null","yesOrNo","","","","3","","","lp","700","","","83","321.3","287.3327096511259"
"","","","","","html-keyboard-response","266","935111","0.0-22.0-0.11","5d337586669d96001cbbb059","6796e1c0ff24ca17c453c51c","67c6abb317d1045ae78b637b","passed","","","","","","","","","","","","","","","","","ballFalling","604.4000000000001","575.4211431702997","266.76","12","fallScene","false","","","","","84","",""
"","","","","","html-keyboard-response","267","935823","0.0-22.0-1.11","5d337586669d96001cbbb059","6796e1c0ff24ca17c453c51c","67c6abb317d1045ae78b637b","passed","","491","","","","","","","","","","","","","","f","yesOrNo","","","","12","","","gt","700","","","84","575.4211431702997","266.76"
"","","","","","html-keyboard-response","268","937830","0.0-22.0-0.12","5d337586669d96001cbbb059","6796e1c0ff24ca17c453c51c","67c6abb317d1045ae78b637b","passed","","","","","","","","","","","","","","","","","ballFalling","500","510.8711431702997","369.03","8","fallScene","false","","","","","85","",""
"","","","","","html-keyboard-response","269","938541","0.0-22.0-1.12","5d337586669d96001cbbb059","6796e1c0ff24ca17c453c51c","67c6abb317d1045ae78b637b","passed","","572","","","","","","","","","","","","","","j","yesOrNo","","","","8","","","lp","700","","","85","501","151"
"","","","","","html-keyboard-response","270","940098","0.0-22.0-0.13","5d337586669d96001cbbb059","6796e1c0ff24ca17c453c51c","67c6abb317d1045ae78b637b","passed","","","","","","","","","","","","","","","","","ballFalling","322.3","356.42114317029973","357.87","4","fallScene","true","","","","","86","",""
"","","","","","html-keyboard-response","271","940807","0.0-22.0-1.13","5d337586669d96001cbbb059","6796e1c0ff24ca17c453c51c","67c6abb317d1045ae78b637b","passed","","561","","","","","","","","","","","","","","j","yesOrNo","","","","4","","","mid","700","","","86","390.27114317029975","300"
"","","","","","html-keyboard-response","272","942817","0.0-22.0-0.14","5d337586669d96001cbbb059","6796e1c0ff24ca17c453c51c","67c6abb317d1045ae78b637b","passed","","","","","","","","","","","","","","","","","ballFalling","500","510.8711431702997","369.03","8","fallScene","true","","","","","87","",""
"","","","","","html-keyboard-response","273","943518","0.0-22.0-1.14","5d337586669d96001cbbb059","6796e1c0ff24ca17c453c51c","67c6abb317d1045ae78b637b","passed","","525","","","","","","","","","","","","","","f","yesOrNo","","","","8","","","gt","700","","","87","510.8711431702997","369.03"
"","","","","","html-keyboard-response","274","945019","0.0-22.0-0.15","5d337586669d96001cbbb059","6796e1c0ff24ca17c453c51c","67c6abb317d1045ae78b637b","passed","","","","","","","","","","","","","","","","","ballFalling","604.4000000000001","667.6211431702998","201.78","9","fallScene","true","","","","","88","",""
"","","","","","html-keyboard-response","275","945735","0.0-22.0-1.15","5d337586669d96001cbbb059","6796e1c0ff24ca17c453c51c","67c6abb317d1045ae78b637b","passed","","612","","","","","","","","","","","","","","j","yesOrNo","","","","9","","","gt","700","","","88","667.6211431702998","201.78"
"","","","","","html-keyboard-response","276","947288","0.0-22.0-0.16","5d337586669d96001cbbb059","6796e1c0ff24ca17c453c51c","67c6abb317d1045ae78b637b","passed","","","","","","","","","","","","","","","","","ballFalling","322.3","296.07114317029976","371.46","3","fallScene","true","","","","","89","",""
"","","","","","html-keyboard-response","277","947996","0.0-22.0-1.16","5d337586669d96001cbbb059","6796e1c0ff24ca17c453c51c","67c6abb317d1045ae78b637b","passed","","461","","","","","","","","","","","","","","j","yesOrNo","","","","3","","","mid","700","","","89","321.3","300"
"","","","","","html-keyboard-response","278","949557","0.0-22.0-0.17","5d337586669d96001cbbb059","6796e1c0ff24ca17c453c51c","67c6abb317d1045ae78b637b","passed","","","","","","","","","","","","","","","","","ballFalling","604.4000000000001","575.4211431702997","266.76","12","fallScene","false","","","","","90","",""
"","","","","","html-keyboard-response","279","950262","0.0-22.0-1.17","5d337586669d96001cbbb059","6796e1c0ff24ca17c453c51c","67c6abb317d1045ae78b637b","passed","","556","","","","","","","","","","","","","","f","yesOrNo","","","","12","","","lp","700","","","90","603.4000000000001","151"
"","","","","","html-keyboard-response","280","951758","0.0-22.0-0.18","5d337586669d96001cbbb059","6796e1c0ff24ca17c453c51c","67c6abb317d1045ae78b637b","passed","","","","","","","","","","","","","","","","","ballFalling","604.4000000000001","667.6211431702998","201.78","9","fallScene","true","","","","","91","",""
"","","","","","html-keyboard-response","281","952459","0.0-22.0-1.18","5d337586669d96001cbbb059","6796e1c0ff24ca17c453c51c","67c6abb317d1045ae78b637b","passed","","580","","","","","","","","","","","","","","j","yesOrNo","","","","9","","","mid","700","","","91","605.4000000000001","300"
"","","","","","html-keyboard-response","282","954027","0.0-22.0-0.19","5d337586669d96001cbbb059","6796e1c0ff24ca17c453c51c","67c6abb317d1045ae78b637b","passed","","","","","","","","","","","","","","","","","ballFalling","322.3","356.42114317029973","357.87","4","fallScene","false","","","","","92","",""
"","","","","","html-keyboard-response","283","954736","0.0-22.0-1.19","5d337586669d96001cbbb059","6796e1c0ff24ca17c453c51c","67c6abb317d1045ae78b637b","passed","","600","","","","","","","","","","","","","","j","yesOrNo","","","","4","","","mid","700","","","92","390.27114317029975","300"
"","","","","","html-keyboard-response","284","956295","0.0-22.0-0.20","5d337586669d96001cbbb059","6796e1c0ff24ca17c453c51c","67c6abb317d1045ae78b637b","passed","","","","","","","","","","","","","","","","","ballFalling","500","453.67114317029973","210.33","5","fallScene","true","","","","","93","",""
"","","","","","html-keyboard-response","285","956999","0.0-22.0-1.20","5d337586669d96001cbbb059","6796e1c0ff24ca17c453c51c","67c6abb317d1045ae78b637b","passed","","480","","","","","","","","","","","","","","f","yesOrNo","","","","5","","","lp","700","","","93","499","151"
"","","","","","html-keyboard-response","286","958797","0.0-22.0-0.21","5d337586669d96001cbbb059","6796e1c0ff24ca17c453c51c","67c6abb317d1045ae78b637b","passed","","","","","","","","","","","","","","","","","ballFalling","322.3","308.07114317029976","253.89","2","fallScene","true","","","","","94","",""
"","","","","","html-keyboard-response","287","959499","0.0-22.0-1.21","5d337586669d96001cbbb059","6796e1c0ff24ca17c453c51c","67c6abb317d1045ae78b637b","passed","","428","","","","","","","","","","","","","","j","yesOrNo","","","","2","","","gt","700","","","94","308.07114317029976","253.89"
"","","","","","html-keyboard-response","288","961066","0.0-22.0-0.22","5d337586669d96001cbbb059","6796e1c0ff24ca17c453c51c","67c6abb317d1045ae78b637b","passed","","","","","","","","","","","","","","","","","ballFalling","500","453.67114317029973","210.33","5","fallScene","false","","","","","95","",""
"","","","","","html-keyboard-response","289","961767","0.0-22.0-1.22","5d337586669d96001cbbb059","6796e1c0ff24ca17c453c51c","67c6abb317d1045ae78b637b","passed","","545","","","","","","","","","","","","","","j","yesOrNo","","","","5","","","mid","700","","","95","499","300"
"","","","","","html-keyboard-response","290","963335","0.0-22.0-0.23","5d337586669d96001cbbb059","6796e1c0ff24ca17c453c51c","67c6abb317d1045ae78b637b","passed","","","","","","","","","","","","","","","","","ballFalling","322.3","379.3711431702997","245.25","1","fallScene","false","","","","","96","",""
"","","","","","html-keyboard-response","291","964036","0.0-22.0-1.23","5d337586669d96001cbbb059","6796e1c0ff24ca17c453c51c","67c6abb317d1045ae78b637b","passed","","553","","","","","","","","","","","","","","j","yesOrNo","","","","1","","","gt","700","","","96","379.3711431702997","245.25"
"","","","","","html-keyboard-response","292","965548","0.0-23.0","5d337586669d96001cbbb059","6796e1c0ff24ca17c453c51c","67c6abb317d1045ae78b637b","passed","","1512","","","","","","","","","","","","","<p><span style=""font-size:40px;"">BLOCK 5</span></p><p><span style=""font-size:25px;"">You have <b style=""color: #FF644F;""><strong>3 second(s)</strong></b> to respond to the following trials.</span><br></p><p></p> <!-- Blank line -->
                <p id=""blinking-text"" style=""font-weight; animation: blink 2s infinite;"">Press Space to continue</p>
                <style>
                    @keyframes blink {
                        50% {
                            opacity: 0;
                        }
                    }
                </style></p>"," ","","","","","","","","","","","","","",""
"","","","","","html-keyboard-response","293","967037","0.0-24.0-0.0","5d337586669d96001cbbb059","6796e1c0ff24ca17c453c51c","67c6abb317d1045ae78b637b","passed","","","","","","","","","","","","","","","","","ballFalling","604.4000000000001","667.6211431702998","201.78","9","fallScene","true","","","","","97","",""
"","","","","","html-keyboard-response","294","970040","0.0-24.0-1.0","5d337586669d96001cbbb059","6796e1c0ff24ca17c453c51c","67c6abb317d1045ae78b637b","passed","","669","","","","","","","","","","","","","","j","yesOrNo","","","","9","","","mid","3000","","","97","605.4000000000001","300"
"","","","","","html-keyboard-response","295","971825","0.0-24.0-0.1","5d337586669d96001cbbb059","6796e1c0ff24ca17c453c51c","67c6abb317d1045ae78b637b","passed","","","","","","","","","","","","","","","","","ballFalling","322.3","308.07114317029976","253.89","2","fallScene","true","","","","","98","",""
