"success","timeout","failed_images","failed_audio","failed_video","trial_type","trial_index","time_elapsed","internal_node_id","subject_id","study_id","session_id","practiceTestResult","view_history","rt","width","height","webaudio","browser","browser_version","mobile","os","fullscreen","vsync_rate","webcam","microphone","url","stimulus","response","task","ball_X","obstacle_groundTruth_x","obstacle_groundTruth_y","stimulus_idx","trial_name","flipped","choice","timeLimit","question_order","currentTrial","obstacle_choice_x","obstacle_choice_y"
"true","false","[]","[]","[]","preload","0","268","0.0-0.0","5de7d12c26dd95000b6824c5","6796e1c0ff24ca17c453c51c","67c716c7ba6ac147a1090a50","passed","","","","","","","","","","","","","","","","","","","","","","","","","","","","",""
"","","","","","instructions","1","22899","0.0-1.0","5de7d12c26dd95000b6824c5","6796e1c0ff24ca17c453c51c","67c716c7ba6ac147a1090a50","passed","[{""page_index"":0,""viewing_time"":22630}]","22630","","","","","","","","","","","","","","","","","","","","","","","","","","",""
"","","","","","browser-check","2","23898","0.0-2.0","5de7d12c26dd95000b6824c5","6796e1c0ff24ca17c453c51c","67c716c7ba6ac147a1090a50","passed","","","1536","695","true","chrome","133.0.0","false","Windows 10","true","60.31","true","true","","","","","","","","","","","","","","","",""
"","","","","","external-html","3","38008","0.0-3.0","5de7d12c26dd95000b6824c5","6796e1c0ff24ca17c453c51c","67c716c7ba6ac147a1090a50","passed","","14018","","","","","","","","","","","","consent.html","","","","","","","","","","","","","","",""
"true","","","","","fullscreen","4","50027","0.0-4.0","5de7d12c26dd95000b6824c5","6796e1c0ff24ca17c453c51c","67c716c7ba6ac147a1090a50","passed","","11716","","","","","","","","","","","","","","","","","","","","","","","","","","",""
"","","","","","browser-check","5","51023","0.0-5.0","5de7d12c26dd95000b6824c5","6796e1c0ff24ca17c453c51c","67c716c7ba6ac147a1090a50","passed","","","1536","864","true","chrome","133.0.0","false","Windows 10","true","60.36","true","true","","","","","","","","","","","","","","","",""
"","","","","","html-keyboard-response","6","58842","0.0-6.0","5de7d12c26dd95000b6824c5","6796e1c0ff24ca17c453c51c","67c716c7ba6ac147a1090a50","passed","","7817","","","","","","","","","","","","","<p><b>This experiment requires keyboard input.</b></p> 
        <p><b>To ensure your response will be recorded successfully, please press 'Space' to continue.</b></p>
        <p>If you can't proceed, you won't be able to complete this study.</p>
        <p></p> <!-- Blank line -->
        <p id=""blinking-text"" style=""font-weight; animation: blink 2s infinite;"">Press Space to continue</p>
        <style>
            @keyframes blink {
                50% {
                    opacity: 0;
                }
            }
        </style>"," ","","","","","","","","","","","","",""
"","","","","","html-keyboard-response","7","63197","0.0-7.0","5de7d12c26dd95000b6824c5","6796e1c0ff24ca17c453c51c","67c716c7ba6ac147a1090a50","passed","","4354","","","","","","","","","","","","","<p><b>This experiment requires keyboard input.</b></p> 
        <p><b>To ensure your response will be recorded successfully, please press the 'f' key to continue.</b></p>
        <p>If you can't proceed, you won't be able to complete this study.</p>
        <p></p> <!-- Blank line -->
        <p id=""blinking-text"" style=""font-weight; animation: blink 2s infinite;"">Press f to continue</p>
        <style>
            @keyframes blink {
                50% {
                    opacity: 0;
                }
            }
        </style>","f","","","","","","","","","","","","",""
"","","","","","html-keyboard-response","8","65096","0.0-8.0","5de7d12c26dd95000b6824c5","6796e1c0ff24ca17c453c51c","67c716c7ba6ac147a1090a50","passed","","1898","","","","","","","","","","","","","<p><b>This experiment requires keyboard input.</b></p> 
        <p><b>To ensure your response will be recorded successfully, please press the 'j' key to continue.</b></p>
        <p>If you can't proceed, you won't be able to complete this study.</p>
        <p></p> <!-- Blank line -->
        <p id=""blinking-text"" style=""font-weight; animation: blink 2s infinite;"">Press j to continue</p>
        <style>
            @keyframes blink {
                50% {
                    opacity: 0;
                }
            }
        </style>","j","","","","","","","","","","","","",""
"","","","","","browser-check","9","66098","0.0-9.0","5de7d12c26dd95000b6824c5","6796e1c0ff24ca17c453c51c","67c716c7ba6ac147a1090a50","passed","","","1536","864","true","chrome","133.0.0","false","Windows 10","true","60.19","true","true","","","","","","","","","","","","","","","",""
"","","","","","survey-text","10","73193","0.0-10.0","5de7d12c26dd95000b6824c5","6796e1c0ff24ca17c453c51c","67c716c7ba6ac147a1090a50","passed","","7093","","","","","","","","","","","","","","{""prolificID"":""5de7d12c26dd95000b6824c5""}","","","","","","","","","","","","",""
"","","","","","instructions","11","165848","0.0-11.0-0.0-0.0","5de7d12c26dd95000b6824c5","6796e1c0ff24ca17c453c51c","67c716c7ba6ac147a1090a50","passed","[{""page_index"":0,""viewing_time"":38279},{""page_index"":1,""viewing_time"":24566},{""page_index"":2,""viewing_time"":12621},{""page_index"":3,""viewing_time"":17187}]","92654","","","","","","","","","","","","","","","","","","","","","","","","","","",""
"","","","","","html-keyboard-response","12","193536","0.0-11.0-0.0-1.0","5de7d12c26dd95000b6824c5","6796e1c0ff24ca17c453c51c","67c716c7ba6ac147a1090a50","passed","","27176","","","","","","","","","","","","","<br>Remember! After a ball falls, the screen will disappear, and you'll decide if the proposed position is where the hidden triangle was. <br>You will now practice this by watching a few videos and making decisions.<p>To respond:<br style=""margin-bottom: 5px; text-indent: -20px; padding-left: 20px;"">- Press <b style=""color: #12AD2B;"">J for Yes</b>, if you think the triangle is in the correct position.<br style=""margin-top: 0; text-indent: -20px; padding-left: 20px;"">- Press <b style=""color: orange;"">F for No</b>, if you think the triangle is not in the correct position.</p><p>In this practice round, there is no time limit. Focus on getting comfortable with the task first.<br>Press either J or F to begin your practice trials.</p><img src = ""YesOrNo_instruction.png"" style=""width: 65%;""></img>","j","","","","","","","","","","","","",""
"","","","","","html-keyboard-response","13","195597","0.0-11.0-0.0-2.0-0.0","5de7d12c26dd95000b6824c5","6796e1c0ff24ca17c453c51c","67c716c7ba6ac147a1090a50","passed","","","","","","","","","","","","","","","","","ballFalling_prac","660","666","350","3","fallScene","false","","","","","",""
"","","","","","html-keyboard-response","14","197068","0.0-11.0-0.0-2.0-1.0","5de7d12c26dd95000b6824c5","6796e1c0ff24ca17c453c51c","67c716c7ba6ac147a1090a50","passed","","1460","","","","","","","","","","","","","","f","yesOrNo_prac_noTimed","","","","3","","","wrong direction","NA","","","",""
"","","","","","html-keyboard-response","15","198639","0.0-11.0-0.0-2.0-0.1","5de7d12c26dd95000b6824c5","6796e1c0ff24ca17c453c51c","67c716c7ba6ac147a1090a50","passed","","","","","","","","","","","","","","","","","ballFalling_prac","441","414","302","5","fallScene","true","","","","","",""
"","","","","","html-keyboard-response","16","200900","0.0-11.0-0.0-2.0-1.1","5de7d12c26dd95000b6824c5","6796e1c0ff24ca17c453c51c","67c716c7ba6ac147a1090a50","passed","","2258","","","","","","","","","","","","","","j","yesOrNo_prac_noTimed","","","","5","","","close gt","NA","","","",""
"","","","","","html-keyboard-response","17","202475","0.0-11.0-0.0-2.0-0.2","5de7d12c26dd95000b6824c5","6796e1c0ff24ca17c453c51c","67c716c7ba6ac147a1090a50","passed","","","","","","","","","","","","","","","","","ballFalling_prac","416","464","296","1","fallScene","false","","","","","",""
"","","","","","html-keyboard-response","18","204148","0.0-11.0-0.0-2.0-1.2","5de7d12c26dd95000b6824c5","6796e1c0ff24ca17c453c51c","67c716c7ba6ac147a1090a50","passed","","1671","","","","","","","","","","","","","","j","yesOrNo_prac_noTimed","","","","1","","","gt","NA","","","",""
"","","","","","instructions","19","271899","0.0-11.0-0.0-3.0","5de7d12c26dd95000b6824c5","6796e1c0ff24ca17c453c51c","67c716c7ba6ac147a1090a50","passed","[{""page_index"":0,""viewing_time"":36217},{""page_index"":1,""viewing_time"":31533}]","67750","","","","","","","","","","","","","","","","","","","","","","","","","","",""
"","","","","","html-button-response","20","277919","0.0-11.0-0.0-4.0","5de7d12c26dd95000b6824c5","6796e1c0ff24ca17c453c51c","67c716c7ba6ac147a1090a50","passed","","5514","","","","","","","","","","","","","<p>To make sure you understood the task, we just have a <b>brief quiz</b> here.</p><p>If you need to review the instructions, click 'Previous'.</p><p>It's important to understand the task to do the study, so you have to pass the quiz to move to the study.</p>","1","","","","","","","","","","","","",""
"","","","","","survey-multi-choice","21","306109","0.0-11.0-1.0-0.0","5de7d12c26dd95000b6824c5","6796e1c0ff24ca17c453c51c","67c716c7ba6ac147a1090a50","passed","","28187","","","","","","","","","","","","","","{""generalProcedure"":""Watch a video of a ball falling, some of it behind a gray screen. After each video, decide if the triangle is at the spot where the ball hit the triangle behind the screen. There is time limit for the response.""}","","","","","","","","","","[0]","","",""
"","","","","","survey-multi-choice","22","311940","0.0-11.0-1.0-1.0","5de7d12c26dd95000b6824c5","6796e1c0ff24ca17c453c51c","67c716c7ba6ac147a1090a50","passed","","5829","","","","","","","","","","","","","","{""checkBallHitObstacle"":""Yes.""}","","","","","","","","","","[0]","","",""
"","","","","","survey-multi-choice","23","318906","0.0-11.0-1.0-2.0","5de7d12c26dd95000b6824c5","6796e1c0ff24ca17c453c51c","67c716c7ba6ac147a1090a50","passed","","6966","","","","","","","","","","","","","","{""checkTriangleVisibility"":""No, the triangle is hidden behind the gray screen.""}","","","","","","","","","","[0]","","",""
"","","","","","survey-multi-choice","24","422388","0.0-11.0-1.0-3.0","5de7d12c26dd95000b6824c5","6796e1c0ff24ca17c453c51c","67c716c7ba6ac147a1090a50","passed","","103481","","","","","","","","","","","","","","{""checkTimedResponse"":""Your response will not be recorded, and the trial will move to the next one.""}","","","","","","","","","","[0]","","",""
"","","","","","survey-multi-choice","25","437301","0.0-11.0-1.0-4.0","5de7d12c26dd95000b6824c5","6796e1c0ff24ca17c453c51c","67c716c7ba6ac147a1090a50","passed","","14911","","","","","","","","","","","","","","{""checkTimeBlockNotice"":""At the beginning of each block.""}","","","","","","","","","","[0]","","",""
"","","","","","survey-multi-choice","26","446847","0.0-11.0-1.0-5.0","5de7d12c26dd95000b6824c5","6796e1c0ff24ca17c453c51c","67c716c7ba6ac147a1090a50","passed","","9545","","","","","","","","","","","","","","{""checkTimeBlockSameness"":""Yes, the time limit is the same for all trials within a block.""}","","","","","","","","","","[0]","","",""
"","","","","","survey-multi-choice","27","474348","0.0-11.0-1.0-6.0","5de7d12c26dd95000b6824c5","6796e1c0ff24ca17c453c51c","67c716c7ba6ac147a1090a50","passed","","27500","","","","","","","","","","","","","","{""checkTrianglePrecision"":""No. The proposed purple triangle is not in the correct position because it doesn't match the location of the white triangle exactly.""}","","","","","","","","","","[0]","","",""
"","","","","","instructions","28","513116","0.0-12.0","5de7d12c26dd95000b6824c5","6796e1c0ff24ca17c453c51c","67c716c7ba6ac147a1090a50","passed","[{""page_index"":0,""viewing_time"":9008},{""page_index"":1,""viewing_time"":9178},{""page_index"":2,""viewing_time"":13661},{""page_index"":3,""viewing_time"":6919}]","38767","","","","","","","","","","","","","","","","","","","","","","","","","","",""
"","","","","","instructions","29","535032","0.0-13.0-0.0","5de7d12c26dd95000b6824c5","6796e1c0ff24ca17c453c51c","67c716c7ba6ac147a1090a50","passed","[{""page_index"":0,""viewing_time"":21915}]","21916","","","","","","","","","","","","","","","","","","","","","","","","","","",""
"","","","","","html-keyboard-response","30","540349","0.0-13.0-1.0","5de7d12c26dd95000b6824c5","6796e1c0ff24ca17c453c51c","67c716c7ba6ac147a1090a50","passed","","5316","","","","","","","","","","","","","<p><span style=""font-size:40px;"">Practice BLOCK 1</span></p><p><span style=""font-size:25px;"">You have <b style=""color: #FF644F;""><strong>3 second(s)</strong></b> to respond to the following trials.</span><br></p><p id=""blinking-text"" style=""font-weight; animation: blink 2s infinite;"">Press Space to continue</p><style>
                    @keyframes blink {
                        50% {
                            opacity: 0;
                        }
                    }
                </style>"," ","","","","","","","","","","","","",""
"","","","","","html-keyboard-response","31","541901","0.0-13.0-2.0-0.0","5de7d12c26dd95000b6824c5","6796e1c0ff24ca17c453c51c","67c716c7ba6ac147a1090a50","passed","","","","","","","","","","","","","","","","","ballFalling_prac","416","464","296","1","fallScene","false","","","","","",""
"","","","","","html-keyboard-response","32","544911","0.0-13.0-2.0-1.0","5de7d12c26dd95000b6824c5","6796e1c0ff24ca17c453c51c","67c716c7ba6ac147a1090a50","passed","","2316","","","","","","","","","","","","","","f","yesOrNo_prac","","","","1","","","far gt","3000","","","",""
"","","","","","html-keyboard-response","33","546471","0.0-13.0-2.0-0.1","5de7d12c26dd95000b6824c5","6796e1c0ff24ca17c453c51c","67c716c7ba6ac147a1090a50","passed","","","","","","","","","","","","","","","","","ballFalling_prac","584","536","296","1","fallScene","true","","","","","",""
"","","","","","html-keyboard-response","34","549478","0.0-13.0-2.0-1.1","5de7d12c26dd95000b6824c5","6796e1c0ff24ca17c453c51c","67c716c7ba6ac147a1090a50","passed","","1093","","","","","","","","","","","","","","f","yesOrNo_prac","","","","1","","","close gt","3000","","","",""
"","","","","","html-keyboard-response","35","551041","0.0-13.0-2.0-0.2","5de7d12c26dd95000b6824c5","6796e1c0ff24ca17c453c51c","67c716c7ba6ac147a1090a50","passed","","","","","","","","","","","","","","","","","ballFalling_prac","660","610","263","4","fallScene","false","","","","","",""
"","","","","","html-keyboard-response","36","554048","0.0-13.0-2.0-1.2","5de7d12c26dd95000b6824c5","6796e1c0ff24ca17c453c51c","67c716c7ba6ac147a1090a50","passed","","990","","","","","","","","","","","","","","f","yesOrNo_prac","","","","4","","","gt","3000","","","",""
"","","","","","html-keyboard-response","37","556018","0.0-13.0-3.0","5de7d12c26dd95000b6824c5","6796e1c0ff24ca17c453c51c","67c716c7ba6ac147a1090a50","passed","","1968","","","","","","","","","","","","","<p><span style=""font-size:40px;"">Practice BLOCK 2</span></p><p><span style=""font-size:25px;"">You have <b style=""color: #FF644F;""><strong>0.7 second(s)</strong></b> to respond to the following trials.</span><br></p><p id=""blinking-text"" style=""font-weight; animation: blink 2s infinite;"">Press Space to continue</p><style>
                    @keyframes blink {
                        50% {
                            opacity: 0;
                        }
                    }
                </style>"," ","","","","","","","","","","","","",""
"","","","","","html-keyboard-response","38","557591","0.0-13.0-4.0-0.0","5de7d12c26dd95000b6824c5","6796e1c0ff24ca17c453c51c","67c716c7ba6ac147a1090a50","passed","","","","","","","","","","","","","","","","","ballFalling_prac","660","610","263","4","fallScene","false","","","","","",""
"","","","","","html-keyboard-response","39","558302","0.0-13.0-4.0-1.0","5de7d12c26dd95000b6824c5","6796e1c0ff24ca17c453c51c","67c716c7ba6ac147a1090a50","passed","","null","","","","","","","","","","","","","","null","yesOrNo_prac","","","","4","","","far gt","700","","","",""
"","","","","","html-keyboard-response","40","560413","0.0-13.0-4.0-0.1","5de7d12c26dd95000b6824c5","6796e1c0ff24ca17c453c51c","67c716c7ba6ac147a1090a50","passed","","","","","","","","","","","","","","","","","ballFalling_prac","340","334","350","3","fallScene","true","","","","","",""
"","","","","","html-keyboard-response","41","561116","0.0-13.0-4.0-1.1","5de7d12c26dd95000b6824c5","6796e1c0ff24ca17c453c51c","67c716c7ba6ac147a1090a50","passed","","567","","","","","","","","","","","","","","j","yesOrNo_prac","","","","3","","","close gt","700","","","",""
"","","","","","html-keyboard-response","42","562676","0.0-13.0-4.0-0.2","5de7d12c26dd95000b6824c5","6796e1c0ff24ca17c453c51c","67c716c7ba6ac147a1090a50","passed","","","","","","","","","","","","","","","","","ballFalling_prac","441","500","317","6","fallScene","true","","","","","",""
"","","","","","html-keyboard-response","43","563389","0.0-13.0-4.0-1.2","5de7d12c26dd95000b6824c5","6796e1c0ff24ca17c453c51c","67c716c7ba6ac147a1090a50","passed","","659","","","","","","","","","","","","","","f","yesOrNo_prac","","","","6","","","gt","700","","","",""
"","","","","","instructions","44","579113","0.0-13.0-5.0","5de7d12c26dd95000b6824c5","6796e1c0ff24ca17c453c51c","67c716c7ba6ac147a1090a50","passed","[{""page_index"":0,""viewing_time"":15722}]","15723","","","","","","","","","","","","","","","","","","","","","","","","","","",""
"","","","","","html-keyboard-response","45","581693","0.0-13.0-6.0","5de7d12c26dd95000b6824c5","6796e1c0ff24ca17c453c51c","67c716c7ba6ac147a1090a50","passed","","2578","","","","","","","","","","","","","<p><span style=""font-size:40px;"">Practice Test BLOCK 1</span></p><p><span style=""font-size:25px;"">You have <b style=""color: #FF644F;""><strong>0.7 second(s)</strong></b> to respond to the following trials.</span><br></p><p id=""blinking-text"" style=""font-weight; animation: blink 2s infinite;"">Press Space to continue</p><style>
                    @keyframes blink {
                        50% {
                            opacity: 0;
                        }
                    }
                </style>"," ","","","","","","","","","","","","",""
"","","","","","html-keyboard-response","46","583270","0.0-13.0-7.0-0.0","5de7d12c26dd95000b6824c5","6796e1c0ff24ca17c453c51c","67c716c7ba6ac147a1090a50","passed","","","","","","","","","","","","","","","","","ballFalling_prac","340","390","263","4","fallScene","true","","","","","",""
"","","","","","html-keyboard-response","47","583985","0.0-13.0-7.0-1.0","5de7d12c26dd95000b6824c5","6796e1c0ff24ca17c453c51c","67c716c7ba6ac147a1090a50","passed","","null","","","","","","","","","","","","","","null","yesOrNo_prac","","","","4","","","far gt","700","","","",""
"","","","","","html-keyboard-response","48","585548","0.0-13.0-7.0-0.1","5de7d12c26dd95000b6824c5","6796e1c0ff24ca17c453c51c","67c716c7ba6ac147a1090a50","passed","","","","","","","","","","","","","","","","","ballFalling_prac","441","500","317","6","fallScene","true","","","","","",""
"","","","","","html-keyboard-response","49","586260","0.0-13.0-7.0-1.1","5de7d12c26dd95000b6824c5","6796e1c0ff24ca17c453c51c","67c716c7ba6ac147a1090a50","passed","","512","","","","","","","","","","","","","","f","yesOrNo_prac","","","","6","","","close gt","700","","","",""
"","","","","","html-keyboard-response","50","587825","0.0-13.0-7.0-0.2","5de7d12c26dd95000b6824c5","6796e1c0ff24ca17c453c51c","67c716c7ba6ac147a1090a50","passed","","","","","","","","","","","","","","","","","ballFalling_prac","559","586","302","5","fallScene","false","","","","","",""
"","","","","","html-keyboard-response","51","588539","0.0-13.0-7.0-1.2","5de7d12c26dd95000b6824c5","6796e1c0ff24ca17c453c51c","67c716c7ba6ac147a1090a50","passed","","601","","","","","","","","","","","","","","f","yesOrNo_prac","","","","5","","","gt","700","","","",""
"","","","","","html-keyboard-response","52","593354","0.0-13.0-8.0","5de7d12c26dd95000b6824c5","6796e1c0ff24ca17c453c51c","67c716c7ba6ac147a1090a50","passed","","4814","","","","","","","","","","","","","<p><span style=""font-size:40px;"">Practice Test BLOCK 2</span></p><p><span style=""font-size:25px;"">You have <b style=""color: #FF644F;""><strong>3 second(s)</strong></b> to respond to the following trials.</span><br></p><p id=""blinking-text"" style=""font-weight; animation: blink 2s infinite;"">Press Space to continue</p><style>
                    @keyframes blink {
                        50% {
                            opacity: 0;
                        }
                    }
                </style>"," ","","","","","","","","","","","","",""
"","","","","","html-keyboard-response","53","594922","0.0-13.0-9.0-0.0","5de7d12c26dd95000b6824c5","6796e1c0ff24ca17c453c51c","67c716c7ba6ac147a1090a50","passed","","","","","","","","","","","","","","","","","ballFalling_prac","340","390","263","4","fallScene","true","","","","","",""
"","","","","","html-keyboard-response","54","597930","0.0-13.0-9.0-1.0","5de7d12c26dd95000b6824c5","6796e1c0ff24ca17c453c51c","67c716c7ba6ac147a1090a50","passed","","679","","","","","","","","","","","","","","f","yesOrNo_prac","","","","4","","","close gt","3000","","","",""
"","","","","","html-keyboard-response","55","599510","0.0-13.0-9.0-0.1","5de7d12c26dd95000b6824c5","6796e1c0ff24ca17c453c51c","67c716c7ba6ac147a1090a50","passed","","","","","","","","","","","","","","","","","ballFalling_prac","559","586","302","5","fallScene","false","","","","","",""
"","","","","","html-keyboard-response","56","602515","0.0-13.0-9.0-1.1","5de7d12c26dd95000b6824c5","6796e1c0ff24ca17c453c51c","67c716c7ba6ac147a1090a50","passed","","620","","","","","","","","","","","","","","f","yesOrNo_prac","","","","5","","","far gt","3000","","","",""
"","","","","","html-keyboard-response","57","604080","0.0-13.0-9.0-0.2","5de7d12c26dd95000b6824c5","6796e1c0ff24ca17c453c51c","67c716c7ba6ac147a1090a50","passed","","","","","","","","","","","","","","","","","ballFalling_prac","416","365","249","2","fallScene","false","","","","","",""
"","","","","","html-keyboard-response","58","607089","0.0-13.0-9.0-1.2","5de7d12c26dd95000b6824c5","6796e1c0ff24ca17c453c51c","67c716c7ba6ac147a1090a50","passed","","631","","","","","","","","","","","","","","f","yesOrNo_prac","","","","2","","","gt","3000","","","",""
"","","","","","instructions","59","610728","0.0-14.0","5de7d12c26dd95000b6824c5","6796e1c0ff24ca17c453c51c","67c716c7ba6ac147a1090a50","passed","[{""page_index"":0,""viewing_time"":3636}]","3636","","","","","","","","","","","","","","","","","","","","","","","","","","",""
"","","","","","html-keyboard-response","60","612739","0.0-15.0","5de7d12c26dd95000b6824c5","6796e1c0ff24ca17c453c51c","67c716c7ba6ac147a1090a50","passed","","2010","","","","","","","","","","","","","<p><span style=""font-size:40px;"">BLOCK 1</span></p><p><span style=""font-size:25px;"">You have <b style=""color: #FF644F;""><strong>3 second(s)</strong></b> to respond to the following trials.</span><br></p><p></p> <!-- Blank line -->
                <p id=""blinking-text"" style=""font-weight; animation: blink 2s infinite;"">Press Space to continue</p>
                <style>
                    @keyframes blink {
                        50% {
                            opacity: 0;
                        }
                    }
                </style></p>"," ","","","","","","","","","","","","",""
"","","","","","html-keyboard-response","61","614316","0.0-16.0-0.0","5de7d12c26dd95000b6824c5","6796e1c0ff24ca17c453c51c","67c716c7ba6ac147a1090a50","passed","","","","","","","","","","","","","","","","","ballFalling","322.3","296.07114317029976","371.46","3","fallScene","false","","","","1","",""
"","","","","","html-keyboard-response","62","617327","0.0-16.0-1.0","5de7d12c26dd95000b6824c5","6796e1c0ff24ca17c453c51c","67c716c7ba6ac147a1090a50","passed","","908","","","","","","","","","","","","","","j","yesOrNo","","","","3","","","mid","3000","","1","321.3","300"
"","","","","","html-keyboard-response","63","619123","0.0-16.0-0.1","5de7d12c26dd95000b6824c5","6796e1c0ff24ca17c453c51c","67c716c7ba6ac147a1090a50","passed","","","","","","","","","","","","","","","","","ballFalling","322.3","308.07114317029976","253.89","2","fallScene","true","","","","2","",""
"","","","","","html-keyboard-response","64","622129","0.0-16.0-1.1","5de7d12c26dd95000b6824c5","6796e1c0ff24ca17c453c51c","67c716c7ba6ac147a1090a50","passed","","1143","","","","","","","","","","","","","","f","yesOrNo","","","","2","","","lp","3000","","2","321.3","151"
"","","","","","html-keyboard-response","65","623694","0.0-16.0-0.2","5de7d12c26dd95000b6824c5","6796e1c0ff24ca17c453c51c","67c716c7ba6ac147a1090a50","passed","","","","","","","","","","","","","","","","","ballFalling","322.3","296.07114317029976","371.46","3","fallScene","true","","","","3","",""
"","","","","","html-keyboard-response","66","626700","0.0-16.0-1.2","5de7d12c26dd95000b6824c5","6796e1c0ff24ca17c453c51c","67c716c7ba6ac147a1090a50","passed","","896","","","","","","","","","","","","","","j","yesOrNo","","","","3","","","lp","3000","","3","321.3","287.3327096511259"
"","","","","","html-keyboard-response","67","628480","0.0-16.0-0.3","5de7d12c26dd95000b6824c5","6796e1c0ff24ca17c453c51c","67c716c7ba6ac147a1090a50","passed","","","","","","","","","","","","","","","","","ballFalling","322.3","308.07114317029976","253.89","2","fallScene","true","","","","4","",""
"","","","","","html-keyboard-response","68","631487","0.0-16.0-1.3","5de7d12c26dd95000b6824c5","6796e1c0ff24ca17c453c51c","67c716c7ba6ac147a1090a50","passed","","958","","","","","","","","","","","","","","j","yesOrNo","","","","2","","","gt","3000","","4","308.07114317029976","253.89"
"","","","","","html-keyboard-response","69","633151","0.0-16.0-0.4","5de7d12c26dd95000b6824c5","6796e1c0ff24ca17c453c51c","67c716c7ba6ac147a1090a50","passed","","","","","","","","","","","","","","","","","ballFalling","500","479.92114317029973","330.87","6","fallScene","false","","","","5","",""
"","","","","","html-keyboard-response","70","636157","0.0-16.0-1.4","5de7d12c26dd95000b6824c5","6796e1c0ff24ca17c453c51c","67c716c7ba6ac147a1090a50","passed","","756","","","","","","","","","","","","","","f","yesOrNo","","","","6","","","gt","3000","","5","479.9211431702998","330.87"
"","","","","","html-keyboard-response","71","637719","0.0-16.0-0.5","5de7d12c26dd95000b6824c5","6796e1c0ff24ca17c453c51c","67c716c7ba6ac147a1090a50","passed","","","","","","","","","","","","","","","","","ballFalling","500","453.67114317029973","210.33","5","fallScene","true","","","","6","",""
"","","","","","html-keyboard-response","72","640728","0.0-16.0-1.5","5de7d12c26dd95000b6824c5","6796e1c0ff24ca17c453c51c","67c716c7ba6ac147a1090a50","passed","","861","","","","","","","","","","","","","","f","yesOrNo","","","","5","","","gt","3000","","6","453.6711431702998","210.33"
"","","","","","html-keyboard-response","73","642724","0.0-16.0-0.6","5de7d12c26dd95000b6824c5","6796e1c0ff24ca17c453c51c","67c716c7ba6ac147a1090a50","passed","","","","","","","","","","","","","","","","","ballFalling","604.4000000000001","596.8711431702998","394.5","10","fallScene","false","","","","7","",""
"","","","","","html-keyboard-response","74","645733","0.0-16.0-1.6","5de7d12c26dd95000b6824c5","6796e1c0ff24ca17c453c51c","67c716c7ba6ac147a1090a50","passed","","734","","","","","","","","","","","","","","f","yesOrNo","","","","10","","","gt","3000","","7","596.8711431702998","394.5"
"","","","","","html-keyboard-response","75","647295","0.0-16.0-0.7","5de7d12c26dd95000b6824c5","6796e1c0ff24ca17c453c51c","67c716c7ba6ac147a1090a50","passed","","","","","","","","","","","","","","","","","ballFalling","322.3","356.42114317029973","357.87","4","fallScene","false","","","","8","",""
"","","","","","html-keyboard-response","76","650301","0.0-16.0-1.7","5de7d12c26dd95000b6824c5","6796e1c0ff24ca17c453c51c","67c716c7ba6ac147a1090a50","passed","","962","","","","","","","","","","","","","","j","yesOrNo","","","","4","","","gt","3000","","8","356.42114317029973","357.87"
"","","","","","html-keyboard-response","77","651849","0.0-16.0-0.8","5de7d12c26dd95000b6824c5","6796e1c0ff24ca17c453c51c","67c716c7ba6ac147a1090a50","passed","","","","","","","","","","","","","","","","","ballFalling","604.4000000000001","575.4211431702997","266.76","12","fallScene","false","","","","9","",""
"","","","","","html-keyboard-response","78","654858","0.0-16.0-1.8","5de7d12c26dd95000b6824c5","6796e1c0ff24ca17c453c51c","67c716c7ba6ac147a1090a50","passed","","797","","","","","","","","","","","","","","f","yesOrNo","","","","12","","","mid","3000","","9","536.4288568297004","300"
"","","","","","html-keyboard-response","79","656353","0.0-16.0-0.9","5de7d12c26dd95000b6824c5","6796e1c0ff24ca17c453c51c","67c716c7ba6ac147a1090a50","passed","","","","","","","","","","","","","","","","","ballFalling","604.4000000000001","667.6211431702998","201.78","9","fallScene","false","","","","10","",""
"","","","","","html-keyboard-response","80","659360","0.0-16.0-1.9","5de7d12c26dd95000b6824c5","6796e1c0ff24ca17c453c51c","67c716c7ba6ac147a1090a50","passed","","1476","","","","","","","","","","","","","","f","yesOrNo","","","","9","","","mid","3000","","10","605.4000000000001","300"
"","","","","","html-keyboard-response","81","661358","0.0-16.0-0.10","5de7d12c26dd95000b6824c5","6796e1c0ff24ca17c453c51c","67c716c7ba6ac147a1090a50","passed","","","","","","","","","","","","","","","","","ballFalling","500","510.8711431702997","369.03","8","fallScene","true","","","","11","",""
"","","","","","html-keyboard-response","82","664364","0.0-16.0-1.10","5de7d12c26dd95000b6824c5","6796e1c0ff24ca17c453c51c","67c716c7ba6ac147a1090a50","passed","","969","","","","","","","","","","","","","","f","yesOrNo","","","","8","","","lp","3000","","11","501","151"
"","","","","","html-keyboard-response","83","665945","0.0-16.0-0.11","5de7d12c26dd95000b6824c5","6796e1c0ff24ca17c453c51c","67c716c7ba6ac147a1090a50","passed","","","","","","","","","","","","","","","","","ballFalling","500","553.4711431702997","282.51","7","fallScene","false","","","","12","",""
"","","","","","html-keyboard-response","84","668951","0.0-16.0-1.11","5de7d12c26dd95000b6824c5","6796e1c0ff24ca17c453c51c","67c716c7ba6ac147a1090a50","passed","","833","","","","","","","","","","","","","","j","yesOrNo","","","","7","","","mid","3000","","12","501","300"
"","","","","","html-keyboard-response","85","670513","0.0-16.0-0.12","5de7d12c26dd95000b6824c5","6796e1c0ff24ca17c453c51c","67c716c7ba6ac147a1090a50","passed","","","","","","","","","","","","","","","","","ballFalling","322.3","356.42114317029973","357.87","4","fallScene","true","","","","13","",""
"","","","","","html-keyboard-response","86","673523","0.0-16.0-1.12","5de7d12c26dd95000b6824c5","6796e1c0ff24ca17c453c51c","67c716c7ba6ac147a1090a50","passed","","1075","","","","","","","","","","","","","","j","yesOrNo","","","","4","","","lp","3000","","13","323.3","297.4070551689986"
"","","","","","html-keyboard-response","87","675186","0.0-16.0-0.13","5de7d12c26dd95000b6824c5","6796e1c0ff24ca17c453c51c","67c716c7ba6ac147a1090a50","passed","","","","","","","","","","","","","","","","","ballFalling","500","479.92114317029973","330.87","6","fallScene","false","","","","14","",""
"","","","","","html-keyboard-response","88","678191","0.0-16.0-1.13","5de7d12c26dd95000b6824c5","6796e1c0ff24ca17c453c51c","67c716c7ba6ac147a1090a50","passed","","856","","","","","","","","","","","","","","f","yesOrNo","","","","6","","","lp","3000","","14","499","189.92909825697632"
"","","","","","html-keyboard-response","89","679740","0.0-16.0-0.14","5de7d12c26dd95000b6824c5","6796e1c0ff24ca17c453c51c","67c716c7ba6ac147a1090a50","passed","","","","","","","","","","","","","","","","","ballFalling","322.3","379.3711431702997","245.25","1","fallScene","true","","","","15","",""
"","","","","","html-keyboard-response","90","682749","0.0-16.0-1.14","5de7d12c26dd95000b6824c5","6796e1c0ff24ca17c453c51c","67c716c7ba6ac147a1090a50","passed","","812","","","","","","","","","","","","","","f","yesOrNo","","","","1","","","mid","3000","","15","390.27114317029975","300"
"","","","","","html-keyboard-response","91","684325","0.0-16.0-0.15","5de7d12c26dd95000b6824c5","6796e1c0ff24ca17c453c51c","67c716c7ba6ac147a1090a50","passed","","","","","","","","","","","","","","","","","ballFalling","604.4000000000001","650.0211431702996","404.58000000000004","11","fallScene","true","","","","16","",""
"","","","","","html-keyboard-response","92","687334","0.0-16.0-1.15","5de7d12c26dd95000b6824c5","6796e1c0ff24ca17c453c51c","67c716c7ba6ac147a1090a50","passed","","694","","","","","","","","","","","","","","j","yesOrNo","","","","11","","","gt","3000","","16","650.0211431702996","404.58"
"","","","","","html-keyboard-response","93","689131","0.0-16.0-0.16","5de7d12c26dd95000b6824c5","6796e1c0ff24ca17c453c51c","67c716c7ba6ac147a1090a50","passed","","","","","","","","","","","","","","","","","ballFalling","322.3","308.07114317029976","253.89","2","fallScene","true","","","","17","",""
"","","","","","html-keyboard-response","94","692138","0.0-16.0-1.16","5de7d12c26dd95000b6824c5","6796e1c0ff24ca17c453c51c","67c716c7ba6ac147a1090a50","passed","","1731","","","","","","","","","","","","","","j","yesOrNo","","","","2","","","lp","3000","","17","321.3","151"
"","","","","","html-keyboard-response","95","693702","0.0-16.0-0.17","5de7d12c26dd95000b6824c5","6796e1c0ff24ca17c453c51c","67c716c7ba6ac147a1090a50","passed","","","","","","","","","","","","","","","","","ballFalling","322.3","379.3711431702997","245.25","1","fallScene","true","","","","18","",""
"","","","","","html-keyboard-response","96","696710","0.0-16.0-1.17","5de7d12c26dd95000b6824c5","6796e1c0ff24ca17c453c51c","67c716c7ba6ac147a1090a50","passed","","903","","","","","","","","","","","","","","f","yesOrNo","","","","1","","","gt","3000","","18","379.3711431702997","245.25"
"","","","","","html-keyboard-response","97","698506","0.0-16.0-0.18","5de7d12c26dd95000b6824c5","6796e1c0ff24ca17c453c51c","67c716c7ba6ac147a1090a50","passed","","","","","","","","","","","","","","","","","ballFalling","322.3","308.07114317029976","253.89","2","fallScene","false","","","","19","",""
"","","","","","html-keyboard-response","98","701512","0.0-16.0-1.18","5de7d12c26dd95000b6824c5","6796e1c0ff24ca17c453c51c","67c716c7ba6ac147a1090a50","passed","","2141","","","","","","","","","","","","","","j","yesOrNo","","","","2","","","mid","3000","","19","321.3","300"
"","","","","","html-keyboard-response","99","703060","0.0-16.0-0.19","5de7d12c26dd95000b6824c5","6796e1c0ff24ca17c453c51c","67c716c7ba6ac147a1090a50","passed","","","","","","","","","","","","","","","","","ballFalling","604.4000000000001","575.4211431702997","266.76","12","fallScene","true","","","","20","",""
"","","","","","html-keyboard-response","100","706066","0.0-16.0-1.19","5de7d12c26dd95000b6824c5","6796e1c0ff24ca17c453c51c","67c716c7ba6ac147a1090a50","passed","","1486","","","","","","","","","","","","","","f","yesOrNo","","","","12","","","mid","3000","","20","536.4288568297004","300"
"","","","","","html-keyboard-response","101","708063","0.0-16.0-0.20","5de7d12c26dd95000b6824c5","6796e1c0ff24ca17c453c51c","67c716c7ba6ac147a1090a50","passed","","","","","","","","","","","","","","","","","ballFalling","604.4000000000001","596.8711431702998","394.5","10","fallScene","false","","","","21","",""
"","","","","","html-keyboard-response","102","711071","0.0-16.0-1.20","5de7d12c26dd95000b6824c5","6796e1c0ff24ca17c453c51c","67c716c7ba6ac147a1090a50","passed","","988","","","","","","","","","","","","","","f","yesOrNo","","","","10","","","mid","3000","","21","536.4288568297004","300"
"","","","","","html-keyboard-response","103","712633","0.0-16.0-0.21","5de7d12c26dd95000b6824c5","6796e1c0ff24ca17c453c51c","67c716c7ba6ac147a1090a50","passed","","","","","","","","","","","","","","","","","ballFalling","604.4000000000001","575.4211431702997","266.76","12","fallScene","true","","","","22","",""
"","","","","","html-keyboard-response","104","715641","0.0-16.0-1.21","5de7d12c26dd95000b6824c5","6796e1c0ff24ca17c453c51c","67c716c7ba6ac147a1090a50","passed","","1062","","","","","","","","","","","","","","j","yesOrNo","","","","12","","","gt","3000","","22","575.4211431702997","266.76"
"","","","","","html-keyboard-response","105","717653","0.0-16.0-0.22","5de7d12c26dd95000b6824c5","6796e1c0ff24ca17c453c51c","67c716c7ba6ac147a1090a50","passed","","","","","","","","","","","","","","","","","ballFalling","500","510.8711431702997","369.03","8","fallScene","false","","","","23","",""
"","","","","","html-keyboard-response","106","720659","0.0-16.0-1.22","5de7d12c26dd95000b6824c5","6796e1c0ff24ca17c453c51c","67c716c7ba6ac147a1090a50","passed","","1105","","","","","","","","","","","","","","f","yesOrNo","","","","8","","","gt","3000","","23","510.8711431702997","369.03"
"","","","","","html-keyboard-response","107","722220","0.0-16.0-0.23","5de7d12c26dd95000b6824c5","6796e1c0ff24ca17c453c51c","67c716c7ba6ac147a1090a50","passed","","","","","","","","","","","","","","","","","ballFalling","322.3","356.42114317029973","357.87","4","fallScene","true","","","","24","",""
"","","","","","html-keyboard-response","108","725232","0.0-16.0-1.23","5de7d12c26dd95000b6824c5","6796e1c0ff24ca17c453c51c","67c716c7ba6ac147a1090a50","passed","","1607","","","","","","","","","","","","","","j","yesOrNo","","","","4","","","mid","3000","","24","390.27114317029975","300"
"","","","","","html-keyboard-response","109","738897","0.0-17.0","5de7d12c26dd95000b6824c5","6796e1c0ff24ca17c453c51c","67c716c7ba6ac147a1090a50","passed","","13664","","","","","","","","","","","","","<p><span style=""font-size:40px;"">BLOCK 2</span></p><p><span style=""font-size:25px;"">You have <b style=""color: #FF644F;""><strong>3 second(s)</strong></b> to respond to the following trials.</span><br></p><p></p> <!-- Blank line -->
                <p id=""blinking-text"" style=""font-weight; animation: blink 2s infinite;"">Press Space to continue</p>
                <style>
                    @keyframes blink {
                        50% {
                            opacity: 0;
                        }
                    }
                </style></p>"," ","","","","","","","","","","","","",""
"","","","","","html-keyboard-response","110","740457","0.0-18.0-0.0","5de7d12c26dd95000b6824c5","6796e1c0ff24ca17c453c51c","67c716c7ba6ac147a1090a50","passed","","","","","","","","","","","","","","","","","ballFalling","604.4000000000001","650.0211431702996","404.58000000000004","11","fallScene","false","","","","25","",""
"","","","","","html-keyboard-response","111","743464","0.0-18.0-1.0","5de7d12c26dd95000b6824c5","6796e1c0ff24ca17c453c51c","67c716c7ba6ac147a1090a50","passed","","1469","","","","","","","","","","","","","","j","yesOrNo","","","","11","","","gt","3000","","25","650.0211431702996","404.58"
"","","","","","html-keyboard-response","112","745012","0.0-18.0-0.1","5de7d12c26dd95000b6824c5","6796e1c0ff24ca17c453c51c","67c716c7ba6ac147a1090a50","passed","","","","","","","","","","","","","","","","","ballFalling","604.4000000000001","650.0211431702996","404.58000000000004","11","fallScene","true","","","","26","",""
"","","","","","html-keyboard-response","113","748020","0.0-18.0-1.1","5de7d12c26dd95000b6824c5","6796e1c0ff24ca17c453c51c","67c716c7ba6ac147a1090a50","passed","","860","","","","","","","","","","","","","","f","yesOrNo","","","","11","","","mid","3000","","26","605.4000000000001","300"
"","","","","","html-keyboard-response","114","749830","0.0-18.0-0.2","5de7d12c26dd95000b6824c5","6796e1c0ff24ca17c453c51c","67c716c7ba6ac147a1090a50","passed","","","","","","","","","","","","","","","","","ballFalling","322.3","308.07114317029976","253.89","2","fallScene","false","","","","27","",""
"","","","","","html-keyboard-response","115","752838","0.0-18.0-1.2","5de7d12c26dd95000b6824c5","6796e1c0ff24ca17c453c51c","67c716c7ba6ac147a1090a50","passed","","925","","","","","","","","","","","","","","j","yesOrNo","","","","2","","","gt","3000","","27","308.07114317029976","253.89"
"","","","","","html-keyboard-response","116","754417","0.0-18.0-0.3","5de7d12c26dd95000b6824c5","6796e1c0ff24ca17c453c51c","67c716c7ba6ac147a1090a50","passed","","","","","","","","","","","","","","","","","ballFalling","500","553.4711431702997","282.51","7","fallScene","false","","","","28","",""
"","","","","","html-keyboard-response","117","757426","0.0-18.0-1.3","5de7d12c26dd95000b6824c5","6796e1c0ff24ca17c453c51c","67c716c7ba6ac147a1090a50","passed","","967","","","","","","","","","","","","","","f","yesOrNo","","","","7","","","lp","3000","","28","501","227.2843295913261"
"","","","","","html-keyboard-response","118","759422","0.0-18.0-0.4","5de7d12c26dd95000b6824c5","6796e1c0ff24ca17c453c51c","67c716c7ba6ac147a1090a50","passed","","","","","","","","","","","","","","","","","ballFalling","500","510.8711431702997","369.03","8","fallScene","false","","","","29","",""
"","","","","","html-keyboard-response","119","762429","0.0-18.0-1.4","5de7d12c26dd95000b6824c5","6796e1c0ff24ca17c453c51c","67c716c7ba6ac147a1090a50","passed","","2225","","","","","","","","","","","","","","j","yesOrNo","","","","8","","","lp","3000","","29","501","151"
"","","","","","html-keyboard-response","120","763994","0.0-18.0-0.5","5de7d12c26dd95000b6824c5","6796e1c0ff24ca17c453c51c","67c716c7ba6ac147a1090a50","passed","","","","","","","","","","","","","","","","","ballFalling","604.4000000000001","650.0211431702996","404.58000000000004","11","fallScene","true","","","","30","",""
"","","","","","html-keyboard-response","121","767001","0.0-18.0-1.5","5de7d12c26dd95000b6824c5","6796e1c0ff24ca17c453c51c","67c716c7ba6ac147a1090a50","passed","","2128","","","","","","","","","","","","","","f","yesOrNo","","","","11","","","lp","3000","","30","605.4000000000001","372.6340973215488"
"","","","","","html-keyboard-response","122","768563","0.0-18.0-0.6","5de7d12c26dd95000b6824c5","6796e1c0ff24ca17c453c51c","67c716c7ba6ac147a1090a50","passed","","","","","","","","","","","","","","","","","ballFalling","322.3","356.42114317029973","357.87","4","fallScene","true","","","","31","",""
"","","","","","html-keyboard-response","123","771571","0.0-18.0-1.6","5de7d12c26dd95000b6824c5","6796e1c0ff24ca17c453c51c","67c716c7ba6ac147a1090a50","passed","","1014","","","","","","","","","","","","","","f","yesOrNo","","","","4","","","mid","3000","","31","390.27114317029975","300"
"","","","","","html-keyboard-response","124","773069","0.0-18.0-0.7","5de7d12c26dd95000b6824c5","6796e1c0ff24ca17c453c51c","67c716c7ba6ac147a1090a50","passed","","","","","","","","","","","","","","","","","ballFalling","604.4000000000001","667.6211431702998","201.78","9","fallScene","false","","","","32","",""
"","","","","","html-keyboard-response","125","776077","0.0-18.0-1.7","5de7d12c26dd95000b6824c5","6796e1c0ff24ca17c453c51c","67c716c7ba6ac147a1090a50","passed","","868","","","","","","","","","","","","","","f","yesOrNo","","","","9","","","lp","3000","","32","605.4000000000001","151"
"","","","","","html-keyboard-response","126","777639","0.0-18.0-0.8","5de7d12c26dd95000b6824c5","6796e1c0ff24ca17c453c51c","67c716c7ba6ac147a1090a50","passed","","","","","","","","","","","","","","","","","ballFalling","500","453.67114317029973","210.33","5","fallScene","true","","","","33","",""
"","","","","","html-keyboard-response","127","780647","0.0-18.0-1.8","5de7d12c26dd95000b6824c5","6796e1c0ff24ca17c453c51c","67c716c7ba6ac147a1090a50","passed","","1139","","","","","","","","","","","","","","j","yesOrNo","","","","5","","","gt","3000","","33","453.6711431702998","210.33"
"","","","","","html-keyboard-response","128","782210","0.0-18.0-0.9","5de7d12c26dd95000b6824c5","6796e1c0ff24ca17c453c51c","67c716c7ba6ac147a1090a50","passed","","","","","","","","","","","","","","","","","ballFalling","500","453.67114317029973","210.33","5","fallScene","false","","","","34","",""
"","","","","","html-keyboard-response","129","785218","0.0-18.0-1.9","5de7d12c26dd95000b6824c5","6796e1c0ff24ca17c453c51c","67c716c7ba6ac147a1090a50","passed","","2313","","","","","","","","","","","","","","j","yesOrNo","","","","5","","","mid","3000","","34","499","300"
"","","","","","html-keyboard-response","130","786781","0.0-18.0-0.10","5de7d12c26dd95000b6824c5","6796e1c0ff24ca17c453c51c","67c716c7ba6ac147a1090a50","passed","","","","","","","","","","","","","","","","","ballFalling","604.4000000000001","575.4211431702997","266.76","12","fallScene","true","","","","35","",""
"","","","","","html-keyboard-response","131","789787","0.0-18.0-1.10","5de7d12c26dd95000b6824c5","6796e1c0ff24ca17c453c51c","67c716c7ba6ac147a1090a50","passed","","977","","","","","","","","","","","","","","f","yesOrNo","","","","12","","","lp","3000","","35","603.4000000000001","151"
"","","","","","html-keyboard-response","132","791784","0.0-18.0-0.11","5de7d12c26dd95000b6824c5","6796e1c0ff24ca17c453c51c","67c716c7ba6ac147a1090a50","passed","","","","","","","","","","","","","","","","","ballFalling","604.4000000000001","596.8711431702998","394.5","10","fallScene","true","","","","36","",""
"","","","","","html-keyboard-response","133","794793","0.0-18.0-1.11","5de7d12c26dd95000b6824c5","6796e1c0ff24ca17c453c51c","67c716c7ba6ac147a1090a50","passed","","1205","","","","","","","","","","","","","","f","yesOrNo","","","","10","","","lp","3000","","36","603.4000000000001","215.50214355555383"
"","","","","","html-keyboard-response","134","796454","0.0-18.0-0.12","5de7d12c26dd95000b6824c5","6796e1c0ff24ca17c453c51c","67c716c7ba6ac147a1090a50","passed","","","","","","","","","","","","","","","","","ballFalling","500","479.92114317029973","330.87","6","fallScene","false","","","","37","",""
"","","","","","html-keyboard-response","135","799461","0.0-18.0-1.12","5de7d12c26dd95000b6824c5","6796e1c0ff24ca17c453c51c","67c716c7ba6ac147a1090a50","passed","","1532","","","","","","","","","","","","","","j","yesOrNo","","","","6","","","mid","3000","","37","499","300"
"","","","","","html-keyboard-response","136","801457","0.0-18.0-0.13","5de7d12c26dd95000b6824c5","6796e1c0ff24ca17c453c51c","67c716c7ba6ac147a1090a50","passed","","","","","","","","","","","","","","","","","ballFalling","500","510.8711431702997","369.03","8","fallScene","false","","","","38","",""
"","","","","","html-keyboard-response","137","804464","0.0-18.0-1.13","5de7d12c26dd95000b6824c5","6796e1c0ff24ca17c453c51c","67c716c7ba6ac147a1090a50","passed","","1316","","","","","","","","","","","","","","f","yesOrNo","","","","8","","","mid","3000","","38","501","300"
"","","","","","html-keyboard-response","138","806028","0.0-18.0-0.14","5de7d12c26dd95000b6824c5","6796e1c0ff24ca17c453c51c","67c716c7ba6ac147a1090a50","passed","","","","","","","","","","","","","","","","","ballFalling","322.3","379.3711431702997","245.25","1","fallScene","false","","","","39","",""
"","","","","","html-keyboard-response","139","809037","0.0-18.0-1.14","5de7d12c26dd95000b6824c5","6796e1c0ff24ca17c453c51c","67c716c7ba6ac147a1090a50","passed","","1517","","","","","","","","","","","","","","j","yesOrNo","","","","1","","","gt","3000","","39","379.3711431702997","245.25"
"","","","","","html-keyboard-response","140","810614","0.0-18.0-0.15","5de7d12c26dd95000b6824c5","6796e1c0ff24ca17c453c51c","67c716c7ba6ac147a1090a50","passed","","","","","","","","","","","","","","","","","ballFalling","500","553.4711431702997","282.51","7","fallScene","false","","","","40","",""
"","","","","","html-keyboard-response","141","813624","0.0-18.0-1.15","5de7d12c26dd95000b6824c5","6796e1c0ff24ca17c453c51c","67c716c7ba6ac147a1090a50","passed","","2209","","","","","","","","","","","","","","j","yesOrNo","","","","7","","","gt","3000","","40","553.4711431702997","282.51"
"","","","","","html-keyboard-response","142","815204","0.0-18.0-0.16","5de7d12c26dd95000b6824c5","6796e1c0ff24ca17c453c51c","67c716c7ba6ac147a1090a50","passed","","","","","","","","","","","","","","","","","ballFalling","500","553.4711431702997","282.51","7","fallScene","false","","","","41","",""
"","","","","","html-keyboard-response","143","818210","0.0-18.0-1.16","5de7d12c26dd95000b6824c5","6796e1c0ff24ca17c453c51c","67c716c7ba6ac147a1090a50","passed","","1249","","","","","","","","","","","","","","j","yesOrNo","","","","7","","","gt","3000","","41","553.4711431702997","282.51"
"","","","","","html-keyboard-response","144","820006","0.0-18.0-0.17","5de7d12c26dd95000b6824c5","6796e1c0ff24ca17c453c51c","67c716c7ba6ac147a1090a50","passed","","","","","","","","","","","","","","","","","ballFalling","322.3","308.07114317029976","253.89","2","fallScene","true","","","","42","",""
"","","","","","html-keyboard-response","145","823015","0.0-18.0-1.17","5de7d12c26dd95000b6824c5","6796e1c0ff24ca17c453c51c","67c716c7ba6ac147a1090a50","passed","","699","","","","","","","","","","","","","","f","yesOrNo","","","","2","","","mid","3000","","42","321.3","300"
"","","","","","html-keyboard-response","146","825025","0.0-18.0-0.18","5de7d12c26dd95000b6824c5","6796e1c0ff24ca17c453c51c","67c716c7ba6ac147a1090a50","passed","","","","","","","","","","","","","","","","","ballFalling","604.4000000000001","596.8711431702998","394.5","10","fallScene","true","","","","43","",""
"","","","","","html-keyboard-response","147","828034","0.0-18.0-1.18","5de7d12c26dd95000b6824c5","6796e1c0ff24ca17c453c51c","67c716c7ba6ac147a1090a50","passed","","1139","","","","","","","","","","","","","","f","yesOrNo","","","","10","","","gt","3000","","43","596.8711431702998","394.5"
"","","","","","html-keyboard-response","148","829598","0.0-18.0-0.19","5de7d12c26dd95000b6824c5","6796e1c0ff24ca17c453c51c","67c716c7ba6ac147a1090a50","passed","","","","","","","","","","","","","","","","","ballFalling","322.3","296.07114317029976","371.46","3","fallScene","true","","","","44","",""
"","","","","","html-keyboard-response","149","832605","0.0-18.0-1.19","5de7d12c26dd95000b6824c5","6796e1c0ff24ca17c453c51c","67c716c7ba6ac147a1090a50","passed","","2514","","","","","","","","","","","","","","f","yesOrNo","","","","3","","","lp","3000","","44","321.3","287.3327096511259"
"","","","","","html-keyboard-response","150","834616","0.0-18.0-0.20","5de7d12c26dd95000b6824c5","6796e1c0ff24ca17c453c51c","67c716c7ba6ac147a1090a50","passed","","","","","","","","","","","","","","","","","ballFalling","500","510.8711431702997","369.03","8","fallScene","false","","","","45","",""
"","","","","","html-keyboard-response","151","837625","0.0-18.0-1.20","5de7d12c26dd95000b6824c5","6796e1c0ff24ca17c453c51c","67c716c7ba6ac147a1090a50","passed","","1265","","","","","","","","","","","","","","f","yesOrNo","","","","8","","","gt","3000","","45","510.8711431702997","369.03"
"","","","","","html-keyboard-response","152","839636","0.0-18.0-0.21","5de7d12c26dd95000b6824c5","6796e1c0ff24ca17c453c51c","67c716c7ba6ac147a1090a50","passed","","","","","","","","","","","","","","","","","ballFalling","604.4000000000001","596.8711431702998","394.5","10","fallScene","true","","","","46","",""
"","","","","","html-keyboard-response","153","842645","0.0-18.0-1.21","5de7d12c26dd95000b6824c5","6796e1c0ff24ca17c453c51c","67c716c7ba6ac147a1090a50","passed","","1385","","","","","","","","","","","","","","f","yesOrNo","","","","10","","","mid","3000","","46","536.4288568297004","300"
"","","","","","html-keyboard-response","154","844206","0.0-18.0-0.22","5de7d12c26dd95000b6824c5","6796e1c0ff24ca17c453c51c","67c716c7ba6ac147a1090a50","passed","","","","","","","","","","","","","","","","","ballFalling","322.3","379.3711431702997","245.25","1","fallScene","true","","","","47","",""
"","","","","","html-keyboard-response","155","847214","0.0-18.0-1.22","5de7d12c26dd95000b6824c5","6796e1c0ff24ca17c453c51c","67c716c7ba6ac147a1090a50","passed","","1136","","","","","","","","","","","","","","f","yesOrNo","","","","1","","","mid","3000","","47","390.27114317029975","300"
"","","","","","html-keyboard-response","156","849227","0.0-18.0-0.23","5de7d12c26dd95000b6824c5","6796e1c0ff24ca17c453c51c","67c716c7ba6ac147a1090a50","passed","","","","","","","","","","","","","","","","","ballFalling","500","510.8711431702997","369.03","8","fallScene","false","","","","48","",""
"","","","","","html-keyboard-response","157","852232","0.0-18.0-1.23","5de7d12c26dd95000b6824c5","6796e1c0ff24ca17c453c51c","67c716c7ba6ac147a1090a50","passed","","1243","","","","","","","","","","","","","","j","yesOrNo","","","","8","","","mid","3000","","48","501","300"
"","","","","","html-keyboard-response","158","854873","0.0-19.0","5de7d12c26dd95000b6824c5","6796e1c0ff24ca17c453c51c","67c716c7ba6ac147a1090a50","passed","","2640","","","","","","","","","","","","","<p><span style=""font-size:40px;"">BLOCK 3</span></p><p><span style=""font-size:25px;"">You have <b style=""color: #FF644F;""><strong>0.7 second(s)</strong></b> to respond to the following trials.</span><br></p><p></p> <!-- Blank line -->
                <p id=""blinking-text"" style=""font-weight; animation: blink 2s infinite;"">Press Space to continue</p>
                <style>
                    @keyframes blink {
                        50% {
                            opacity: 0;
                        }
                    }
                </style></p>"," ","","","","","","","","","","","","",""
"","","","","","html-keyboard-response","159","856424","0.0-20.0-0.0","5de7d12c26dd95000b6824c5","6796e1c0ff24ca17c453c51c","67c716c7ba6ac147a1090a50","passed","","","","","","","","","","","","","","","","","ballFalling","322.3","379.3711431702997","245.25","1","fallScene","false","","","","49","",""
"","","","","","html-keyboard-response","160","857138","0.0-20.0-1.0","5de7d12c26dd95000b6824c5","6796e1c0ff24ca17c453c51c","67c716c7ba6ac147a1090a50","passed","","null","","","","","","","","","","","","","","null","yesOrNo","","","","1","","","lp","700","","49","323.3","217.74551669457017"
"","","","","","html-keyboard-response","161","858700","0.0-20.0-0.1","5de7d12c26dd95000b6824c5","6796e1c0ff24ca17c453c51c","67c716c7ba6ac147a1090a50","passed","","","","","","","","","","","","","","","","","ballFalling","322.3","356.42114317029973","357.87","4","fallScene","false","","","","50","",""
"","","","","","html-keyboard-response","162","859413","0.0-20.0-1.1","5de7d12c26dd95000b6824c5","6796e1c0ff24ca17c453c51c","67c716c7ba6ac147a1090a50","passed","","430","","","","","","","","","","","","","","j","yesOrNo","","","","4","","","gt","700","","50","356.42114317029973","357.87"
"","","","","","html-keyboard-response","163","860962","0.0-20.0-0.2","5de7d12c26dd95000b6824c5","6796e1c0ff24ca17c453c51c","67c716c7ba6ac147a1090a50","passed","","","","","","","","","","","","","","","","","ballFalling","322.3","296.07114317029976","371.46","3","fallScene","true","","","","51","",""
"","","","","","html-keyboard-response","164","861675","0.0-20.0-1.2","5de7d12c26dd95000b6824c5","6796e1c0ff24ca17c453c51c","67c716c7ba6ac147a1090a50","passed","","629","","","","","","","","","","","","","","j","yesOrNo","","","","3","","","lp","700","","51","321.3","287.3327096511259"
"","","","","","html-keyboard-response","165","863238","0.0-20.0-0.3","5de7d12c26dd95000b6824c5","6796e1c0ff24ca17c453c51c","67c716c7ba6ac147a1090a50","passed","","","","","","","","","","","","","","","","","ballFalling","604.4000000000001","650.0211431702996","404.58000000000004","11","fallScene","true","","","","52","",""
"","","","","","html-keyboard-response","166","863953","0.0-20.0-1.3","5de7d12c26dd95000b6824c5","6796e1c0ff24ca17c453c51c","67c716c7ba6ac147a1090a50","passed","","624","","","","","","","","","","","","","","f","yesOrNo","","","","11","","","mid","700","","52","605.4000000000001","300"
"","","","","","html-keyboard-response","167","865964","0.0-20.0-0.4","5de7d12c26dd95000b6824c5","6796e1c0ff24ca17c453c51c","67c716c7ba6ac147a1090a50","passed","","","","","","","","","","","","","","","","","ballFalling","500","510.8711431702997","369.03","8","fallScene","true","","","","53","",""
"","","","","","html-keyboard-response","168","866679","0.0-20.0-1.4","5de7d12c26dd95000b6824c5","6796e1c0ff24ca17c453c51c","67c716c7ba6ac147a1090a50","passed","","null","","","","","","","","","","","","","","null","yesOrNo","","","","8","","","lp","700","","53","501","151"
"","","","","","html-keyboard-response","169","868242","0.0-20.0-0.5","5de7d12c26dd95000b6824c5","6796e1c0ff24ca17c453c51c","67c716c7ba6ac147a1090a50","passed","","","","","","","","","","","","","","","","","ballFalling","322.3","296.07114317029976","371.46","3","fallScene","true","","","","54","",""
"","","","","","html-keyboard-response","170","868956","0.0-20.0-1.5","5de7d12c26dd95000b6824c5","6796e1c0ff24ca17c453c51c","67c716c7ba6ac147a1090a50","passed","","616","","","","","","","","","","","","","","f","yesOrNo","","","","3","","","mid","700","","54","321.3","300"
"","","","","","html-keyboard-response","171","870549","0.0-20.0-0.6","5de7d12c26dd95000b6824c5","6796e1c0ff24ca17c453c51c","67c716c7ba6ac147a1090a50","passed","","","","","","","","","","","","","","","","","ballFalling","500","553.4711431702997","282.51","7","fallScene","false","","","","55","",""
"","","","","","html-keyboard-response","172","871251","0.0-20.0-1.6","5de7d12c26dd95000b6824c5","6796e1c0ff24ca17c453c51c","67c716c7ba6ac147a1090a50","passed","","null","","","","","","","","","","","","","","null","yesOrNo","","","","7","","","lp","700","","55","501","227.2843295913261"
"","","","","","html-keyboard-response","173","872745","0.0-20.0-0.7","5de7d12c26dd95000b6824c5","6796e1c0ff24ca17c453c51c","67c716c7ba6ac147a1090a50","passed","","","","","","","","","","","","","","","","","ballFalling","604.4000000000001","667.6211431702998","201.78","9","fallScene","true","","","","56","",""
"","","","","","html-keyboard-response","174","873460","0.0-20.0-1.7","5de7d12c26dd95000b6824c5","6796e1c0ff24ca17c453c51c","67c716c7ba6ac147a1090a50","passed","","625","","","","","","","","","","","","","","f","yesOrNo","","","","9","","","lp","700","","56","605.4000000000001","151"
"","","","","","html-keyboard-response","175","875256","0.0-20.0-0.8","5de7d12c26dd95000b6824c5","6796e1c0ff24ca17c453c51c","67c716c7ba6ac147a1090a50","passed","","","","","","","","","","","","","","","","","ballFalling","322.3","308.07114317029976","253.89","2","fallScene","true","","","","57","",""
"","","","","","html-keyboard-response","176","875970","0.0-20.0-1.8","5de7d12c26dd95000b6824c5","6796e1c0ff24ca17c453c51c","67c716c7ba6ac147a1090a50","passed","","641","","","","","","","","","","","","","","j","yesOrNo","","","","2","","","gt","700","","57","308.07114317029976","253.89"
"","","","","","html-keyboard-response","177","877982","0.0-20.0-0.9","5de7d12c26dd95000b6824c5","6796e1c0ff24ca17c453c51c","67c716c7ba6ac147a1090a50","passed","","","","","","","","","","","","","","","","","ballFalling","500","510.8711431702997","369.03","8","fallScene","true","","","","58","",""
"","","","","","html-keyboard-response","178","878696","0.0-20.0-1.9","5de7d12c26dd95000b6824c5","6796e1c0ff24ca17c453c51c","67c716c7ba6ac147a1090a50","passed","","667","","","","","","","","","","","","","","j","yesOrNo","","","","8","","","mid","700","","58","501","300"
"","","","","","html-keyboard-response","179","880258","0.0-20.0-0.10","5de7d12c26dd95000b6824c5","6796e1c0ff24ca17c453c51c","67c716c7ba6ac147a1090a50","passed","","","","","","","","","","","","","","","","","ballFalling","604.4000000000001","575.4211431702997","266.76","12","fallScene","true","","","","59","",""
"","","","","","html-keyboard-response","180","880973","0.0-20.0-1.10","5de7d12c26dd95000b6824c5","6796e1c0ff24ca17c453c51c","67c716c7ba6ac147a1090a50","passed","","461","","","","","","","","","","","","","","f","yesOrNo","","","","12","","","gt","700","","59","575.4211431702997","266.76"
"","","","","","html-keyboard-response","181","882985","0.0-20.0-0.11","5de7d12c26dd95000b6824c5","6796e1c0ff24ca17c453c51c","67c716c7ba6ac147a1090a50","passed","","","","","","","","","","","","","","","","","ballFalling","500","510.8711431702997","369.03","8","fallScene","false","","","","60","",""
"","","","","","html-keyboard-response","182","883696","0.0-20.0-1.11","5de7d12c26dd95000b6824c5","6796e1c0ff24ca17c453c51c","67c716c7ba6ac147a1090a50","passed","","569","","","","","","","","","","","","","","f","yesOrNo","","","","8","","","gt","700","","60","510.8711431702997","369.03"
"","","","","","html-keyboard-response","183","885244","0.0-20.0-0.12","5de7d12c26dd95000b6824c5","6796e1c0ff24ca17c453c51c","67c716c7ba6ac147a1090a50","passed","","","","","","","","","","","","","","","","","ballFalling","322.3","296.07114317029976","371.46","3","fallScene","false","","","","61","",""
"","","","","","html-keyboard-response","184","885958","0.0-20.0-1.12","5de7d12c26dd95000b6824c5","6796e1c0ff24ca17c453c51c","67c716c7ba6ac147a1090a50","passed","","488","","","","","","","","","","","","","","j","yesOrNo","","","","3","","","lp","700","","61","321.3","287.3327096511259"
"","","","","","html-keyboard-response","185","887506","0.0-20.0-0.13","5de7d12c26dd95000b6824c5","6796e1c0ff24ca17c453c51c","67c716c7ba6ac147a1090a50","passed","","","","","","","","","","","","","","","","","ballFalling","604.4000000000001","575.4211431702997","266.76","12","fallScene","false","","","","62","",""
"","","","","","html-keyboard-response","186","888218","0.0-20.0-1.13","5de7d12c26dd95000b6824c5","6796e1c0ff24ca17c453c51c","67c716c7ba6ac147a1090a50","passed","","678","","","","","","","","","","","","","","j","yesOrNo","","","","12","","","gt","700","","62","575.4211431702997","266.76"
"","","","","","html-keyboard-response","187","889766","0.0-20.0-0.14","5de7d12c26dd95000b6824c5","6796e1c0ff24ca17c453c51c","67c716c7ba6ac147a1090a50","passed","","","","","","","","","","","","","","","","","ballFalling","500","453.67114317029973","210.33","5","fallScene","false","","","","63","",""
"","","","","","html-keyboard-response","188","890480","0.0-20.0-1.14","5de7d12c26dd95000b6824c5","6796e1c0ff24ca17c453c51c","67c716c7ba6ac147a1090a50","passed","","679","","","","","","","","","","","","","","f","yesOrNo","","","","5","","","mid","700","","63","499","300"
"","","","","","html-keyboard-response","189","892492","0.0-20.0-0.15","5de7d12c26dd95000b6824c5","6796e1c0ff24ca17c453c51c","67c716c7ba6ac147a1090a50","passed","","","","","","","","","","","","","","","","","ballFalling","604.4000000000001","596.8711431702998","394.5","10","fallScene","false","","","","64","",""
"","","","","","html-keyboard-response","190","893205","0.0-20.0-1.15","5de7d12c26dd95000b6824c5","6796e1c0ff24ca17c453c51c","67c716c7ba6ac147a1090a50","passed","","674","","","","","","","","","","","","","","j","yesOrNo","","","","10","","","gt","700","","64","596.8711431702998","394.5"
"","","","","","html-keyboard-response","191","894782","0.0-20.0-0.16","5de7d12c26dd95000b6824c5","6796e1c0ff24ca17c453c51c","67c716c7ba6ac147a1090a50","passed","","","","","","","","","","","","","","","","","ballFalling","322.3","296.07114317029976","371.46","3","fallScene","false","","","","65","",""
"","","","","","html-keyboard-response","192","895484","0.0-20.0-1.16","5de7d12c26dd95000b6824c5","6796e1c0ff24ca17c453c51c","67c716c7ba6ac147a1090a50","passed","","null","","","","","","","","","","","","","","null","yesOrNo","","","","3","","","mid","700","","65","321.3","300"
"","","","","","html-keyboard-response","193","897046","0.0-20.0-0.17","5de7d12c26dd95000b6824c5","6796e1c0ff24ca17c453c51c","67c716c7ba6ac147a1090a50","passed","","","","","","","","","","","","","","","","","ballFalling","322.3","296.07114317029976","371.46","3","fallScene","true","","","","66","",""
"","","","","","html-keyboard-response","194","897759","0.0-20.0-1.17","5de7d12c26dd95000b6824c5","6796e1c0ff24ca17c453c51c","67c716c7ba6ac147a1090a50","passed","","637","","","","","","","","","","","","","","j","yesOrNo","","","","3","","","gt","700","","66","296.07114317029976","371.46"
"","","","","","html-keyboard-response","195","899771","0.0-20.0-0.18","5de7d12c26dd95000b6824c5","6796e1c0ff24ca17c453c51c","67c716c7ba6ac147a1090a50","passed","","","","","","","","","","","","","","","","","ballFalling","604.4000000000001","596.8711431702998","394.5","10","fallScene","false","","","","67","",""
"","","","","","html-keyboard-response","196","900486","0.0-20.0-1.18","5de7d12c26dd95000b6824c5","6796e1c0ff24ca17c453c51c","67c716c7ba6ac147a1090a50","passed","","549","","","","","","","","","","","","","","f","yesOrNo","","","","10","","","mid","700","","67","536.4288568297004","300"
"","","","","","html-keyboard-response","197","902049","0.0-20.0-0.19","5de7d12c26dd95000b6824c5","6796e1c0ff24ca17c453c51c","67c716c7ba6ac147a1090a50","passed","","","","","","","","","","","","","","","","","ballFalling","500","453.67114317029973","210.33","5","fallScene","true","","","","68","",""
"","","","","","html-keyboard-response","198","902764","0.0-20.0-1.19","5de7d12c26dd95000b6824c5","6796e1c0ff24ca17c453c51c","67c716c7ba6ac147a1090a50","passed","","null","","","","","","","","","","","","","","null","yesOrNo","","","","5","","","lp","700","","68","499","151"
"","","","","","html-keyboard-response","199","904340","0.0-20.0-0.20","5de7d12c26dd95000b6824c5","6796e1c0ff24ca17c453c51c","67c716c7ba6ac147a1090a50","passed","","","","","","","","","","","","","","","","","ballFalling","604.4000000000001","575.4211431702997","266.76","12","fallScene","false","","","","69","",""
"","","","","","html-keyboard-response","200","905042","0.0-20.0-1.20","5de7d12c26dd95000b6824c5","6796e1c0ff24ca17c453c51c","67c716c7ba6ac147a1090a50","passed","","null","","","","","","","","","","","","","","null","yesOrNo","","","","12","","","lp","700","","69","603.4000000000001","151"
"","","","","","html-keyboard-response","201","906537","0.0-20.0-0.21","5de7d12c26dd95000b6824c5","6796e1c0ff24ca17c453c51c","67c716c7ba6ac147a1090a50","passed","","","","","","","","","","","","","","","","","ballFalling","604.4000000000001","667.6211431702998","201.78","9","fallScene","false","","","","70","",""
"","","","","","html-keyboard-response","202","907249","0.0-20.0-1.21","5de7d12c26dd95000b6824c5","6796e1c0ff24ca17c453c51c","67c716c7ba6ac147a1090a50","passed","","596","","","","","","","","","","","","","","j","yesOrNo","","","","9","","","gt","700","","70","667.6211431702998","201.78"
"","","","","","html-keyboard-response","203","908897","0.0-20.0-0.22","5de7d12c26dd95000b6824c5","6796e1c0ff24ca17c453c51c","67c716c7ba6ac147a1090a50","passed","","","","","","","","","","","","","","","","","ballFalling","500","479.92114317029973","330.87","6","fallScene","true","","","","71","",""
"","","","","","html-keyboard-response","204","909611","0.0-20.0-1.22","5de7d12c26dd95000b6824c5","6796e1c0ff24ca17c453c51c","67c716c7ba6ac147a1090a50","passed","","615","","","","","","","","","","","","","","f","yesOrNo","","","","6","","","mid","700","","71","499","300"
"","","","","","html-keyboard-response","205","911174","0.0-20.0-0.23","5de7d12c26dd95000b6824c5","6796e1c0ff24ca17c453c51c","67c716c7ba6ac147a1090a50","passed","","","","","","","","","","","","","","","","","ballFalling","322.3","379.3711431702997","245.25","1","fallScene","false","","","","72","",""
"","","","","","html-keyboard-response","206","911887","0.0-20.0-1.23","5de7d12c26dd95000b6824c5","6796e1c0ff24ca17c453c51c","67c716c7ba6ac147a1090a50","passed","","529","","","","","","","","","","","","","","f","yesOrNo","","","","1","","","mid","700","","72","390.27114317029975","300"
"","","","","","html-keyboard-response","207","913485","0.0-21.0","5de7d12c26dd95000b6824c5","6796e1c0ff24ca17c453c51c","67c716c7ba6ac147a1090a50","passed","","1596","","","","","","","","","","","","","<p><span style=""font-size:40px;"">BLOCK 4</span></p><p><span style=""font-size:25px;"">You have <b style=""color: #FF644F;""><strong>0.7 second(s)</strong></b> to respond to the following trials.</span><br></p><p></p> <!-- Blank line -->
                <p id=""blinking-text"" style=""font-weight; animation: blink 2s infinite;"">Press Space to continue</p>
                <style>
                    @keyframes blink {
                        50% {
                            opacity: 0;
                        }
                    }
                </style></p>"," ","","","","","","","","","","","","",""
"","","","","","html-keyboard-response","208","915496","0.0-22.0-0.0","5de7d12c26dd95000b6824c5","6796e1c0ff24ca17c453c51c","67c716c7ba6ac147a1090a50","passed","","","","","","","","","","","","","","","","","ballFalling","500","510.8711431702997","369.03","8","fallScene","true","","","","73","",""
"","","","","","html-keyboard-response","209","916207","0.0-22.0-1.0","5de7d12c26dd95000b6824c5","6796e1c0ff24ca17c453c51c","67c716c7ba6ac147a1090a50","passed","","566","","","","","","","","","","","","","","f","yesOrNo","","","","8","","","lp","700","","73","501","151"
"","","","","","html-keyboard-response","210","917756","0.0-22.0-0.1","5de7d12c26dd95000b6824c5","6796e1c0ff24ca17c453c51c","67c716c7ba6ac147a1090a50","passed","","","","","","","","","","","","","","","","","ballFalling","322.3","379.3711431702997","245.25","1","fallScene","false","","","","74","",""
"","","","","","html-keyboard-response","211","918469","0.0-22.0-1.1","5de7d12c26dd95000b6824c5","6796e1c0ff24ca17c453c51c","67c716c7ba6ac147a1090a50","passed","","580","","","","","","","","","","","","","","f","yesOrNo","","","","1","","","gt","700","","74","379.3711431702997","245.25"
"","","","","","html-keyboard-response","212","920033","0.0-22.0-0.2","5de7d12c26dd95000b6824c5","6796e1c0ff24ca17c453c51c","67c716c7ba6ac147a1090a50","passed","","","","","","","","","","","","","","","","","ballFalling","500","453.67114317029973","210.33","5","fallScene","false","","","","75","",""
"","","","","","html-keyboard-response","213","920747","0.0-22.0-1.2","5de7d12c26dd95000b6824c5","6796e1c0ff24ca17c453c51c","67c716c7ba6ac147a1090a50","passed","","null","","","","","","","","","","","","","","null","yesOrNo","","","","5","","","lp","700","","75","499","151"
"","","","","","html-keyboard-response","214","922324","0.0-22.0-0.3","5de7d12c26dd95000b6824c5","6796e1c0ff24ca17c453c51c","67c716c7ba6ac147a1090a50","passed","","","","","","","","","","","","","","","","","ballFalling","500","453.67114317029973","210.33","5","fallScene","true","","","","76","",""
"","","","","","html-keyboard-response","215","923026","0.0-22.0-1.3","5de7d12c26dd95000b6824c5","6796e1c0ff24ca17c453c51c","67c716c7ba6ac147a1090a50","passed","","null","","","","","","","","","","","","","","null","yesOrNo","","","","5","","","mid","700","","76","499","300"
"","","","","","html-keyboard-response","216","924587","0.0-22.0-0.4","5de7d12c26dd95000b6824c5","6796e1c0ff24ca17c453c51c","67c716c7ba6ac147a1090a50","passed","","","","","","","","","","","","","","","","","ballFalling","322.3","356.42114317029973","357.87","4","fallScene","true","","","","77","",""
"","","","","","html-keyboard-response","217","925302","0.0-22.0-1.4","5de7d12c26dd95000b6824c5","6796e1c0ff24ca17c453c51c","67c716c7ba6ac147a1090a50","passed","","531","","","","","","","","","","","","","","f","yesOrNo","","","","4","","","gt","700","","77","356.42114317029973","357.87"
"","","","","","html-keyboard-response","218","926881","0.0-22.0-0.5","5de7d12c26dd95000b6824c5","6796e1c0ff24ca17c453c51c","67c716c7ba6ac147a1090a50","passed","","","","","","","","","","","","","","","","","ballFalling","500","553.4711431702997","282.51","7","fallScene","false","","","","78","",""
"","","","","","html-keyboard-response","219","927592","0.0-22.0-1.5","5de7d12c26dd95000b6824c5","6796e1c0ff24ca17c453c51c","67c716c7ba6ac147a1090a50","passed","","592","","","","","","","","","","","","","","j","yesOrNo","","","","7","","","mid","700","","78","501","300"
"","","","","","html-keyboard-response","220","929158","0.0-22.0-0.6","5de7d12c26dd95000b6824c5","6796e1c0ff24ca17c453c51c","67c716c7ba6ac147a1090a50","passed","","","","","","","","","","","","","","","","","ballFalling","500","553.4711431702997","282.51","7","fallScene","true","","","","79","",""
"","","","","","html-keyboard-response","221","929872","0.0-22.0-1.6","5de7d12c26dd95000b6824c5","6796e1c0ff24ca17c453c51c","67c716c7ba6ac147a1090a50","passed","","555","","","","","","","","","","","","","","f","yesOrNo","","","","7","","","gt","700","","79","553.4711431702997","282.51"
"","","","","","html-keyboard-response","222","931465","0.0-22.0-0.7","5de7d12c26dd95000b6824c5","6796e1c0ff24ca17c453c51c","67c716c7ba6ac147a1090a50","passed","","","","","","","","","","","","","","","","","ballFalling","500","553.4711431702997","282.51","7","fallScene","false","","","","80","",""
"","","","","","html-keyboard-response","223","932167","0.0-22.0-1.7","5de7d12c26dd95000b6824c5","6796e1c0ff24ca17c453c51c","67c716c7ba6ac147a1090a50","passed","","520","","","","","","","","","","","","","","j","yesOrNo","","","","7","","","mid","700","","80","501","300"
"","","","","","html-keyboard-response","224","933830","0.0-22.0-0.8","5de7d12c26dd95000b6824c5","6796e1c0ff24ca17c453c51c","67c716c7ba6ac147a1090a50","passed","","","","","","","","","","","","","","","","","ballFalling","500","479.92114317029973","330.87","6","fallScene","true","","","","81","",""
"","","","","","html-keyboard-response","225","934543","0.0-22.0-1.8","5de7d12c26dd95000b6824c5","6796e1c0ff24ca17c453c51c","67c716c7ba6ac147a1090a50","passed","","661","","","","","","","","","","","","","","f","yesOrNo","","","","6","","","gt","700","","81","479.9211431702998","330.87"
"","","","","","html-keyboard-response","226","936569","0.0-22.0-0.9","5de7d12c26dd95000b6824c5","6796e1c0ff24ca17c453c51c","67c716c7ba6ac147a1090a50","passed","","","","","","","","","","","","","","","","","ballFalling","604.4000000000001","596.8711431702998","394.5","10","fallScene","false","","","","82","",""
"","","","","","html-keyboard-response","227","937271","0.0-22.0-1.9","5de7d12c26dd95000b6824c5","6796e1c0ff24ca17c453c51c","67c716c7ba6ac147a1090a50","passed","","679","","","","","","","","","","","","","","j","yesOrNo","","","","10","","","lp","700","","82","603.4000000000001","215.50214355555383"
"","","","","","html-keyboard-response","228","939065","0.0-22.0-0.10","5de7d12c26dd95000b6824c5","6796e1c0ff24ca17c453c51c","67c716c7ba6ac147a1090a50","passed","","","","","","","","","","","","","","","","","ballFalling","322.3","308.07114317029976","253.89","2","fallScene","false","","","","83","",""
"","","","","","html-keyboard-response","229","939779","0.0-22.0-1.10","5de7d12c26dd95000b6824c5","6796e1c0ff24ca17c453c51c","67c716c7ba6ac147a1090a50","passed","","640","","","","","","","","","","","","","","f","yesOrNo","","","","2","","","mid","700","","83","321.3","300"
"","","","","","html-keyboard-response","230","941342","0.0-22.0-0.11","5de7d12c26dd95000b6824c5","6796e1c0ff24ca17c453c51c","67c716c7ba6ac147a1090a50","passed","","","","","","","","","","","","","","","","","ballFalling","322.3","356.42114317029973","357.87","4","fallScene","false","","","","84","",""
"","","","","","html-keyboard-response","231","942056","0.0-22.0-1.11","5de7d12c26dd95000b6824c5","6796e1c0ff24ca17c453c51c","67c716c7ba6ac147a1090a50","passed","","582","","","","","","","","","","","","","","j","yesOrNo","","","","4","","","mid","700","","84","390.27114317029975","300"
"","","","","","html-keyboard-response","232","943553","0.0-22.0-0.12","5de7d12c26dd95000b6824c5","6796e1c0ff24ca17c453c51c","67c716c7ba6ac147a1090a50","passed","","","","","","","","","","","","","","","","","ballFalling","604.4000000000001","667.6211431702998","201.78","9","fallScene","true","","","","85","",""
"","","","","","html-keyboard-response","233","944266","0.0-22.0-1.12","5de7d12c26dd95000b6824c5","6796e1c0ff24ca17c453c51c","67c716c7ba6ac147a1090a50","passed","","595","","","","","","","","","","","","","","f","yesOrNo","","","","9","","","gt","700","","85","667.6211431702998","201.78"
"","","","","","html-keyboard-response","234","946063","0.0-22.0-0.13","5de7d12c26dd95000b6824c5","6796e1c0ff24ca17c453c51c","67c716c7ba6ac147a1090a50","passed","","","","","","","","","","","","","","","","","ballFalling","322.3","308.07114317029976","253.89","2","fallScene","false","","","","86","",""
"","","","","","html-keyboard-response","235","946776","0.0-22.0-1.13","5de7d12c26dd95000b6824c5","6796e1c0ff24ca17c453c51c","67c716c7ba6ac147a1090a50","passed","","538","","","","","","","","","","","","","","j","yesOrNo","","","","2","","","lp","700","","86","321.3","151"
"","","","","","html-keyboard-response","236","948353","0.0-22.0-0.14","5de7d12c26dd95000b6824c5","6796e1c0ff24ca17c453c51c","67c716c7ba6ac147a1090a50","passed","","","","","","","","","","","","","","","","","ballFalling","604.4000000000001","650.0211431702996","404.58000000000004","11","fallScene","true","","","","87","",""
"","","","","","html-keyboard-response","237","949055","0.0-22.0-1.14","5de7d12c26dd95000b6824c5","6796e1c0ff24ca17c453c51c","67c716c7ba6ac147a1090a50","passed","","null","","","","","","","","","","","","","","null","yesOrNo","","","","11","","","gt","700","","87","650.0211431702996","404.58"
"","","","","","html-keyboard-response","238","950615","0.0-22.0-0.15","5de7d12c26dd95000b6824c5","6796e1c0ff24ca17c453c51c","67c716c7ba6ac147a1090a50","passed","","","","","","","","","","","","","","","","","ballFalling","604.4000000000001","650.0211431702996","404.58000000000004","11","fallScene","false","","","","88","",""
"","","","","","html-keyboard-response","239","951317","0.0-22.0-1.15","5de7d12c26dd95000b6824c5","6796e1c0ff24ca17c453c51c","67c716c7ba6ac147a1090a50","passed","","535","","","","","","","","","","","","","","f","yesOrNo","","","","11","","","mid","700","","88","605.4000000000001","300"
"","","","","","html-keyboard-response","240","952876","0.0-22.0-0.16","5de7d12c26dd95000b6824c5","6796e1c0ff24ca17c453c51c","67c716c7ba6ac147a1090a50","passed","","","","","","","","","","","","","","","","","ballFalling","604.4000000000001","575.4211431702997","266.76","12","fallScene","true","","","","89","",""
"","","","","","html-keyboard-response","241","953589","0.0-22.0-1.16","5de7d12c26dd95000b6824c5","6796e1c0ff24ca17c453c51c","67c716c7ba6ac147a1090a50","passed","","548","","","","","","","","","","","","","","j","yesOrNo","","","","12","","","lp","700","","89","603.4000000000001","151"
"","","","","","html-keyboard-response","242","955586","0.0-22.0-0.17","5de7d12c26dd95000b6824c5","6796e1c0ff24ca17c453c51c","67c716c7ba6ac147a1090a50","passed","","","","","","","","","","","","","","","","","ballFalling","500","510.8711431702997","369.03","8","fallScene","true","","","","90","",""
"","","","","","html-keyboard-response","243","956298","0.0-22.0-1.17","5de7d12c26dd95000b6824c5","6796e1c0ff24ca17c453c51c","67c716c7ba6ac147a1090a50","passed","","594","","","","","","","","","","","","","","f","yesOrNo","","","","8","","","mid","700","","90","501","300"
"","","","","","html-keyboard-response","244","957847","0.0-22.0-0.18","5de7d12c26dd95000b6824c5","6796e1c0ff24ca17c453c51c","67c716c7ba6ac147a1090a50","passed","","","","","","","","","","","","","","","","","ballFalling","322.3","379.3711431702997","245.25","1","fallScene","false","","","","91","",""
"","","","","","html-keyboard-response","245","958561","0.0-22.0-1.18","5de7d12c26dd95000b6824c5","6796e1c0ff24ca17c453c51c","67c716c7ba6ac147a1090a50","passed","","497","","","","","","","","","","","","","","j","yesOrNo","","","","1","","","lp","700","","91","323.3","217.74551669457017"
"","","","","","html-keyboard-response","246","960124","0.0-22.0-0.19","5de7d12c26dd95000b6824c5","6796e1c0ff24ca17c453c51c","67c716c7ba6ac147a1090a50","passed","","","","","","","","","","","","","","","","","ballFalling","322.3","356.42114317029973","357.87","4","fallScene","false","","","","92","",""
"","","","","","html-keyboard-response","247","960838","0.0-22.0-1.19","5de7d12c26dd95000b6824c5","6796e1c0ff24ca17c453c51c","67c716c7ba6ac147a1090a50","passed","","638","","","","","","","","","","","","","","f","yesOrNo","","","","4","","","lp","700","","92","323.3","297.4070551689986"
"","","","","","html-keyboard-response","248","962501","0.0-22.0-0.20","5de7d12c26dd95000b6824c5","6796e1c0ff24ca17c453c51c","67c716c7ba6ac147a1090a50","passed","","","","","","","","","","","","","","","","","ballFalling","500","479.92114317029973","330.87","6","fallScene","true","","","","93","",""
"","","","","","html-keyboard-response","249","963215","0.0-22.0-1.20","5de7d12c26dd95000b6824c5","6796e1c0ff24ca17c453c51c","67c716c7ba6ac147a1090a50","passed","","683","","","","","","","","","","","","","","j","yesOrNo","","","","6","","","lp","700","","93","499","189.92909825697632"
"","","","","","html-keyboard-response","250","964778","0.0-22.0-0.21","5de7d12c26dd95000b6824c5","6796e1c0ff24ca17c453c51c","67c716c7ba6ac147a1090a50","passed","","","","","","","","","","","","","","","","","ballFalling","322.3","379.3711431702997","245.25","1","fallScene","false","","","","94","",""
"","","","","","html-keyboard-response","251","965492","0.0-22.0-1.21","5de7d12c26dd95000b6824c5","6796e1c0ff24ca17c453c51c","67c716c7ba6ac147a1090a50","passed","","null","","","","","","","","","","","","","","null","yesOrNo","","","","1","","","gt","700","","94","379.3711431702997","245.25"
"","","","","","html-keyboard-response","252","967288","0.0-22.0-0.22","5de7d12c26dd95000b6824c5","6796e1c0ff24ca17c453c51c","67c716c7ba6ac147a1090a50","passed","","","","","","","","","","","","","","","","","ballFalling","322.3","308.07114317029976","253.89","2","fallScene","true","","","","95","",""
"","","","","","html-keyboard-response","253","968002","0.0-22.0-1.22","5de7d12c26dd95000b6824c5","6796e1c0ff24ca17c453c51c","67c716c7ba6ac147a1090a50","passed","","null","","","","","","","","","","","","","","null","yesOrNo","","","","2","","","mid","700","","95","321.3","300"
"","","","","","html-keyboard-response","254","969678","0.0-22.0-0.23","5de7d12c26dd95000b6824c5","6796e1c0ff24ca17c453c51c","67c716c7ba6ac147a1090a50","passed","","","","","","","","","","","","","","","","","ballFalling","500","479.92114317029973","330.87","6","fallScene","true","","","","96","",""
"","","","","","html-keyboard-response","255","970395","0.0-22.0-1.23","5de7d12c26dd95000b6824c5","6796e1c0ff24ca17c453c51c","67c716c7ba6ac147a1090a50","passed","","683","","","","","","","","","","","","","","j","yesOrNo","","","","6","","","gt","700","","96","479.9211431702998","330.87"
"","","","","","html-keyboard-response","256","972115","0.0-23.0","5de7d12c26dd95000b6824c5","6796e1c0ff24ca17c453c51c","67c716c7ba6ac147a1090a50","passed","","1719","","","","","","","","","","","","","<p><span style=""font-size:40px;"">BLOCK 5</span></p><p><span style=""font-size:25px;"">You have <b style=""color: #FF644F;""><strong>0.7 second(s)</strong></b> to respond to the following trials.</span><br></p><p></p> <!-- Blank line -->
                <p id=""blinking-text"" style=""font-weight; animation: blink 2s infinite;"">Press Space to continue</p>
                <style>
                    @keyframes blink {
                        50% {
                            opacity: 0;
                        }
                    }
                </style></p>"," ","","","","","","","","","","","","",""
"","","","","","html-keyboard-response","257","973770","0.0-24.0-0.0","5de7d12c26dd95000b6824c5","6796e1c0ff24ca17c453c51c","67c716c7ba6ac147a1090a50","passed","","","","","","","","","","","","","","","","","ballFalling","500","479.92114317029973","330.87","6","fallScene","false","","","","97","",""
"","","","","","html-keyboard-response","258","974484","0.0-24.0-1.0","5de7d12c26dd95000b6824c5","6796e1c0ff24ca17c453c51c","67c716c7ba6ac147a1090a50","passed","","601","","","","","","","","","","","","","","f","yesOrNo","","","","6","","","lp","700","","97","499","189.92909825697632"
"","","","","","html-keyboard-response","259","976047","0.0-24.0-0.1","5de7d12c26dd95000b6824c5","6796e1c0ff24ca17c453c51c","67c716c7ba6ac147a1090a50","passed","","","","","","","","","","","","","","","","","ballFalling","604.4000000000001","650.0211431702996","404.58000000000004","11","fallScene","true","","","","98","",""
"","","","","","html-keyboard-response","260","976761","0.0-24.0-1.1","5de7d12c26dd95000b6824c5","6796e1c0ff24ca17c453c51c","67c716c7ba6ac147a1090a50","passed","","657","","","","","","","","","","","","","","j","yesOrNo","","","","11","","","lp","700","","98","605.4000000000001","372.6340973215488"
"","","","","","html-keyboard-response","261","978257","0.0-24.0-0.2","5de7d12c26dd95000b6824c5","6796e1c0ff24ca17c453c51c","67c716c7ba6ac147a1090a50","passed","","","","","","","","","","","","","","","","","ballFalling","604.4000000000001","667.6211431702998","201.78","9","fallScene","true","","","","99","",""
"","","","","","html-keyboard-response","262","978972","0.0-24.0-1.2","5de7d12c26dd95000b6824c5","6796e1c0ff24ca17c453c51c","67c716c7ba6ac147a1090a50","passed","","597","","","","","","","","","","","","","","f","yesOrNo","","","","9","","","lp","700","","99","605.4000000000001","151"
"","","","","","html-keyboard-response","263","980534","0.0-24.0-0.3","5de7d12c26dd95000b6824c5","6796e1c0ff24ca17c453c51c","67c716c7ba6ac147a1090a50","passed","","","","","","","","","","","","","","","","","ballFalling","604.4000000000001","650.0211431702996","404.58000000000004","11","fallScene","false","","","","100","",""
"","","","","","html-keyboard-response","264","981249","0.0-24.0-1.3","5de7d12c26dd95000b6824c5","6796e1c0ff24ca17c453c51c","67c716c7ba6ac147a1090a50","passed","","null","","","","","","","","","","","","","","null","yesOrNo","","","","11","","","lp","700","","100","605.4000000000001","372.6340973215488"
"","","","","","html-keyboard-response","265","982744","0.0-24.0-0.4","5de7d12c26dd95000b6824c5","6796e1c0ff24ca17c453c51c","67c716c7ba6ac147a1090a50","passed","","","","","","","","","","","","","","","","","ballFalling","604.4000000000001","667.6211431702998","201.78","9","fallScene","true","","","","101","",""
"","","","","","html-keyboard-response","266","983446","0.0-24.0-1.4","5de7d12c26dd95000b6824c5","6796e1c0ff24ca17c453c51c","67c716c7ba6ac147a1090a50","passed","","null","","","","","","","","","","","","","","null","yesOrNo","","","","9","","","mid","700","","101","605.4000000000001","300"
"","","","","","html-keyboard-response","267","985006","0.0-24.0-0.5","5de7d12c26dd95000b6824c5","6796e1c0ff24ca17c453c51c","67c716c7ba6ac147a1090a50","passed","","","","","","","","","","","","","","","","","ballFalling","322.3","296.07114317029976","371.46","3","fallScene","true","","","","102","",""
"","","","","","html-keyboard-response","268","985720","0.0-24.0-1.5","5de7d12c26dd95000b6824c5","6796e1c0ff24ca17c453c51c","67c716c7ba6ac147a1090a50","passed","","559","","","","","","","","","","","","","","f","yesOrNo","","","","3","","","gt","700","","102","296.07114317029976","371.46"
"","","","","","html-keyboard-response","269","987282","0.0-24.0-0.6","5de7d12c26dd95000b6824c5","6796e1c0ff24ca17c453c51c","67c716c7ba6ac147a1090a50","passed","","","","","","","","","","","","","","","","","ballFalling","322.3","379.3711431702997","245.25","1","fallScene","false","","","","103","",""
"","","","","","html-keyboard-response","270","987997","0.0-24.0-1.6","5de7d12c26dd95000b6824c5","6796e1c0ff24ca17c453c51c","67c716c7ba6ac147a1090a50","passed","","575","","","","","","","","","","","","","","f","yesOrNo","","","","1","","","mid","700","","103","390.27114317029975","300"
"","","","","","html-keyboard-response","271","989561","0.0-24.0-0.7","5de7d12c26dd95000b6824c5","6796e1c0ff24ca17c453c51c","67c716c7ba6ac147a1090a50","passed","","","","","","","","","","","","","","","","","ballFalling","322.3","356.42114317029973","357.87","4","fallScene","true","","","","104","",""
"","","","","","html-keyboard-response","272","990272","0.0-24.0-1.7","5de7d12c26dd95000b6824c5","6796e1c0ff24ca17c453c51c","67c716c7ba6ac147a1090a50","passed","","516","","","","","","","","","","","","","","f","yesOrNo","","","","4","","","mid","700","","104","390.27114317029975","300"
"","","","","","html-keyboard-response","273","991919","0.0-24.0-0.8","5de7d12c26dd95000b6824c5","6796e1c0ff24ca17c453c51c","67c716c7ba6ac147a1090a50","passed","","","","","","","","","","","","","","","","","ballFalling","500","479.92114317029973","330.87","6","fallScene","false","","","","105","",""
"","","","","","html-keyboard-response","274","992634","0.0-24.0-1.8","5de7d12c26dd95000b6824c5","6796e1c0ff24ca17c453c51c","67c716c7ba6ac147a1090a50","passed","","null","","","","","","","","","","","","","","null","yesOrNo","","","","6","","","mid","700","","105","499","300"
"","","","","","html-keyboard-response","275","994644","0.0-24.0-0.9","5de7d12c26dd95000b6824c5","6796e1c0ff24ca17c453c51c","67c716c7ba6ac147a1090a50","passed","","","","","","","","","","","","","","","","","ballFalling","604.4000000000001","596.8711431702998","394.5","10","fallScene","true","","","","106","",""
"","","","","","html-keyboard-response","276","995347","0.0-24.0-1.9","5de7d12c26dd95000b6824c5","6796e1c0ff24ca17c453c51c","67c716c7ba6ac147a1090a50","passed","","453","","","","","","","","","","","","","","f","yesOrNo","","","","10","","","lp","700","","106","603.4000000000001","215.50214355555383"
"","","","","","html-keyboard-response","277","996938","0.0-24.0-0.10","5de7d12c26dd95000b6824c5","6796e1c0ff24ca17c453c51c","67c716c7ba6ac147a1090a50","passed","","","","","","","","","","","","","","","","","ballFalling","500","553.4711431702997","282.51","7","fallScene","false","","","","107","",""
"","","","","","html-keyboard-response","278","997654","0.0-24.0-1.10","5de7d12c26dd95000b6824c5","6796e1c0ff24ca17c453c51c","67c716c7ba6ac147a1090a50","passed","","534","","","","","","","","","","","","","","f","yesOrNo","","","","7","","","lp","700","","107","501","227.2843295913261"
"","","","","","html-keyboard-response","279","999450","0.0-24.0-0.11","5de7d12c26dd95000b6824c5","6796e1c0ff24ca17c453c51c","67c716c7ba6ac147a1090a50","passed","","","","","","","","","","","","","","","","","ballFalling","322.3","308.07114317029976","253.89","2","fallScene","false","","","","108","",""
"","","","","","html-keyboard-response","280","1000162","0.0-24.0-1.11","5de7d12c26dd95000b6824c5","6796e1c0ff24ca17c453c51c","67c716c7ba6ac147a1090a50","passed","","591","","","","","","","","","","","","","","j","yesOrNo","","","","2","","","gt","700","","108","308.07114317029976","253.89"
"","","","","","html-keyboard-response","281","1001727","0.0-24.0-0.12","5de7d12c26dd95000b6824c5","6796e1c0ff24ca17c453c51c","67c716c7ba6ac147a1090a50","passed","","","","","","","","","","","","","","","","","ballFalling","322.3","356.42114317029973","357.87","4","fallScene","false","","","","109","",""
"","","","","","html-keyboard-response","282","1002439","0.0-24.0-1.12","5de7d12c26dd95000b6824c5","6796e1c0ff24ca17c453c51c","67c716c7ba6ac147a1090a50","passed","","565","","","","","","","","","","","","","","f","yesOrNo","","","","4","","","lp","700","","109","323.3","297.4070551689986"
"","","","","","html-keyboard-response","283","1003987","0.0-24.0-0.13","5de7d12c26dd95000b6824c5","6796e1c0ff24ca17c453c51c","67c716c7ba6ac147a1090a50","passed","","","","","","","","","","","","","","","","","ballFalling","604.4000000000001","650.0211431702996","404.58000000000004","11","fallScene","false","","","","110","",""
"","","","","","html-keyboard-response","284","1004702","0.0-24.0-1.13","5de7d12c26dd95000b6824c5","6796e1c0ff24ca17c453c51c","67c716c7ba6ac147a1090a50","passed","","554","","","","","","","","","","","","","","j","yesOrNo","","","","11","","","gt","700","","110","650.0211431702996","404.58"
"","","","","","html-keyboard-response","285","1006712","0.0-24.0-0.14","5de7d12c26dd95000b6824c5","6796e1c0ff24ca17c453c51c","67c716c7ba6ac147a1090a50","passed","","","","","","","","","","","","","","","","","ballFalling","604.4000000000001","596.8711431702998","394.5","10","fallScene","false","","","","111","",""
"","","","","","html-keyboard-response","286","1007427","0.0-24.0-1.14","5de7d12c26dd95000b6824c5","6796e1c0ff24ca17c453c51c","67c716c7ba6ac147a1090a50","passed","","580","","","","","","","","","","","","","","f","yesOrNo","","","","10","","","gt","700","","111","596.8711431702998","394.5"
"","","","","","html-keyboard-response","287","1008991","0.0-24.0-0.15","5de7d12c26dd95000b6824c5","6796e1c0ff24ca17c453c51c","67c716c7ba6ac147a1090a50","passed","","","","","","","","","","","","","","","","","ballFalling","604.4000000000001","575.4211431702997","266.76","12","fallScene","true","","","","112","",""
"","","","","","html-keyboard-response","288","1009704","0.0-24.0-1.15","5de7d12c26dd95000b6824c5","6796e1c0ff24ca17c453c51c","67c716c7ba6ac147a1090a50","passed","","null","","","","","","","","","","","","","","null","yesOrNo","","","","12","","","mid","700","","112","536.4288568297004","300"
"","","","","","html-keyboard-response","289","1011267","0.0-24.0-0.16","5de7d12c26dd95000b6824c5","6796e1c0ff24ca17c453c51c","67c716c7ba6ac147a1090a50","passed","","","","","","","","","","","","","","","","","ballFalling","604.4000000000001","575.4211431702997","266.76","12","fallScene","false","","","","113","",""
"","","","","","html-keyboard-response","290","1011982","0.0-24.0-1.16","5de7d12c26dd95000b6824c5","6796e1c0ff24ca17c453c51c","67c716c7ba6ac147a1090a50","passed","","629","","","","","","","","","","","","","","f","yesOrNo","","","","12","","","mid","700","","113","536.4288568297004","300"
"","","","","","html-keyboard-response","291","1013777","0.0-24.0-0.17","5de7d12c26dd95000b6824c5","6796e1c0ff24ca17c453c51c","67c716c7ba6ac147a1090a50","passed","","","","","","","","","","","","","","","","","ballFalling","322.3","308.07114317029976","253.89","2","fallScene","false","","","","114","",""
"","","","","","html-keyboard-response","292","1014492","0.0-24.0-1.17","5de7d12c26dd95000b6824c5","6796e1c0ff24ca17c453c51c","67c716c7ba6ac147a1090a50","passed","","null","","","","","","","","","","","","","","null","yesOrNo","","","","2","","","lp","700","","114","321.3","151"
"","","","","","html-keyboard-response","293","1015987","0.0-24.0-0.18","5de7d12c26dd95000b6824c5","6796e1c0ff24ca17c453c51c","67c716c7ba6ac147a1090a50","passed","","","","","","","","","","","","","","","","","ballFalling","604.4000000000001","667.6211431702998","201.78","9","fallScene","true","","","","115","",""
"","","","","","html-keyboard-response","294","1016700","0.0-24.0-1.18","5de7d12c26dd95000b6824c5","6796e1c0ff24ca17c453c51c","67c716c7ba6ac147a1090a50","passed","","680","","","","","","","","","","","","","","f","yesOrNo","","","","9","","","mid","700","","115","605.4000000000001","300"
"","","","","","html-keyboard-response","295","1018259","0.0-24.0-0.19","5de7d12c26dd95000b6824c5","6796e1c0ff24ca17c453c51c","67c716c7ba6ac147a1090a50","passed","","","","","","","","","","","","","","","","","ballFalling","500","453.67114317029973","210.33","5","fallScene","false","","","","116","",""
"","","","","","html-keyboard-response","296","1018962","0.0-24.0-1.19","5de7d12c26dd95000b6824c5","6796e1c0ff24ca17c453c51c","67c716c7ba6ac147a1090a50","passed","","568","","","","","","","","","","","","","","f","yesOrNo","","","","5","","","gt","700","","116","453.6711431702998","210.33"
"","","","","","html-keyboard-response","297","1020974","0.0-24.0-0.20","5de7d12c26dd95000b6824c5","6796e1c0ff24ca17c453c51c","67c716c7ba6ac147a1090a50","passed","","","","","","","","","","","","","","","","","ballFalling","500","510.8711431702997","369.03","8","fallScene","false","","","","117","",""
"","","","","","html-keyboard-response","298","1021687","0.0-24.0-1.20","5de7d12c26dd95000b6824c5","6796e1c0ff24ca17c453c51c","67c716c7ba6ac147a1090a50","passed","","null","","","","","","","","","","","","","","null","yesOrNo","","","","8","","","gt","700","","117","510.8711431702997","369.03"
"","","","","","html-keyboard-response","299","1023249","0.0-24.0-0.21","5de7d12c26dd95000b6824c5","6796e1c0ff24ca17c453c51c","67c716c7ba6ac147a1090a50","passed","","","","","","","","","","","","","","","","","ballFalling","500","453.67114317029973","210.33","5","fallScene","true","","","","118","",""
"","","","","","html-keyboard-response","300","1023964","0.0-24.0-1.21","5de7d12c26dd95000b6824c5","6796e1c0ff24ca17c453c51c","67c716c7ba6ac147a1090a50","passed","","616","","","","","","","","","","","","","","f","yesOrNo","","","","5","","","gt","700","","118","453.6711431702998","210.33"
"","","","","","html-keyboard-response","301","1025545","0.0-24.0-0.22","5de7d12c26dd95000b6824c5","6796e1c0ff24ca17c453c51c","67c716c7ba6ac147a1090a50","passed","","","","","","","","","","","","","","","","","ballFalling","500","553.4711431702997","282.51","7","fallScene","true","","","","119","",""
"","","","","","html-keyboard-response","302","1026259","0.0-24.0-1.22","5de7d12c26dd95000b6824c5","6796e1c0ff24ca17c453c51c","67c716c7ba6ac147a1090a50","passed","","null","","","","","","","","","","","","","","null","yesOrNo","","","","7","","","gt","700","","119","553.4711431702997","282.51"
"","","","","","html-keyboard-response","303","1028285","0.0-24.0-0.23","5de7d12c26dd95000b6824c5","6796e1c0ff24ca17c453c51c","67c716c7ba6ac147a1090a50","passed","","","","","","","","","","","","","","","","","ballFalling","604.4000000000001","596.8711431702998","394.5","10","fallScene","true","","","","120","",""
"","","","","","html-keyboard-response","304","1028987","0.0-24.0-1.23","5de7d12c26dd95000b6824c5","6796e1c0ff24ca17c453c51c","67c716c7ba6ac147a1090a50","passed","","null","","","","","","","","","","","","","","null","yesOrNo","","","","10","","","mid","700","","120","536.4288568297004","300"
"","","","","","html-keyboard-response","305","1030874","0.0-25.0","5de7d12c26dd95000b6824c5","6796e1c0ff24ca17c453c51c","67c716c7ba6ac147a1090a50","passed","","1887","","","","","","","","","","","","","<p><span style=""font-size:40px;"">BLOCK 6</span></p><p><span style=""font-size:25px;"">You have <b style=""color: #FF644F;""><strong>3 second(s)</strong></b> to respond to the following trials.</span><br></p><p></p> <!-- Blank line -->
                <p id=""blinking-text"" style=""font-weight; animation: blink 2s infinite;"">Press Space to continue</p>
                <style>
                    @keyframes blink {
                        50% {
                            opacity: 0;
                        }
                    }
                </style></p>"," ","","","","","","","","","","","","",""
"","","","","","html-keyboard-response","306","1032525","0.0-26.0-0.0","5de7d12c26dd95000b6824c5","6796e1c0ff24ca17c453c51c","67c716c7ba6ac147a1090a50","passed","","","","","","","","","","","","","","","","","ballFalling","500","479.92114317029973","330.87","6","fallScene","true","","","","121","",""
