"success","timeout","failed_images","failed_audio","failed_video","trial_type","trial_index","time_elapsed","internal_node_id","subject_id","study_id","session_id","practiceTestResult","view_history","rt","width","height","webaudio","browser","browser_version","mobile","os","fullscreen","vsync_rate","webcam","microphone","url","stimulus","response","task","ball_X","obstacle_groundTruth_x","obstacle_groundTruth_y","stimulus_idx","trial_name","flipped","choice","timeLimit","question_order","comprehensionCheck","currentTrial","obstacle_choice_x","obstacle_choice_y"
"true","false","[]","[]","[]","preload","0","324","0.0-0.0","5eaee5a2b1ad425c2eb0061d","6796e1c0ff24ca17c453c51c","67c718efd2fb57b837e6860f","passed","","","","","","","","","","","","","","","","","","","","","","","","","","","","","",""
"","","","","","instructions","1","1455554","0.0-1.0","5eaee5a2b1ad425c2eb0061d","6796e1c0ff24ca17c453c51c","67c718efd2fb57b837e6860f","passed","[{""page_index"":0,""viewing_time"":1455229}]","1455229","","","","","","","","","","","","","","","","","","","","","","","","","","","",""
"","","","","","browser-check","2","1456542","0.0-2.0","5eaee5a2b1ad425c2eb0061d","6796e1c0ff24ca17c453c51c","67c718efd2fb57b837e6860f","passed","","","1593","855","true","chrome","133.0.0","false","Windows 10","true","60.96","true","true","","","","","","","","","","","","","","","","",""
"","","","","","external-html","3","1516939","0.0-3.0","5eaee5a2b1ad425c2eb0061d","6796e1c0ff24ca17c453c51c","67c718efd2fb57b837e6860f","passed","","59907","","","","","","","","","","","","consent.html","","","","","","","","","","","","","","","",""
"true","","","","","fullscreen","4","1535674","0.0-4.0","5eaee5a2b1ad425c2eb0061d","6796e1c0ff24ca17c453c51c","67c718efd2fb57b837e6860f","passed","","18422","","","","","","","","","","","","","","","","","","","","","","","","","","","",""
"","","","","","browser-check","5","1536674","0.0-5.0","5eaee5a2b1ad425c2eb0061d","6796e1c0ff24ca17c453c51c","67c718efd2fb57b837e6860f","passed","","","1920","1080","true","chrome","133.0.0","false","Windows 10","true","60.11","true","true","","","","","","","","","","","","","","","","",""
"","","","","","html-keyboard-response","6","2079321","0.0-6.0","5eaee5a2b1ad425c2eb0061d","6796e1c0ff24ca17c453c51c","67c718efd2fb57b837e6860f","passed","","542646","","","","","","","","","","","","","<p><b>This experiment requires keyboard input.</b></p> 
        <p><b>To ensure your response will be recorded successfully, please press 'Space' to continue.</b></p>
        <p>If you can't proceed, you won't be able to complete this study.</p>
        <p></p> <!-- Blank line -->
        <p id=""blinking-text"" style=""font-weight; animation: blink 2s infinite;"">Press Space to continue</p>
        <style>
            @keyframes blink {
                50% {
                    opacity: 0;
                }
            }
        </style>"," ","","","","","","","","","","","","","",""
"","","","","","html-keyboard-response","7","2083784","0.0-7.0","5eaee5a2b1ad425c2eb0061d","6796e1c0ff24ca17c453c51c","67c718efd2fb57b837e6860f","passed","","4460","","","","","","","","","","","","","<p><b>This experiment requires keyboard input.</b></p> 
        <p><b>To ensure your response will be recorded successfully, please press the 'f' key to continue.</b></p>
        <p>If you can't proceed, you won't be able to complete this study.</p>
        <p></p> <!-- Blank line -->
        <p id=""blinking-text"" style=""font-weight; animation: blink 2s infinite;"">Press f to continue</p>
        <style>
            @keyframes blink {
                50% {
                    opacity: 0;
                }
            }
        </style>","f","","","","","","","","","","","","","",""
"","","","","","html-keyboard-response","8","2085223","0.0-8.0","5eaee5a2b1ad425c2eb0061d","6796e1c0ff24ca17c453c51c","67c718efd2fb57b837e6860f","passed","","1438","","","","","","","","","","","","","<p><b>This experiment requires keyboard input.</b></p> 
        <p><b>To ensure your response will be recorded successfully, please press the 'j' key to continue.</b></p>
        <p>If you can't proceed, you won't be able to complete this study.</p>
        <p></p> <!-- Blank line -->
        <p id=""blinking-text"" style=""font-weight; animation: blink 2s infinite;"">Press j to continue</p>
        <style>
            @keyframes blink {
                50% {
                    opacity: 0;
                }
            }
        </style>","j","","","","","","","","","","","","","",""
"","","","","","browser-check","9","2086236","0.0-9.0","5eaee5a2b1ad425c2eb0061d","6796e1c0ff24ca17c453c51c","67c718efd2fb57b837e6860f","passed","","","1920","1080","true","chrome","133.0.0","false","Windows 10","true","60","true","true","","","","","","","","","","","","","","","","",""
"","","","","","survey-text","10","2099823","0.0-10.0","5eaee5a2b1ad425c2eb0061d","6796e1c0ff24ca17c453c51c","67c718efd2fb57b837e6860f","passed","","13582","","","","","","","","","","","","","","{""prolificID"":""5eaee5a2b1ad425c2eb0061d""}","","","","","","","","","","","","","",""
"","","","","","instructions","11","2205445","0.0-11.0-0.0-0.0","5eaee5a2b1ad425c2eb0061d","6796e1c0ff24ca17c453c51c","67c718efd2fb57b837e6860f","passed","[{""page_index"":0,""viewing_time"":66718},{""page_index"":1,""viewing_time"":15132},{""page_index"":2,""viewing_time"":10352},{""page_index"":3,""viewing_time"":13420}]","105622","","","","","","","","","","","","","","","","","","","","","","","","","","","",""
"","","","","","html-keyboard-response","12","2236343","0.0-11.0-0.0-1.0","5eaee5a2b1ad425c2eb0061d","6796e1c0ff24ca17c453c51c","67c718efd2fb57b837e6860f","passed","","30391","","","","","","","","","","","","","<br>Remember! After a ball falls, the screen will disappear, and you'll decide if the proposed position is where the hidden triangle was. <br>You will now practice this by watching a few videos and making decisions.<p>To respond:<br style=""margin-bottom: 5px; text-indent: -20px; padding-left: 20px;"">- Press <b style=""color: #12AD2B;"">J for Yes</b>, if you think the triangle is in the correct position.<br style=""margin-top: 0; text-indent: -20px; padding-left: 20px;"">- Press <b style=""color: orange;"">F for No</b>, if you think the triangle is not in the correct position.</p><p>In this practice round, there is no time limit. Focus on getting comfortable with the task first.<br>Press either J or F to begin your practice trials.</p><img src = ""YesOrNo_instruction.png"" style=""width: 65%;""></img>","j","","","","","","","","","","","","","",""
"","","","","","html-keyboard-response","13","2238469","0.0-11.0-0.0-2.0-0.0","5eaee5a2b1ad425c2eb0061d","6796e1c0ff24ca17c453c51c","67c718efd2fb57b837e6860f","passed","","","","","","","","","","","","","","","","","ballFalling_prac","660","666","350","3","fallScene","false","","","","","","",""
"","","","","","html-keyboard-response","14","2240958","0.0-11.0-0.0-2.0-1.0","5eaee5a2b1ad425c2eb0061d","6796e1c0ff24ca17c453c51c","67c718efd2fb57b837e6860f","passed","","2485","","","","","","","","","","","","","","f","yesOrNo_prac_noTimed","","","","3","","","wrong direction","NA","","","","",""
"","","","","","html-keyboard-response","15","2242519","0.0-11.0-0.0-2.0-0.1","5eaee5a2b1ad425c2eb0061d","6796e1c0ff24ca17c453c51c","67c718efd2fb57b837e6860f","passed","","","","","","","","","","","","","","","","","ballFalling_prac","416","464","296","1","fallScene","false","","","","","","",""
"","","","","","html-keyboard-response","16","2243494","0.0-11.0-0.0-2.0-1.1","5eaee5a2b1ad425c2eb0061d","6796e1c0ff24ca17c453c51c","67c718efd2fb57b837e6860f","passed","","972","","","","","","","","","","","","","","j","yesOrNo_prac_noTimed","","","","1","","","gt","NA","","","","",""
"","","","","","html-keyboard-response","17","2245069","0.0-11.0-0.0-2.0-0.2","5eaee5a2b1ad425c2eb0061d","6796e1c0ff24ca17c453c51c","67c718efd2fb57b837e6860f","passed","","","","","","","","","","","","","","","","","ballFalling_prac","441","414","302","5","fallScene","true","","","","","","",""
"","","","","","html-keyboard-response","18","2245670","0.0-11.0-0.0-2.0-1.2","5eaee5a2b1ad425c2eb0061d","6796e1c0ff24ca17c453c51c","67c718efd2fb57b837e6860f","passed","","599","","","","","","","","","","","","","","j","yesOrNo_prac_noTimed","","","","5","","","close gt","NA","","","","",""
"","","","","","instructions","19","2269203","0.0-11.0-0.0-3.0","5eaee5a2b1ad425c2eb0061d","6796e1c0ff24ca17c453c51c","67c718efd2fb57b837e6860f","passed","[{""page_index"":0,""viewing_time"":10203},{""page_index"":1,""viewing_time"":13329}]","23532","","","","","","","","","","","","","","","","","","","","","","","","","","","",""
"","","","","","html-button-response","20","2278917","0.0-11.0-0.0-4.0","5eaee5a2b1ad425c2eb0061d","6796e1c0ff24ca17c453c51c","67c718efd2fb57b837e6860f","passed","","9211","","","","","","","","","","","","","<p>To make sure you understood the task, we just have a <b>brief quiz</b> here.</p><p>If you need to review the instructions, click 'Previous'.</p><p>It's important to understand the task to do the study, so you have to pass the quiz to move to the study.</p>","1","","","","","","","","","","","","","",""
"","","","","","survey-multi-choice","21","2292415","0.0-11.0-1.0-0.0","5eaee5a2b1ad425c2eb0061d","6796e1c0ff24ca17c453c51c","67c718efd2fb57b837e6860f","passed","","13497","","","","","","","","","","","","","","{""generalProcedure"":""Watch a video of a ball falling, some of it behind a gray screen. After each video, decide if the triangle is at the spot where the ball hit the triangle behind the screen. There is time limit for the response.""}","","","","","","","","","","[0]","","","",""
"","","","","","survey-multi-choice","22","2318600","0.0-11.0-1.0-1.0","5eaee5a2b1ad425c2eb0061d","6796e1c0ff24ca17c453c51c","67c718efd2fb57b837e6860f","passed","","26184","","","","","","","","","","","","","","{""checkBallHitObstacle"":""Yes.""}","","","","","","","","","","[0]","","","",""
"","","","","","survey-multi-choice","23","2324657","0.0-11.0-1.0-2.0","5eaee5a2b1ad425c2eb0061d","6796e1c0ff24ca17c453c51c","67c718efd2fb57b837e6860f","passed","","6055","","","","","","","","","","","","","","{""checkTriangleVisibility"":""No, the triangle is hidden behind the gray screen.""}","","","","","","","","","","[0]","","","",""
"","","","","","survey-multi-choice","24","2332700","0.0-11.0-1.0-3.0","5eaee5a2b1ad425c2eb0061d","6796e1c0ff24ca17c453c51c","67c718efd2fb57b837e6860f","passed","","8043","","","","","","","","","","","","","","{""checkTimedResponse"":""Your response will not be recorded, and the trial will move to the next one.""}","","","","","","","","","","[0]","","","",""
"","","","","","survey-multi-choice","25","2350964","0.0-11.0-1.0-4.0","5eaee5a2b1ad425c2eb0061d","6796e1c0ff24ca17c453c51c","67c718efd2fb57b837e6860f","passed","","18263","","","","","","","","","","","","","","{""checkTimeBlockNotice"":""At the beginning of each block.""}","","","","","","","","","","[0]","","","",""
"","","","","","survey-multi-choice","26","2364396","0.0-11.0-1.0-5.0","5eaee5a2b1ad425c2eb0061d","6796e1c0ff24ca17c453c51c","67c718efd2fb57b837e6860f","passed","","13431","","","","","","","","","","","","","","{""checkTimeBlockSameness"":""No, the time limit changes for each trial within a block.""}","","","","","","","","","","[0]","","","",""
"","","","","","survey-multi-choice","27","2387794","0.0-11.0-1.0-6.0","5eaee5a2b1ad425c2eb0061d","6796e1c0ff24ca17c453c51c","67c718efd2fb57b837e6860f","passed","","23397","","","","","","","","","","","","","","{""checkTrianglePrecision"":""No. The proposed purple triangle is not in the correct position because it doesn't match the location of the white triangle exactly.""}","","","","","","","","","","[0]","","","",""
"","","","","","html-button-response","28","2391917","0.0-11.0-2.0-0.0","5eaee5a2b1ad425c2eb0061d","6796e1c0ff24ca17c453c51c","67c718efd2fb57b837e6860f","passed","","4123","","","","","","","","","","","","","<p>Oops! You did not pass the quiz.</p><p>You will now repeat the instructions and practice.</p>","0","","","","","","","","","","","failed","","",""
"","","","","","instructions","29","2451467","0.0-11.1-0.1-0.1","5eaee5a2b1ad425c2eb0061d","6796e1c0ff24ca17c453c51c","67c718efd2fb57b837e6860f","passed","[{""page_index"":0,""viewing_time"":25903},{""page_index"":1,""viewing_time"":14238},{""page_index"":2,""viewing_time"":10180},{""page_index"":3,""viewing_time"":9228}]","59549","","","","","","","","","","","","","","","","","","","","","","","","","","","",""
"","","","","","html-keyboard-response","30","2477988","0.0-11.1-0.1-1.1","5eaee5a2b1ad425c2eb0061d","6796e1c0ff24ca17c453c51c","67c718efd2fb57b837e6860f","passed","","26017","","","","","","","","","","","","","<br>Remember! After a ball falls, the screen will disappear, and you'll decide if the proposed position is where the hidden triangle was. <br>You will now practice this by watching a few videos and making decisions.<p>To respond:<br style=""margin-bottom: 5px; text-indent: -20px; padding-left: 20px;"">- Press <b style=""color: #12AD2B;"">J for Yes</b>, if you think the triangle is in the correct position.<br style=""margin-top: 0; text-indent: -20px; padding-left: 20px;"">- Press <b style=""color: orange;"">F for No</b>, if you think the triangle is not in the correct position.</p><p>In this practice round, there is no time limit. Focus on getting comfortable with the task first.<br>Press either J or F to begin your practice trials.</p><img src = ""YesOrNo_instruction.png"" style=""width: 65%;""></img>","j","","","","","","","","","","","","","",""
"","","","","","html-keyboard-response","31","2480084","0.0-11.1-0.1-2.1-0.3","5eaee5a2b1ad425c2eb0061d","6796e1c0ff24ca17c453c51c","67c718efd2fb57b837e6860f","passed","","","","","","","","","","","","","","","","","ballFalling_prac","660","666","350","3","fallScene","false","","","","","","",""
"","","","","","html-keyboard-response","32","2483677","0.0-11.1-0.1-2.1-1.3","5eaee5a2b1ad425c2eb0061d","6796e1c0ff24ca17c453c51c","67c718efd2fb57b837e6860f","passed","","3591","","","","","","","","","","","","","","f","yesOrNo_prac_noTimed","","","","3","","","wrong direction","NA","","","","",""
"","","","","","html-keyboard-response","33","2485234","0.0-11.1-0.1-2.1-0.4","5eaee5a2b1ad425c2eb0061d","6796e1c0ff24ca17c453c51c","67c718efd2fb57b837e6860f","passed","","","","","","","","","","","","","","","","","ballFalling_prac","416","464","296","1","fallScene","false","","","","","","",""
"","","","","","html-keyboard-response","34","2486733","0.0-11.1-0.1-2.1-1.4","5eaee5a2b1ad425c2eb0061d","6796e1c0ff24ca17c453c51c","67c718efd2fb57b837e6860f","passed","","1496","","","","","","","","","","","","","","j","yesOrNo_prac_noTimed","","","","1","","","gt","NA","","","","",""
"","","","","","html-keyboard-response","35","2488300","0.0-11.1-0.1-2.1-0.5","5eaee5a2b1ad425c2eb0061d","6796e1c0ff24ca17c453c51c","67c718efd2fb57b837e6860f","passed","","","","","","","","","","","","","","","","","ballFalling_prac","441","414","302","5","fallScene","true","","","","","","",""
"","","","","","html-keyboard-response","36","2489236","0.0-11.1-0.1-2.1-1.5","5eaee5a2b1ad425c2eb0061d","6796e1c0ff24ca17c453c51c","67c718efd2fb57b837e6860f","passed","","933","","","","","","","","","","","","","","j","yesOrNo_prac_noTimed","","","","5","","","close gt","NA","","","","",""
"","","","","","instructions","37","2555408","0.0-11.1-0.1-3.1","5eaee5a2b1ad425c2eb0061d","6796e1c0ff24ca17c453c51c","67c718efd2fb57b837e6860f","passed","[{""page_index"":0,""viewing_time"":50065},{""page_index"":1,""viewing_time"":16106}]","66171","","","","","","","","","","","","","","","","","","","","","","","","","","","",""
"","","","","","html-button-response","38","2558594","0.0-11.1-0.1-4.1","5eaee5a2b1ad425c2eb0061d","6796e1c0ff24ca17c453c51c","67c718efd2fb57b837e6860f","passed","","2684","","","","","","","","","","","","","<p>To make sure you understood the task, we just have a <b>brief quiz</b> here.</p><p>If you need to review the instructions, click 'Previous'.</p><p>It's important to understand the task to do the study, so you have to pass the quiz to move to the study.</p>","1","","","","","","","","","","","","","",""
"","","","","","survey-multi-choice","39","2573110","0.0-11.1-1.1-0.1","5eaee5a2b1ad425c2eb0061d","6796e1c0ff24ca17c453c51c","67c718efd2fb57b837e6860f","passed","","14515","","","","","","","","","","","","","","{""generalProcedure"":""Watch a video of a ball falling, some of it behind a gray screen. After each video, decide if the triangle is at the spot where the ball hit the triangle behind the screen. There is time limit for the response.""}","","","","","","","","","","[0]","","","",""
"","","","","","survey-multi-choice","40","2577324","0.0-11.1-1.1-1.1","5eaee5a2b1ad425c2eb0061d","6796e1c0ff24ca17c453c51c","67c718efd2fb57b837e6860f","passed","","4213","","","","","","","","","","","","","","{""checkBallHitObstacle"":""Yes.""}","","","","","","","","","","[0]","","","",""
"","","","","","survey-multi-choice","41","2582238","0.0-11.1-1.1-2.1","5eaee5a2b1ad425c2eb0061d","6796e1c0ff24ca17c453c51c","67c718efd2fb57b837e6860f","passed","","4913","","","","","","","","","","","","","","{""checkTriangleVisibility"":""No, the triangle is hidden behind the gray screen.""}","","","","","","","","","","[0]","","","",""
"","","","","","survey-multi-choice","42","2586442","0.0-11.1-1.1-3.1","5eaee5a2b1ad425c2eb0061d","6796e1c0ff24ca17c453c51c","67c718efd2fb57b837e6860f","passed","","4203","","","","","","","","","","","","","","{""checkTimedResponse"":""Your response will not be recorded, and the trial will move to the next one.""}","","","","","","","","","","[0]","","","",""
"","","","","","survey-multi-choice","43","2601796","0.0-11.1-1.1-4.1","5eaee5a2b1ad425c2eb0061d","6796e1c0ff24ca17c453c51c","67c718efd2fb57b837e6860f","passed","","15353","","","","","","","","","","","","","","{""checkTimeBlockNotice"":""At the beginning of each block.""}","","","","","","","","","","[0]","","","",""
"","","","","","survey-multi-choice","44","2613656","0.0-11.1-1.1-5.1","5eaee5a2b1ad425c2eb0061d","6796e1c0ff24ca17c453c51c","67c718efd2fb57b837e6860f","passed","","11859","","","","","","","","","","","","","","{""checkTimeBlockSameness"":""Yes, the time limit is the same for all trials within a block.""}","","","","","","","","","","[0]","","","",""
"","","","","","survey-multi-choice","45","2635448","0.0-11.1-1.1-6.1","5eaee5a2b1ad425c2eb0061d","6796e1c0ff24ca17c453c51c","67c718efd2fb57b837e6860f","passed","","21791","","","","","","","","","","","","","","{""checkTrianglePrecision"":""No. The proposed purple triangle is not in the correct position because it doesn't match the location of the white triangle exactly.""}","","","","","","","","","","[0]","","","",""
"","","","","","instructions","46","2660419","0.0-12.0","5eaee5a2b1ad425c2eb0061d","6796e1c0ff24ca17c453c51c","67c718efd2fb57b837e6860f","passed","[{""page_index"":0,""viewing_time"":7981},{""page_index"":1,""viewing_time"":4308},{""page_index"":2,""viewing_time"":5804},{""page_index"":3,""viewing_time"":6878}]","24971","","","","","","","","","","","","","","","","","","","","","","","","","","","",""
"","","","","","instructions","47","2665253","0.0-13.0-0.0","5eaee5a2b1ad425c2eb0061d","6796e1c0ff24ca17c453c51c","67c718efd2fb57b837e6860f","passed","[{""page_index"":0,""viewing_time"":4833}]","4833","","","","","","","","","","","","","","","","","","","","","","","","","","","",""
"","","","","","html-keyboard-response","48","2672130","0.0-13.0-1.0","5eaee5a2b1ad425c2eb0061d","6796e1c0ff24ca17c453c51c","67c718efd2fb57b837e6860f","passed","","6876","","","","","","","","","","","","","<p><span style=""font-size:40px;"">Practice BLOCK 1</span></p><p><span style=""font-size:25px;"">You have <b style=""color: #FF644F;""><strong>3 second(s)</strong></b> to respond to the following trials.</span><br></p><p id=""blinking-text"" style=""font-weight; animation: blink 2s infinite;"">Press Space to continue</p><style>
                    @keyframes blink {
                        50% {
                            opacity: 0;
                        }
                    }
                </style>"," ","","","","","","","","","","","","","",""
"","","","","","html-keyboard-response","49","2673682","0.0-13.0-2.0-0.0","5eaee5a2b1ad425c2eb0061d","6796e1c0ff24ca17c453c51c","67c718efd2fb57b837e6860f","passed","","","","","","","","","","","","","","","","","ballFalling_prac","584","536","296","1","fallScene","true","","","","","","",""
"","","","","","html-keyboard-response","50","2676690","0.0-13.0-2.0-1.0","5eaee5a2b1ad425c2eb0061d","6796e1c0ff24ca17c453c51c","67c718efd2fb57b837e6860f","passed","","2161","","","","","","","","","","","","","","j","yesOrNo_prac","","","","1","","","close gt","3000","","","","",""
"","","","","","html-keyboard-response","51","2678248","0.0-13.0-2.0-0.1","5eaee5a2b1ad425c2eb0061d","6796e1c0ff24ca17c453c51c","67c718efd2fb57b837e6860f","passed","","","","","","","","","","","","","","","","","ballFalling_prac","416","464","296","1","fallScene","false","","","","","","",""
"","","","","","html-keyboard-response","52","2681263","0.0-13.0-2.0-1.1","5eaee5a2b1ad425c2eb0061d","6796e1c0ff24ca17c453c51c","67c718efd2fb57b837e6860f","passed","","1119","","","","","","","","","","","","","","f","yesOrNo_prac","","","","1","","","far gt","3000","","","","",""
"","","","","","html-keyboard-response","53","2682832","0.0-13.0-2.0-0.2","5eaee5a2b1ad425c2eb0061d","6796e1c0ff24ca17c453c51c","67c718efd2fb57b837e6860f","passed","","","","","","","","","","","","","","","","","ballFalling_prac","660","610","263","4","fallScene","false","","","","","","",""
"","","","","","html-keyboard-response","54","2685844","0.0-13.0-2.0-1.2","5eaee5a2b1ad425c2eb0061d","6796e1c0ff24ca17c453c51c","67c718efd2fb57b837e6860f","passed","","1649","","","","","","","","","","","","","","j","yesOrNo_prac","","","","4","","","gt","3000","","","","",""
"","","","","","html-keyboard-response","55","2689810","0.0-13.0-3.0","5eaee5a2b1ad425c2eb0061d","6796e1c0ff24ca17c453c51c","67c718efd2fb57b837e6860f","passed","","3965","","","","","","","","","","","","","<p><span style=""font-size:40px;"">Practice BLOCK 2</span></p><p><span style=""font-size:25px;"">You have <b style=""color: #FF644F;""><strong>0.7 second(s)</strong></b> to respond to the following trials.</span><br></p><p id=""blinking-text"" style=""font-weight; animation: blink 2s infinite;"">Press Space to continue</p><style>
                    @keyframes blink {
                        50% {
                            opacity: 0;
                        }
                    }
                </style>"," ","","","","","","","","","","","","","",""
"","","","","","html-keyboard-response","56","2691915","0.0-13.0-4.0-0.0","5eaee5a2b1ad425c2eb0061d","6796e1c0ff24ca17c453c51c","67c718efd2fb57b837e6860f","passed","","","","","","","","","","","","","","","","","ballFalling_prac","340","334","350","3","fallScene","true","","","","","","",""
"","","","","","html-keyboard-response","57","2692626","0.0-13.0-4.0-1.0","5eaee5a2b1ad425c2eb0061d","6796e1c0ff24ca17c453c51c","67c718efd2fb57b837e6860f","passed","","283","","","","","","","","","","","","","","f","yesOrNo_prac","","","","3","","","close gt","700","","","","",""
"","","","","","html-keyboard-response","58","2694198","0.0-13.0-4.0-0.1","5eaee5a2b1ad425c2eb0061d","6796e1c0ff24ca17c453c51c","67c718efd2fb57b837e6860f","passed","","","","","","","","","","","","","","","","","ballFalling_prac","660","610","263","4","fallScene","false","","","","","","",""
"","","","","","html-keyboard-response","59","2694908","0.0-13.0-4.0-1.1","5eaee5a2b1ad425c2eb0061d","6796e1c0ff24ca17c453c51c","67c718efd2fb57b837e6860f","passed","","null","","","","","","","","","","","","","","null","yesOrNo_prac","","","","4","","","far gt","700","","","","",""
"","","","","","html-keyboard-response","60","2696465","0.0-13.0-4.0-0.2","5eaee5a2b1ad425c2eb0061d","6796e1c0ff24ca17c453c51c","67c718efd2fb57b837e6860f","passed","","","","","","","","","","","","","","","","","ballFalling_prac","441","500","317","6","fallScene","true","","","","","","",""
"","","","","","html-keyboard-response","61","2697174","0.0-13.0-4.0-1.2","5eaee5a2b1ad425c2eb0061d","6796e1c0ff24ca17c453c51c","67c718efd2fb57b837e6860f","passed","","null","","","","","","","","","","","","","","null","yesOrNo_prac","","","","6","","","gt","700","","","","",""
"","","","","","instructions","62","2702339","0.0-13.0-5.0","5eaee5a2b1ad425c2eb0061d","6796e1c0ff24ca17c453c51c","67c718efd2fb57b837e6860f","passed","[{""page_index"":0,""viewing_time"":5164}]","5164","","","","","","","","","","","","","","","","","","","","","","","","","","","",""
"","","","","","html-keyboard-response","63","2708674","0.0-13.0-6.0","5eaee5a2b1ad425c2eb0061d","6796e1c0ff24ca17c453c51c","67c718efd2fb57b837e6860f","passed","","6334","","","","","","","","","","","","","<p><span style=""font-size:40px;"">Practice Test BLOCK 1</span></p><p><span style=""font-size:25px;"">You have <b style=""color: #FF644F;""><strong>0.7 second(s)</strong></b> to respond to the following trials.</span><br></p><p id=""blinking-text"" style=""font-weight; animation: blink 2s infinite;"">Press Space to continue</p><style>
                    @keyframes blink {
                        50% {
                            opacity: 0;
                        }
                    }
                </style>"," ","","","","","","","","","","","","","",""
"","","","","","html-keyboard-response","64","2710231","0.0-13.0-7.0-0.0","5eaee5a2b1ad425c2eb0061d","6796e1c0ff24ca17c453c51c","67c718efd2fb57b837e6860f","passed","","","","","","","","","","","","","","","","","ballFalling_prac","441","500","317","6","fallScene","true","","","","","","",""
"","","","","","html-keyboard-response","65","2710937","0.0-13.0-7.0-1.0","5eaee5a2b1ad425c2eb0061d","6796e1c0ff24ca17c453c51c","67c718efd2fb57b837e6860f","passed","","375","","","","","","","","","","","","","","f","yesOrNo_prac","","","","6","","","close gt","700","","","","",""
"","","","","","html-keyboard-response","66","2712514","0.0-13.0-7.0-0.1","5eaee5a2b1ad425c2eb0061d","6796e1c0ff24ca17c453c51c","67c718efd2fb57b837e6860f","passed","","","","","","","","","","","","","","","","","ballFalling_prac","559","586","302","5","fallScene","false","","","","","","",""
"","","","","","html-keyboard-response","67","2713223","0.0-13.0-7.0-1.1","5eaee5a2b1ad425c2eb0061d","6796e1c0ff24ca17c453c51c","67c718efd2fb57b837e6860f","passed","","589","","","","","","","","","","","","","","f","yesOrNo_prac","","","","5","","","gt","700","","","","",""
"","","","","","html-keyboard-response","68","2714798","0.0-13.0-7.0-0.2","5eaee5a2b1ad425c2eb0061d","6796e1c0ff24ca17c453c51c","67c718efd2fb57b837e6860f","passed","","","","","","","","","","","","","","","","","ballFalling_prac","340","390","263","4","fallScene","true","","","","","","",""
"","","","","","html-keyboard-response","69","2715506","0.0-13.0-7.0-1.2","5eaee5a2b1ad425c2eb0061d","6796e1c0ff24ca17c453c51c","67c718efd2fb57b837e6860f","passed","","267","","","","","","","","","","","","","","j","yesOrNo_prac","","","","4","","","far gt","700","","","","",""
"","","","","","html-keyboard-response","70","2716931","0.0-13.0-8.0","5eaee5a2b1ad425c2eb0061d","6796e1c0ff24ca17c453c51c","67c718efd2fb57b837e6860f","passed","","1423","","","","","","","","","","","","","<p><span style=""font-size:40px;"">Practice Test BLOCK 2</span></p><p><span style=""font-size:25px;"">You have <b style=""color: #FF644F;""><strong>3 second(s)</strong></b> to respond to the following trials.</span><br></p><p id=""blinking-text"" style=""font-weight; animation: blink 2s infinite;"">Press Space to continue</p><style>
                    @keyframes blink {
                        50% {
                            opacity: 0;
                        }
                    }
                </style>"," ","","","","","","","","","","","","","",""
"","","","","","html-keyboard-response","71","2718515","0.0-13.0-9.0-0.0","5eaee5a2b1ad425c2eb0061d","6796e1c0ff24ca17c453c51c","67c718efd2fb57b837e6860f","passed","","","","","","","","","","","","","","","","","ballFalling_prac","416","365","249","2","fallScene","false","","","","","","",""
"","","","","","html-keyboard-response","72","2721530","0.0-13.0-9.0-1.0","5eaee5a2b1ad425c2eb0061d","6796e1c0ff24ca17c453c51c","67c718efd2fb57b837e6860f","passed","","372","","","","","","","","","","","","","","j","yesOrNo_prac","","","","2","","","gt","3000","","","","",""
"","","","","","html-keyboard-response","73","2723099","0.0-13.0-9.0-0.1","5eaee5a2b1ad425c2eb0061d","6796e1c0ff24ca17c453c51c","67c718efd2fb57b837e6860f","passed","","","","","","","","","","","","","","","","","ballFalling_prac","559","586","302","5","fallScene","false","","","","","","",""
"","","","","","html-keyboard-response","74","2726106","0.0-13.0-9.0-1.1","5eaee5a2b1ad425c2eb0061d","6796e1c0ff24ca17c453c51c","67c718efd2fb57b837e6860f","passed","","1172","","","","","","","","","","","","","","j","yesOrNo_prac","","","","5","","","far gt","3000","","","","",""
"","","","","","html-keyboard-response","75","2727681","0.0-13.0-9.0-0.2","5eaee5a2b1ad425c2eb0061d","6796e1c0ff24ca17c453c51c","67c718efd2fb57b837e6860f","passed","","","","","","","","","","","","","","","","","ballFalling_prac","340","390","263","4","fallScene","true","","","","","","",""
"","","","","","html-keyboard-response","76","2730687","0.0-13.0-9.0-1.2","5eaee5a2b1ad425c2eb0061d","6796e1c0ff24ca17c453c51c","67c718efd2fb57b837e6860f","passed","","446","","","","","","","","","","","","","","j","yesOrNo_prac","","","","4","","","close gt","3000","","","","",""
"","","","","","instructions","77","2737799","0.0-14.0","5eaee5a2b1ad425c2eb0061d","6796e1c0ff24ca17c453c51c","67c718efd2fb57b837e6860f","passed","[{""page_index"":0,""viewing_time"":7109}]","7110","","","","","","","","","","","","","","","","","","","","","","","","","","","",""
"","","","","","html-keyboard-response","78","2740258","0.0-15.0","5eaee5a2b1ad425c2eb0061d","6796e1c0ff24ca17c453c51c","67c718efd2fb57b837e6860f","passed","","2459","","","","","","","","","","","","","<p><span style=""font-size:40px;"">BLOCK 1</span></p><p><span style=""font-size:25px;"">You have <b style=""color: #FF644F;""><strong>3 second(s)</strong></b> to respond to the following trials.</span><br></p><p></p> <!-- Blank line -->
                <p id=""blinking-text"" style=""font-weight; animation: blink 2s infinite;"">Press Space to continue</p>
                <style>
                    @keyframes blink {
                        50% {
                            opacity: 0;
                        }
                    }
                </style></p>"," ","","","","","","","","","","","","","",""
"","","","","","html-keyboard-response","79","2741815","0.0-16.0-0.0","5eaee5a2b1ad425c2eb0061d","6796e1c0ff24ca17c453c51c","67c718efd2fb57b837e6860f","passed","","","","","","","","","","","","","","","","","ballFalling","322.3","379.3711431702997","245.25","1","fallScene","false","","","","","1","",""
"","","","","","html-keyboard-response","80","2744830","0.0-16.0-1.0","5eaee5a2b1ad425c2eb0061d","6796e1c0ff24ca17c453c51c","67c718efd2fb57b837e6860f","passed","","1408","","","","","","","","","","","","","","f","yesOrNo","","","","1","","","mid","3000","","","1","390.27114317029975","300"
"","","","","","html-keyboard-response","81","2746381","0.0-16.0-0.1","5eaee5a2b1ad425c2eb0061d","6796e1c0ff24ca17c453c51c","67c718efd2fb57b837e6860f","passed","","","","","","","","","","","","","","","","","ballFalling","322.3","296.07114317029976","371.46","3","fallScene","true","","","","","2","",""
"","","","","","html-keyboard-response","82","2749388","0.0-16.0-1.1","5eaee5a2b1ad425c2eb0061d","6796e1c0ff24ca17c453c51c","67c718efd2fb57b837e6860f","passed","","1577","","","","","","","","","","","","","","f","yesOrNo","","","","3","","","mid","3000","","","2","321.3","300"
"","","","","","html-keyboard-response","83","2750948","0.0-16.0-0.2","5eaee5a2b1ad425c2eb0061d","6796e1c0ff24ca17c453c51c","67c718efd2fb57b837e6860f","passed","","","","","","","","","","","","","","","","","ballFalling","604.4000000000001","650.0211431702996","404.58000000000004","11","fallScene","true","","","","","3","",""
"","","","","","html-keyboard-response","84","2753959","0.0-16.0-1.2","5eaee5a2b1ad425c2eb0061d","6796e1c0ff24ca17c453c51c","67c718efd2fb57b837e6860f","passed","","1643","","","","","","","","","","","","","","j","yesOrNo","","","","11","","","gt","3000","","","3","650.0211431702996","404.58"
"","","","","","html-keyboard-response","85","2755514","0.0-16.0-0.3","5eaee5a2b1ad425c2eb0061d","6796e1c0ff24ca17c453c51c","67c718efd2fb57b837e6860f","passed","","","","","","","","","","","","","","","","","ballFalling","500","453.67114317029973","210.33","5","fallScene","false","","","","","4","",""
"","","","","","html-keyboard-response","86","2758517","0.0-16.0-1.3","5eaee5a2b1ad425c2eb0061d","6796e1c0ff24ca17c453c51c","67c718efd2fb57b837e6860f","passed","","1270","","","","","","","","","","","","","","j","yesOrNo","","","","5","","","mid","3000","","","4","499","300"
"","","","","","html-keyboard-response","87","2760015","0.0-16.0-0.4","5eaee5a2b1ad425c2eb0061d","6796e1c0ff24ca17c453c51c","67c718efd2fb57b837e6860f","passed","","","","","","","","","","","","","","","","","ballFalling","604.4000000000001","667.6211431702998","201.78","9","fallScene","false","","","","","5","",""
"","","","","","html-keyboard-response","88","2763029","0.0-16.0-1.4","5eaee5a2b1ad425c2eb0061d","6796e1c0ff24ca17c453c51c","67c718efd2fb57b837e6860f","passed","","1104","","","","","","","","","","","","","","j","yesOrNo","","","","9","","","mid","3000","","","5","605.4000000000001","300"
"","","","","","html-keyboard-response","89","2765031","0.0-16.0-0.5","5eaee5a2b1ad425c2eb0061d","6796e1c0ff24ca17c453c51c","67c718efd2fb57b837e6860f","passed","","","","","","","","","","","","","","","","","ballFalling","604.4000000000001","596.8711431702998","394.5","10","fallScene","false","","","","","6","",""
"","","","","","html-keyboard-response","90","2768045","0.0-16.0-1.5","5eaee5a2b1ad425c2eb0061d","6796e1c0ff24ca17c453c51c","67c718efd2fb57b837e6860f","passed","","1465","","","","","","","","","","","","","","j","yesOrNo","","","","10","","","gt","3000","","","6","596.8711431702998","394.5"
"","","","","","html-keyboard-response","91","2769614","0.0-16.0-0.6","5eaee5a2b1ad425c2eb0061d","6796e1c0ff24ca17c453c51c","67c718efd2fb57b837e6860f","passed","","","","","","","","","","","","","","","","","ballFalling","500","553.4711431702997","282.51","7","fallScene","true","","","","","7","",""
"","","","","","html-keyboard-response","92","2772616","0.0-16.0-1.6","5eaee5a2b1ad425c2eb0061d","6796e1c0ff24ca17c453c51c","67c718efd2fb57b837e6860f","passed","","1169","","","","","","","","","","","","","","j","yesOrNo","","","","7","","","mid","3000","","","7","501","300"
"","","","","","html-keyboard-response","93","2774181","0.0-16.0-0.7","5eaee5a2b1ad425c2eb0061d","6796e1c0ff24ca17c453c51c","67c718efd2fb57b837e6860f","passed","","","","","","","","","","","","","","","","","ballFalling","500","453.67114317029973","210.33","5","fallScene","false","","","","","8","",""
"","","","","","html-keyboard-response","94","2777197","0.0-16.0-1.7","5eaee5a2b1ad425c2eb0061d","6796e1c0ff24ca17c453c51c","67c718efd2fb57b837e6860f","passed","","1425","","","","","","","","","","","","","","f","yesOrNo","","","","5","","","gt","3000","","","8","453.6711431702998","210.33"
"","","","","","html-keyboard-response","95","2778981","0.0-16.0-0.8","5eaee5a2b1ad425c2eb0061d","6796e1c0ff24ca17c453c51c","67c718efd2fb57b837e6860f","passed","","","","","","","","","","","","","","","","","ballFalling","322.3","308.07114317029976","253.89","2","fallScene","true","","","","","9","",""
"","","","","","html-keyboard-response","96","2781997","0.0-16.0-1.8","5eaee5a2b1ad425c2eb0061d","6796e1c0ff24ca17c453c51c","67c718efd2fb57b837e6860f","passed","","1761","","","","","","","","","","","","","","j","yesOrNo","","","","2","","","mid","3000","","","9","321.3","300"
"","","","","","html-keyboard-response","97","2783548","0.0-16.0-0.9","5eaee5a2b1ad425c2eb0061d","6796e1c0ff24ca17c453c51c","67c718efd2fb57b837e6860f","passed","","","","","","","","","","","","","","","","","ballFalling","604.4000000000001","650.0211431702996","404.58000000000004","11","fallScene","true","","","","","10","",""
"","","","","","html-keyboard-response","98","2786552","0.0-16.0-1.9","5eaee5a2b1ad425c2eb0061d","6796e1c0ff24ca17c453c51c","67c718efd2fb57b837e6860f","passed","","1378","","","","","","","","","","","","","","f","yesOrNo","","","","11","","","gt","3000","","","10","650.0211431702996","404.58"
"","","","","","html-keyboard-response","99","2788114","0.0-16.0-0.10","5eaee5a2b1ad425c2eb0061d","6796e1c0ff24ca17c453c51c","67c718efd2fb57b837e6860f","passed","","","","","","","","","","","","","","","","","ballFalling","322.3","379.3711431702997","245.25","1","fallScene","false","","","","","11","",""
"","","","","","html-keyboard-response","100","2791118","0.0-16.0-1.10","5eaee5a2b1ad425c2eb0061d","6796e1c0ff24ca17c453c51c","67c718efd2fb57b837e6860f","passed","","1799","","","","","","","","","","","","","","j","yesOrNo","","","","1","","","gt","3000","","","11","379.3711431702997","245.25"
"","","","","","html-keyboard-response","101","2792781","0.0-16.0-0.11","5eaee5a2b1ad425c2eb0061d","6796e1c0ff24ca17c453c51c","67c718efd2fb57b837e6860f","passed","","","","","","","","","","","","","","","","","ballFalling","500","479.92114317029973","330.87","6","fallScene","true","","","","","12","",""
"","","","","","html-keyboard-response","102","2795784","0.0-16.0-1.11","5eaee5a2b1ad425c2eb0061d","6796e1c0ff24ca17c453c51c","67c718efd2fb57b837e6860f","passed","","937","","","","","","","","","","","","","","j","yesOrNo","","","","6","","","mid","3000","","","12","499","300"
"","","","","","html-keyboard-response","103","2797347","0.0-16.0-0.12","5eaee5a2b1ad425c2eb0061d","6796e1c0ff24ca17c453c51c","67c718efd2fb57b837e6860f","passed","","","","","","","","","","","","","","","","","ballFalling","322.3","379.3711431702997","245.25","1","fallScene","true","","","","","13","",""
"","","","","","html-keyboard-response","104","2800350","0.0-16.0-1.12","5eaee5a2b1ad425c2eb0061d","6796e1c0ff24ca17c453c51c","67c718efd2fb57b837e6860f","passed","","1132","","","","","","","","","","","","","","f","yesOrNo","","","","1","","","lp","3000","","","13","323.3","217.74551669457017"
"","","","","","html-keyboard-response","105","2801914","0.0-16.0-0.13","5eaee5a2b1ad425c2eb0061d","6796e1c0ff24ca17c453c51c","67c718efd2fb57b837e6860f","passed","","","","","","","","","","","","","","","","","ballFalling","322.3","356.42114317029973","357.87","4","fallScene","true","","","","","14","",""
"","","","","","html-keyboard-response","106","2804930","0.0-16.0-1.13","5eaee5a2b1ad425c2eb0061d","6796e1c0ff24ca17c453c51c","67c718efd2fb57b837e6860f","passed","","1244","","","","","","","","","","","","","","f","yesOrNo","","","","4","","","mid","3000","","","14","390.27114317029975","300"
"","","","","","html-keyboard-response","107","2806481","0.0-16.0-0.14","5eaee5a2b1ad425c2eb0061d","6796e1c0ff24ca17c453c51c","67c718efd2fb57b837e6860f","passed","","","","","","","","","","","","","","","","","ballFalling","322.3","296.07114317029976","371.46","3","fallScene","false","","","","","15","",""
"","","","","","html-keyboard-response","108","2809483","0.0-16.0-1.14","5eaee5a2b1ad425c2eb0061d","6796e1c0ff24ca17c453c51c","67c718efd2fb57b837e6860f","passed","","1000","","","","","","","","","","","","","","j","yesOrNo","","","","3","","","mid","3000","","","15","321.3","300"
"","","","","","html-keyboard-response","109","2811047","0.0-16.0-0.15","5eaee5a2b1ad425c2eb0061d","6796e1c0ff24ca17c453c51c","67c718efd2fb57b837e6860f","passed","","","","","","","","","","","","","","","","","ballFalling","500","453.67114317029973","210.33","5","fallScene","false","","","","","16","",""
"","","","","","html-keyboard-response","110","2814049","0.0-16.0-1.15","5eaee5a2b1ad425c2eb0061d","6796e1c0ff24ca17c453c51c","67c718efd2fb57b837e6860f","passed","","1192","","","","","","","","","","","","","","f","yesOrNo","","","","5","","","lp","3000","","","16","499","151"
"","","","","","html-keyboard-response","111","2815631","0.0-16.0-0.16","5eaee5a2b1ad425c2eb0061d","6796e1c0ff24ca17c453c51c","67c718efd2fb57b837e6860f","passed","","","","","","","","","","","","","","","","","ballFalling","500","553.4711431702997","282.51","7","fallScene","false","","","","","17","",""
"","","","","","html-keyboard-response","112","2818644","0.0-16.0-1.16","5eaee5a2b1ad425c2eb0061d","6796e1c0ff24ca17c453c51c","67c718efd2fb57b837e6860f","passed","","903","","","","","","","","","","","","","","f","yesOrNo","","","","7","","","lp","3000","","","17","501","227.2843295913261"
"","","","","","html-keyboard-response","113","2820214","0.0-16.0-0.17","5eaee5a2b1ad425c2eb0061d","6796e1c0ff24ca17c453c51c","67c718efd2fb57b837e6860f","passed","","","","","","","","","","","","","","","","","ballFalling","500","553.4711431702997","282.51","7","fallScene","true","","","","","18","",""
"","","","","","html-keyboard-response","114","2823230","0.0-16.0-1.17","5eaee5a2b1ad425c2eb0061d","6796e1c0ff24ca17c453c51c","67c718efd2fb57b837e6860f","passed","","1313","","","","","","","","","","","","","","j","yesOrNo","","","","7","","","gt","3000","","","18","553.4711431702997","282.51"
"","","","","","html-keyboard-response","115","2825013","0.0-16.0-0.18","5eaee5a2b1ad425c2eb0061d","6796e1c0ff24ca17c453c51c","67c718efd2fb57b837e6860f","passed","","","","","","","","","","","","","","","","","ballFalling","322.3","308.07114317029976","253.89","2","fallScene","true","","","","","19","",""
"","","","","","html-keyboard-response","116","2828016","0.0-16.0-1.18","5eaee5a2b1ad425c2eb0061d","6796e1c0ff24ca17c453c51c","67c718efd2fb57b837e6860f","passed","","1521","","","","","","","","","","","","","","j","yesOrNo","","","","2","","","gt","3000","","","19","308.07114317029976","253.89"
"","","","","","html-keyboard-response","117","2829580","0.0-16.0-0.19","5eaee5a2b1ad425c2eb0061d","6796e1c0ff24ca17c453c51c","67c718efd2fb57b837e6860f","passed","","","","","","","","","","","","","","","","","ballFalling","500","453.67114317029973","210.33","5","fallScene","true","","","","","20","",""
"","","","","","html-keyboard-response","118","2832596","0.0-16.0-1.19","5eaee5a2b1ad425c2eb0061d","6796e1c0ff24ca17c453c51c","67c718efd2fb57b837e6860f","passed","","1161","","","","","","","","","","","","","","f","yesOrNo","","","","5","","","gt","3000","","","20","453.6711431702998","210.33"
"","","","","","html-keyboard-response","119","2834597","0.0-16.0-0.20","5eaee5a2b1ad425c2eb0061d","6796e1c0ff24ca17c453c51c","67c718efd2fb57b837e6860f","passed","","","","","","","","","","","","","","","","","ballFalling","604.4000000000001","596.8711431702998","394.5","10","fallScene","false","","","","","21","",""
"","","","","","html-keyboard-response","120","2837599","0.0-16.0-1.20","5eaee5a2b1ad425c2eb0061d","6796e1c0ff24ca17c453c51c","67c718efd2fb57b837e6860f","passed","","1795","","","","","","","","","","","","","","f","yesOrNo","","","","10","","","lp","3000","","","21","603.4000000000001","215.50214355555383"
"","","","","","html-keyboard-response","121","2839264","0.0-16.0-0.21","5eaee5a2b1ad425c2eb0061d","6796e1c0ff24ca17c453c51c","67c718efd2fb57b837e6860f","passed","","","","","","","","","","","","","","","","","ballFalling","500","479.92114317029973","330.87","6","fallScene","false","","","","","22","",""
"","","","","","html-keyboard-response","122","2842276","0.0-16.0-1.21","5eaee5a2b1ad425c2eb0061d","6796e1c0ff24ca17c453c51c","67c718efd2fb57b837e6860f","passed","","1454","","","","","","","","","","","","","","j","yesOrNo","","","","6","","","mid","3000","","","22","499","300"
"","","","","","html-keyboard-response","123","2843830","0.0-16.0-0.22","5eaee5a2b1ad425c2eb0061d","6796e1c0ff24ca17c453c51c","67c718efd2fb57b837e6860f","passed","","","","","","","","","","","","","","","","","ballFalling","322.3","356.42114317029973","357.87","4","fallScene","false","","","","","23","",""
"","","","","","html-keyboard-response","124","2846833","0.0-16.0-1.22","5eaee5a2b1ad425c2eb0061d","6796e1c0ff24ca17c453c51c","67c718efd2fb57b837e6860f","passed","","1409","","","","","","","","","","","","","","j","yesOrNo","","","","4","","","lp","3000","","","23","323.3","297.4070551689986"
"","","","","","html-keyboard-response","125","2848497","0.0-16.0-0.23","5eaee5a2b1ad425c2eb0061d","6796e1c0ff24ca17c453c51c","67c718efd2fb57b837e6860f","passed","","","","","","","","","","","","","","","","","ballFalling","500","479.92114317029973","330.87","6","fallScene","false","","","","","24","",""
"","","","","","html-keyboard-response","126","2851506","0.0-16.0-1.23","5eaee5a2b1ad425c2eb0061d","6796e1c0ff24ca17c453c51c","67c718efd2fb57b837e6860f","passed","","1198","","","","","","","","","","","","","","j","yesOrNo","","","","6","","","gt","3000","","","24","479.9211431702998","330.87"
"","","","","","html-keyboard-response","127","2853273","0.0-17.0","5eaee5a2b1ad425c2eb0061d","6796e1c0ff24ca17c453c51c","67c718efd2fb57b837e6860f","passed","","1766","","","","","","","","","","","","","<p><span style=""font-size:40px;"">BLOCK 2</span></p><p><span style=""font-size:25px;"">You have <b style=""color: #FF644F;""><strong>0.7 second(s)</strong></b> to respond to the following trials.</span><br></p><p></p> <!-- Blank line -->
                <p id=""blinking-text"" style=""font-weight; animation: blink 2s infinite;"">Press Space to continue</p>
                <style>
                    @keyframes blink {
                        50% {
                            opacity: 0;
                        }
                    }
                </style></p>"," ","","","","","","","","","","","","","",""
"","","","","","html-keyboard-response","128","2854830","0.0-18.0-0.0","5eaee5a2b1ad425c2eb0061d","6796e1c0ff24ca17c453c51c","67c718efd2fb57b837e6860f","passed","","","","","","","","","","","","","","","","","ballFalling","604.4000000000001","575.4211431702997","266.76","12","fallScene","false","","","","","25","",""
"","","","","","html-keyboard-response","129","2855536","0.0-18.0-1.0","5eaee5a2b1ad425c2eb0061d","6796e1c0ff24ca17c453c51c","67c718efd2fb57b837e6860f","passed","","600","","","","","","","","","","","","","","j","yesOrNo","","","","12","","","gt","700","","","25","575.4211431702997","266.76"
"","","","","","html-keyboard-response","130","2857547","0.0-18.0-0.1","5eaee5a2b1ad425c2eb0061d","6796e1c0ff24ca17c453c51c","67c718efd2fb57b837e6860f","passed","","","","","","","","","","","","","","","","","ballFalling","500","510.8711431702997","369.03","8","fallScene","false","","","","","26","",""
"","","","","","html-keyboard-response","131","2858260","0.0-18.0-1.1","5eaee5a2b1ad425c2eb0061d","6796e1c0ff24ca17c453c51c","67c718efd2fb57b837e6860f","passed","","620","","","","","","","","","","","","","","j","yesOrNo","","","","8","","","lp","700","","","26","501","151"
"","","","","","html-keyboard-response","132","2859813","0.0-18.0-0.2","5eaee5a2b1ad425c2eb0061d","6796e1c0ff24ca17c453c51c","67c718efd2fb57b837e6860f","passed","","","","","","","","","","","","","","","","","ballFalling","604.4000000000001","650.0211431702996","404.58000000000004","11","fallScene","false","","","","","27","",""
"","","","","","html-keyboard-response","133","2860526","0.0-18.0-1.2","5eaee5a2b1ad425c2eb0061d","6796e1c0ff24ca17c453c51c","67c718efd2fb57b837e6860f","passed","","609","","","","","","","","","","","","","","j","yesOrNo","","","","11","","","lp","700","","","27","605.4000000000001","372.6340973215488"
"","","","","","html-keyboard-response","134","2862313","0.0-18.0-0.3","5eaee5a2b1ad425c2eb0061d","6796e1c0ff24ca17c453c51c","67c718efd2fb57b837e6860f","passed","","","","","","","","","","","","","","","","","ballFalling","322.3","308.07114317029976","253.89","2","fallScene","false","","","","","28","",""
"","","","","","html-keyboard-response","135","2863027","0.0-18.0-1.3","5eaee5a2b1ad425c2eb0061d","6796e1c0ff24ca17c453c51c","67c718efd2fb57b837e6860f","passed","","null","","","","","","","","","","","","","","null","yesOrNo","","","","2","","","mid","700","","","28","321.3","300"
"","","","","","html-keyboard-response","136","2864814","0.0-18.0-0.4","5eaee5a2b1ad425c2eb0061d","6796e1c0ff24ca17c453c51c","67c718efd2fb57b837e6860f","passed","","","","","","","","","","","","","","","","","ballFalling","322.3","308.07114317029976","253.89","2","fallScene","false","","","","","29","",""
"","","","","","html-keyboard-response","137","2865524","0.0-18.0-1.4","5eaee5a2b1ad425c2eb0061d","6796e1c0ff24ca17c453c51c","67c718efd2fb57b837e6860f","passed","","552","","","","","","","","","","","","","","j","yesOrNo","","","","2","","","mid","700","","","29","321.3","300"
"","","","","","html-keyboard-response","138","2867013","0.0-18.0-0.5","5eaee5a2b1ad425c2eb0061d","6796e1c0ff24ca17c453c51c","67c718efd2fb57b837e6860f","passed","","","","","","","","","","","","","","","","","ballFalling","604.4000000000001","667.6211431702998","201.78","9","fallScene","false","","","","","30","",""
"","","","","","html-keyboard-response","139","2867720","0.0-18.0-1.5","5eaee5a2b1ad425c2eb0061d","6796e1c0ff24ca17c453c51c","67c718efd2fb57b837e6860f","passed","","466","","","","","","","","","","","","","","f","yesOrNo","","","","9","","","lp","700","","","30","605.4000000000001","151"
"","","","","","html-keyboard-response","140","2869280","0.0-18.0-0.6","5eaee5a2b1ad425c2eb0061d","6796e1c0ff24ca17c453c51c","67c718efd2fb57b837e6860f","passed","","","","","","","","","","","","","","","","","ballFalling","322.3","379.3711431702997","245.25","1","fallScene","false","","","","","31","",""
"","","","","","html-keyboard-response","141","2869996","0.0-18.0-1.6","5eaee5a2b1ad425c2eb0061d","6796e1c0ff24ca17c453c51c","67c718efd2fb57b837e6860f","passed","","534","","","","","","","","","","","","","","f","yesOrNo","","","","1","","","gt","700","","","31","379.3711431702997","245.25"
"","","","","","html-keyboard-response","142","2871780","0.0-18.0-0.7","5eaee5a2b1ad425c2eb0061d","6796e1c0ff24ca17c453c51c","67c718efd2fb57b837e6860f","passed","","","","","","","","","","","","","","","","","ballFalling","322.3","308.07114317029976","253.89","2","fallScene","false","","","","","32","",""
"","","","","","html-keyboard-response","143","2872495","0.0-18.0-1.7","5eaee5a2b1ad425c2eb0061d","6796e1c0ff24ca17c453c51c","67c718efd2fb57b837e6860f","passed","","null","","","","","","","","","","","","","","null","yesOrNo","","","","2","","","lp","700","","","32","321.3","151"
"","","","","","html-keyboard-response","144","2874046","0.0-18.0-0.8","5eaee5a2b1ad425c2eb0061d","6796e1c0ff24ca17c453c51c","67c718efd2fb57b837e6860f","passed","","","","","","","","","","","","","","","","","ballFalling","322.3","296.07114317029976","371.46","3","fallScene","true","","","","","33","",""
"","","","","","html-keyboard-response","145","2874756","0.0-18.0-1.8","5eaee5a2b1ad425c2eb0061d","6796e1c0ff24ca17c453c51c","67c718efd2fb57b837e6860f","passed","","568","","","","","","","","","","","","","","f","yesOrNo","","","","3","","","lp","700","","","33","321.3","287.3327096511259"
"","","","","","html-keyboard-response","146","2876313","0.0-18.0-0.9","5eaee5a2b1ad425c2eb0061d","6796e1c0ff24ca17c453c51c","67c718efd2fb57b837e6860f","passed","","","","","","","","","","","","","","","","","ballFalling","322.3","296.07114317029976","371.46","3","fallScene","false","","","","","34","",""
"","","","","","html-keyboard-response","147","2877023","0.0-18.0-1.9","5eaee5a2b1ad425c2eb0061d","6796e1c0ff24ca17c453c51c","67c718efd2fb57b837e6860f","passed","","509","","","","","","","","","","","","","","j","yesOrNo","","","","3","","","gt","700","","","34","296.07114317029976","371.46"
"","","","","","html-keyboard-response","148","2878580","0.0-18.0-0.10","5eaee5a2b1ad425c2eb0061d","6796e1c0ff24ca17c453c51c","67c718efd2fb57b837e6860f","passed","","","","","","","","","","","","","","","","","ballFalling","604.4000000000001","650.0211431702996","404.58000000000004","11","fallScene","true","","","","","35","",""
"","","","","","html-keyboard-response","149","2879294","0.0-18.0-1.10","5eaee5a2b1ad425c2eb0061d","6796e1c0ff24ca17c453c51c","67c718efd2fb57b837e6860f","passed","","610","","","","","","","","","","","","","","f","yesOrNo","","","","11","","","mid","700","","","35","605.4000000000001","300"
"","","","","","html-keyboard-response","150","2880847","0.0-18.0-0.11","5eaee5a2b1ad425c2eb0061d","6796e1c0ff24ca17c453c51c","67c718efd2fb57b837e6860f","passed","","","","","","","","","","","","","","","","","ballFalling","604.4000000000001","650.0211431702996","404.58000000000004","11","fallScene","true","","","","","36","",""
"","","","","","html-keyboard-response","151","2881558","0.0-18.0-1.11","5eaee5a2b1ad425c2eb0061d","6796e1c0ff24ca17c453c51c","67c718efd2fb57b837e6860f","passed","","543","","","","","","","","","","","","","","f","yesOrNo","","","","11","","","mid","700","","","36","605.4000000000001","300"
"","","","","","html-keyboard-response","152","2883113","0.0-18.0-0.12","5eaee5a2b1ad425c2eb0061d","6796e1c0ff24ca17c453c51c","67c718efd2fb57b837e6860f","passed","","","","","","","","","","","","","","","","","ballFalling","322.3","356.42114317029973","357.87","4","fallScene","true","","","","","37","",""
"","","","","","html-keyboard-response","153","2883829","0.0-18.0-1.12","5eaee5a2b1ad425c2eb0061d","6796e1c0ff24ca17c453c51c","67c718efd2fb57b837e6860f","passed","","610","","","","","","","","","","","","","","j","yesOrNo","","","","4","","","lp","700","","","37","323.3","297.4070551689986"
"","","","","","html-keyboard-response","154","2885380","0.0-18.0-0.13","5eaee5a2b1ad425c2eb0061d","6796e1c0ff24ca17c453c51c","67c718efd2fb57b837e6860f","passed","","","","","","","","","","","","","","","","","ballFalling","604.4000000000001","575.4211431702997","266.76","12","fallScene","true","","","","","38","",""
"","","","","","html-keyboard-response","155","2886091","0.0-18.0-1.13","5eaee5a2b1ad425c2eb0061d","6796e1c0ff24ca17c453c51c","67c718efd2fb57b837e6860f","passed","","602","","","","","","","","","","","","","","f","yesOrNo","","","","12","","","lp","700","","","38","603.4000000000001","151"
"","","","","","html-keyboard-response","156","2887663","0.0-18.0-0.14","5eaee5a2b1ad425c2eb0061d","6796e1c0ff24ca17c453c51c","67c718efd2fb57b837e6860f","passed","","","","","","","","","","","","","","","","","ballFalling","500","553.4711431702997","282.51","7","fallScene","false","","","","","39","",""
"","","","","","html-keyboard-response","157","2888379","0.0-18.0-1.14","5eaee5a2b1ad425c2eb0061d","6796e1c0ff24ca17c453c51c","67c718efd2fb57b837e6860f","passed","","526","","","","","","","","","","","","","","f","yesOrNo","","","","7","","","lp","700","","","39","501","227.2843295913261"
"","","","","","html-keyboard-response","158","2889930","0.0-18.0-0.15","5eaee5a2b1ad425c2eb0061d","6796e1c0ff24ca17c453c51c","67c718efd2fb57b837e6860f","passed","","","","","","","","","","","","","","","","","ballFalling","322.3","356.42114317029973","357.87","4","fallScene","true","","","","","40","",""
"","","","","","html-keyboard-response","159","2890633","0.0-18.0-1.15","5eaee5a2b1ad425c2eb0061d","6796e1c0ff24ca17c453c51c","67c718efd2fb57b837e6860f","passed","","null","","","","","","","","","","","","","","null","yesOrNo","","","","4","","","gt","700","","","40","356.42114317029973","357.87"
"","","","","","html-keyboard-response","160","2892647","0.0-18.0-0.16","5eaee5a2b1ad425c2eb0061d","6796e1c0ff24ca17c453c51c","67c718efd2fb57b837e6860f","passed","","","","","","","","","","","","","","","","","ballFalling","604.4000000000001","596.8711431702998","394.5","10","fallScene","false","","","","","41","",""
"","","","","","html-keyboard-response","161","2893357","0.0-18.0-1.16","5eaee5a2b1ad425c2eb0061d","6796e1c0ff24ca17c453c51c","67c718efd2fb57b837e6860f","passed","","534","","","","","","","","","","","","","","j","yesOrNo","","","","10","","","gt","700","","","41","596.8711431702998","394.5"
"","","","","","html-keyboard-response","162","2895363","0.0-18.0-0.17","5eaee5a2b1ad425c2eb0061d","6796e1c0ff24ca17c453c51c","67c718efd2fb57b837e6860f","passed","","","","","","","","","","","","","","","","","ballFalling","500","510.8711431702997","369.03","8","fallScene","false","","","","","42","",""
"","","","","","html-keyboard-response","163","2896070","0.0-18.0-1.17","5eaee5a2b1ad425c2eb0061d","6796e1c0ff24ca17c453c51c","67c718efd2fb57b837e6860f","passed","","506","","","","","","","","","","","","","","f","yesOrNo","","","","8","","","mid","700","","","42","501","300"
"","","","","","html-keyboard-response","164","2897863","0.0-18.0-0.18","5eaee5a2b1ad425c2eb0061d","6796e1c0ff24ca17c453c51c","67c718efd2fb57b837e6860f","passed","","","","","","","","","","","","","","","","","ballFalling","322.3","308.07114317029976","253.89","2","fallScene","true","","","","","43","",""
"","","","","","html-keyboard-response","165","2898579","0.0-18.0-1.18","5eaee5a2b1ad425c2eb0061d","6796e1c0ff24ca17c453c51c","67c718efd2fb57b837e6860f","passed","","null","","","","","","","","","","","","","","null","yesOrNo","","","","2","","","lp","700","","","43","321.3","151"
"","","","","","html-keyboard-response","166","2900130","0.0-18.0-0.19","5eaee5a2b1ad425c2eb0061d","6796e1c0ff24ca17c453c51c","67c718efd2fb57b837e6860f","passed","","","","","","","","","","","","","","","","","ballFalling","322.3","379.3711431702997","245.25","1","fallScene","true","","","","","44","",""
"","","","","","html-keyboard-response","167","2900840","0.0-18.0-1.19","5eaee5a2b1ad425c2eb0061d","6796e1c0ff24ca17c453c51c","67c718efd2fb57b837e6860f","passed","","null","","","","","","","","","","","","","","null","yesOrNo","","","","1","","","mid","700","","","44","390.27114317029975","300"
"","","","","","html-keyboard-response","168","2902496","0.0-18.0-0.20","5eaee5a2b1ad425c2eb0061d","6796e1c0ff24ca17c453c51c","67c718efd2fb57b837e6860f","passed","","","","","","","","","","","","","","","","","ballFalling","500","479.92114317029973","330.87","6","fallScene","true","","","","","45","",""
"","","","","","html-keyboard-response","169","2903212","0.0-18.0-1.20","5eaee5a2b1ad425c2eb0061d","6796e1c0ff24ca17c453c51c","67c718efd2fb57b837e6860f","passed","","539","","","","","","","","","","","","","","j","yesOrNo","","","","6","","","mid","700","","","45","499","300"
"","","","","","html-keyboard-response","170","2905213","0.0-18.0-0.21","5eaee5a2b1ad425c2eb0061d","6796e1c0ff24ca17c453c51c","67c718efd2fb57b837e6860f","passed","","","","","","","","","","","","","","","","","ballFalling","500","510.8711431702997","369.03","8","fallScene","true","","","","","46","",""
"","","","","","html-keyboard-response","171","2905929","0.0-18.0-1.21","5eaee5a2b1ad425c2eb0061d","6796e1c0ff24ca17c453c51c","67c718efd2fb57b837e6860f","passed","","null","","","","","","","","","","","","","","null","yesOrNo","","","","8","","","gt","700","","","46","510.8711431702997","369.03"
"","","","","","html-keyboard-response","172","2907497","0.0-18.0-0.22","5eaee5a2b1ad425c2eb0061d","6796e1c0ff24ca17c453c51c","67c718efd2fb57b837e6860f","passed","","","","","","","","","","","","","","","","","ballFalling","500","553.4711431702997","282.51","7","fallScene","false","","","","","47","",""
"","","","","","html-keyboard-response","173","2908201","0.0-18.0-1.22","5eaee5a2b1ad425c2eb0061d","6796e1c0ff24ca17c453c51c","67c718efd2fb57b837e6860f","passed","","461","","","","","","","","","","","","","","f","yesOrNo","","","","7","","","gt","700","","","47","553.4711431702997","282.51"
"","","","","","html-keyboard-response","174","2909763","0.0-18.0-0.23","5eaee5a2b1ad425c2eb0061d","6796e1c0ff24ca17c453c51c","67c718efd2fb57b837e6860f","passed","","","","","","","","","","","","","","","","","ballFalling","500","453.67114317029973","210.33","5","fallScene","true","","","","","48","",""
"","","","","","html-keyboard-response","175","2910479","0.0-18.0-1.23","5eaee5a2b1ad425c2eb0061d","6796e1c0ff24ca17c453c51c","67c718efd2fb57b837e6860f","passed","","388","","","","","","","","","","","","","","j","yesOrNo","","","","5","","","mid","700","","","48","499","300"
"","","","","","html-keyboard-response","176","2911929","0.0-19.0","5eaee5a2b1ad425c2eb0061d","6796e1c0ff24ca17c453c51c","67c718efd2fb57b837e6860f","passed","","1449","","","","","","","","","","","","","<p><span style=""font-size:40px;"">BLOCK 3</span></p><p><span style=""font-size:25px;"">You have <b style=""color: #FF644F;""><strong>0.7 second(s)</strong></b> to respond to the following trials.</span><br></p><p></p> <!-- Blank line -->
                <p id=""blinking-text"" style=""font-weight; animation: blink 2s infinite;"">Press Space to continue</p>
                <style>
                    @keyframes blink {
                        50% {
                            opacity: 0;
                        }
                    }
                </style></p>"," ","","","","","","","","","","","","","",""
"","","","","","html-keyboard-response","177","2913947","0.0-20.0-0.0","5eaee5a2b1ad425c2eb0061d","6796e1c0ff24ca17c453c51c","67c718efd2fb57b837e6860f","passed","","","","","","","","","","","","","","","","","ballFalling","500","510.8711431702997","369.03","8","fallScene","false","","","","","49","",""
"","","","","","html-keyboard-response","178","2914652","0.0-20.0-1.0","5eaee5a2b1ad425c2eb0061d","6796e1c0ff24ca17c453c51c","67c718efd2fb57b837e6860f","passed","","555","","","","","","","","","","","","","","f","yesOrNo","","","","8","","","gt","700","","","49","510.8711431702997","369.03"
"","","","","","html-keyboard-response","179","2916213","0.0-20.0-0.1","5eaee5a2b1ad425c2eb0061d","6796e1c0ff24ca17c453c51c","67c718efd2fb57b837e6860f","passed","","","","","","","","","","","","","","","","","ballFalling","322.3","379.3711431702997","245.25","1","fallScene","false","","","","","50","",""
"","","","","","html-keyboard-response","180","2916920","0.0-20.0-1.1","5eaee5a2b1ad425c2eb0061d","6796e1c0ff24ca17c453c51c","67c718efd2fb57b837e6860f","passed","","513","","","","","","","","","","","","","","j","yesOrNo","","","","1","","","lp","700","","","50","323.3","217.74551669457017"
"","","","","","html-keyboard-response","181","2918413","0.0-20.0-0.2","5eaee5a2b1ad425c2eb0061d","6796e1c0ff24ca17c453c51c","67c718efd2fb57b837e6860f","passed","","","","","","","","","","","","","","","","","ballFalling","604.4000000000001","667.6211431702998","201.78","9","fallScene","true","","","","","51","",""
"","","","","","html-keyboard-response","182","2919119","0.0-20.0-1.2","5eaee5a2b1ad425c2eb0061d","6796e1c0ff24ca17c453c51c","67c718efd2fb57b837e6860f","passed","","584","","","","","","","","","","","","","","f","yesOrNo","","","","9","","","lp","700","","","51","605.4000000000001","151"
"","","","","","html-keyboard-response","183","2920679","0.0-20.0-0.3","5eaee5a2b1ad425c2eb0061d","6796e1c0ff24ca17c453c51c","67c718efd2fb57b837e6860f","passed","","","","","","","","","","","","","","","","","ballFalling","604.4000000000001","575.4211431702997","266.76","12","fallScene","true","","","","","52","",""
"","","","","","html-keyboard-response","184","2921386","0.0-20.0-1.3","5eaee5a2b1ad425c2eb0061d","6796e1c0ff24ca17c453c51c","67c718efd2fb57b837e6860f","passed","","null","","","","","","","","","","","","","","null","yesOrNo","","","","12","","","mid","700","","","52","536.4288568297004","300"
"","","","","","html-keyboard-response","185","2922946","0.0-20.0-0.4","5eaee5a2b1ad425c2eb0061d","6796e1c0ff24ca17c453c51c","67c718efd2fb57b837e6860f","passed","","","","","","","","","","","","","","","","","ballFalling","500","453.67114317029973","210.33","5","fallScene","true","","","","","53","",""
"","","","","","html-keyboard-response","186","2923660","0.0-20.0-1.4","5eaee5a2b1ad425c2eb0061d","6796e1c0ff24ca17c453c51c","67c718efd2fb57b837e6860f","passed","","652","","","","","","","","","","","","","","f","yesOrNo","","","","5","","","lp","700","","","53","499","151"
"","","","","","html-keyboard-response","187","2925213","0.0-20.0-0.5","5eaee5a2b1ad425c2eb0061d","6796e1c0ff24ca17c453c51c","67c718efd2fb57b837e6860f","passed","","","","","","","","","","","","","","","","","ballFalling","322.3","379.3711431702997","245.25","1","fallScene","true","","","","","54","",""
"","","","","","html-keyboard-response","188","2925923","0.0-20.0-1.5","5eaee5a2b1ad425c2eb0061d","6796e1c0ff24ca17c453c51c","67c718efd2fb57b837e6860f","passed","","624","","","","","","","","","","","","","","f","yesOrNo","","","","1","","","lp","700","","","54","323.3","217.74551669457017"
"","","","","","html-keyboard-response","189","2927480","0.0-20.0-0.6","5eaee5a2b1ad425c2eb0061d","6796e1c0ff24ca17c453c51c","67c718efd2fb57b837e6860f","passed","","","","","","","","","","","","","","","","","ballFalling","322.3","379.3711431702997","245.25","1","fallScene","false","","","","","55","",""
"","","","","","html-keyboard-response","190","2928195","0.0-20.0-1.6","5eaee5a2b1ad425c2eb0061d","6796e1c0ff24ca17c453c51c","67c718efd2fb57b837e6860f","passed","","null","","","","","","","","","","","","","","null","yesOrNo","","","","1","","","mid","700","","","55","390.27114317029975","300"
"","","","","","html-keyboard-response","191","2929746","0.0-20.0-0.7","5eaee5a2b1ad425c2eb0061d","6796e1c0ff24ca17c453c51c","67c718efd2fb57b837e6860f","passed","","","","","","","","","","","","","","","","","ballFalling","322.3","296.07114317029976","371.46","3","fallScene","true","","","","","56","",""
"","","","","","html-keyboard-response","192","2930452","0.0-20.0-1.7","5eaee5a2b1ad425c2eb0061d","6796e1c0ff24ca17c453c51c","67c718efd2fb57b837e6860f","passed","","699","","","","","","","","","","","","","","j","yesOrNo","","","","3","","","gt","700","","","56","296.07114317029976","371.46"
"","","","","","html-keyboard-response","193","2932013","0.0-20.0-0.8","5eaee5a2b1ad425c2eb0061d","6796e1c0ff24ca17c453c51c","67c718efd2fb57b837e6860f","passed","","","","","","","","","","","","","","","","","ballFalling","500","453.67114317029973","210.33","5","fallScene","true","","","","","57","",""
"","","","","","html-keyboard-response","194","2932719","0.0-20.0-1.8","5eaee5a2b1ad425c2eb0061d","6796e1c0ff24ca17c453c51c","67c718efd2fb57b837e6860f","passed","","490","","","","","","","","","","","","","","f","yesOrNo","","","","5","","","lp","700","","","57","499","151"
"","","","","","html-keyboard-response","195","2934729","0.0-20.0-0.9","5eaee5a2b1ad425c2eb0061d","6796e1c0ff24ca17c453c51c","67c718efd2fb57b837e6860f","passed","","","","","","","","","","","","","","","","","ballFalling","604.4000000000001","596.8711431702998","394.5","10","fallScene","true","","","","","58","",""
"","","","","","html-keyboard-response","196","2935432","0.0-20.0-1.9","5eaee5a2b1ad425c2eb0061d","6796e1c0ff24ca17c453c51c","67c718efd2fb57b837e6860f","passed","","null","","","","","","","","","","","","","","null","yesOrNo","","","","10","","","mid","700","","","58","536.4288568297004","300"
"","","","","","html-keyboard-response","197","2937229","0.0-20.0-0.10","5eaee5a2b1ad425c2eb0061d","6796e1c0ff24ca17c453c51c","67c718efd2fb57b837e6860f","passed","","","","","","","","","","","","","","","","","ballFalling","322.3","308.07114317029976","253.89","2","fallScene","true","","","","","59","",""
"","","","","","html-keyboard-response","198","2937936","0.0-20.0-1.10","5eaee5a2b1ad425c2eb0061d","6796e1c0ff24ca17c453c51c","67c718efd2fb57b837e6860f","passed","","600","","","","","","","","","","","","","","f","yesOrNo","","","","2","","","gt","700","","","59","308.07114317029976","253.89"
"","","","","","html-keyboard-response","199","2939596","0.0-20.0-0.11","5eaee5a2b1ad425c2eb0061d","6796e1c0ff24ca17c453c51c","67c718efd2fb57b837e6860f","passed","","","","","","","","","","","","","","","","","ballFalling","500","479.92114317029973","330.87","6","fallScene","false","","","","","60","",""
"","","","","","html-keyboard-response","200","2940300","0.0-20.0-1.11","5eaee5a2b1ad425c2eb0061d","6796e1c0ff24ca17c453c51c","67c718efd2fb57b837e6860f","passed","","417","","","","","","","","","","","","","","j","yesOrNo","","","","6","","","gt","700","","","60","479.9211431702998","330.87"
"","","","","","html-keyboard-response","201","2941876","0.0-20.0-0.12","5eaee5a2b1ad425c2eb0061d","6796e1c0ff24ca17c453c51c","67c718efd2fb57b837e6860f","passed","","","","","","","","","","","","","","","","","ballFalling","604.4000000000001","575.4211431702997","266.76","12","fallScene","true","","","","","61","",""
"","","","","","html-keyboard-response","202","2942578","0.0-20.0-1.12","5eaee5a2b1ad425c2eb0061d","6796e1c0ff24ca17c453c51c","67c718efd2fb57b837e6860f","passed","","475","","","","","","","","","","","","","","f","yesOrNo","","","","12","","","lp","700","","","61","603.4000000000001","151"
"","","","","","html-keyboard-response","203","2944130","0.0-20.0-0.13","5eaee5a2b1ad425c2eb0061d","6796e1c0ff24ca17c453c51c","67c718efd2fb57b837e6860f","passed","","","","","","","","","","","","","","","","","ballFalling","322.3","296.07114317029976","371.46","3","fallScene","true","","","","","62","",""
"","","","","","html-keyboard-response","204","2944845","0.0-20.0-1.13","5eaee5a2b1ad425c2eb0061d","6796e1c0ff24ca17c453c51c","67c718efd2fb57b837e6860f","passed","","571","","","","","","","","","","","","","","f","yesOrNo","","","","3","","","mid","700","","","62","321.3","300"
"","","","","","html-keyboard-response","205","2946496","0.0-20.0-0.14","5eaee5a2b1ad425c2eb0061d","6796e1c0ff24ca17c453c51c","67c718efd2fb57b837e6860f","passed","","","","","","","","","","","","","","","","","ballFalling","500","479.92114317029973","330.87","6","fallScene","true","","","","","63","",""
"","","","","","html-keyboard-response","206","2947198","0.0-20.0-1.14","5eaee5a2b1ad425c2eb0061d","6796e1c0ff24ca17c453c51c","67c718efd2fb57b837e6860f","passed","","600","","","","","","","","","","","","","","j","yesOrNo","","","","6","","","lp","700","","","63","499","189.92909825697632"
"","","","","","html-keyboard-response","207","2948996","0.0-20.0-0.15","5eaee5a2b1ad425c2eb0061d","6796e1c0ff24ca17c453c51c","67c718efd2fb57b837e6860f","passed","","","","","","","","","","","","","","","","","ballFalling","322.3","308.07114317029976","253.89","2","fallScene","true","","","","","64","",""
"","","","","","html-keyboard-response","208","2949707","0.0-20.0-1.15","5eaee5a2b1ad425c2eb0061d","6796e1c0ff24ca17c453c51c","67c718efd2fb57b837e6860f","passed","","473","","","","","","","","","","","","","","f","yesOrNo","","","","2","","","gt","700","","","64","308.07114317029976","253.89"
"","","","","","html-keyboard-response","209","2951262","0.0-20.0-0.16","5eaee5a2b1ad425c2eb0061d","6796e1c0ff24ca17c453c51c","67c718efd2fb57b837e6860f","passed","","","","","","","","","","","","","","","","","ballFalling","322.3","356.42114317029973","357.87","4","fallScene","true","","","","","65","",""
"","","","","","html-keyboard-response","210","2951971","0.0-20.0-1.16","5eaee5a2b1ad425c2eb0061d","6796e1c0ff24ca17c453c51c","67c718efd2fb57b837e6860f","passed","","null","","","","","","","","","","","","","","null","yesOrNo","","","","4","","","mid","700","","","65","390.27114317029975","300"
"","","","","","html-keyboard-response","211","2953530","0.0-20.0-0.17","5eaee5a2b1ad425c2eb0061d","6796e1c0ff24ca17c453c51c","67c718efd2fb57b837e6860f","passed","","","","","","","","","","","","","","","","","ballFalling","604.4000000000001","575.4211431702997","266.76","12","fallScene","false","","","","","66","",""
"","","","","","html-keyboard-response","212","2954240","0.0-20.0-1.17","5eaee5a2b1ad425c2eb0061d","6796e1c0ff24ca17c453c51c","67c718efd2fb57b837e6860f","passed","","523","","","","","","","","","","","","","","f","yesOrNo","","","","12","","","mid","700","","","66","536.4288568297004","300"
"","","","","","html-keyboard-response","213","2956246","0.0-20.0-0.18","5eaee5a2b1ad425c2eb0061d","6796e1c0ff24ca17c453c51c","67c718efd2fb57b837e6860f","passed","","","","","","","","","","","","","","","","","ballFalling","604.4000000000001","596.8711431702998","394.5","10","fallScene","false","","","","","67","",""
"","","","","","html-keyboard-response","214","2956950","0.0-20.0-1.18","5eaee5a2b1ad425c2eb0061d","6796e1c0ff24ca17c453c51c","67c718efd2fb57b837e6860f","passed","","568","","","","","","","","","","","","","","j","yesOrNo","","","","10","","","gt","700","","","67","596.8711431702998","394.5"
"","","","","","html-keyboard-response","215","2958446","0.0-20.0-0.19","5eaee5a2b1ad425c2eb0061d","6796e1c0ff24ca17c453c51c","67c718efd2fb57b837e6860f","passed","","","","","","","","","","","","","","","","","ballFalling","604.4000000000001","667.6211431702998","201.78","9","fallScene","true","","","","","68","",""
"","","","","","html-keyboard-response","216","2959154","0.0-20.0-1.19","5eaee5a2b1ad425c2eb0061d","6796e1c0ff24ca17c453c51c","67c718efd2fb57b837e6860f","passed","","448","","","","","","","","","","","","","","f","yesOrNo","","","","9","","","gt","700","","","68","667.6211431702998","201.78"
"","","","","","html-keyboard-response","217","2960713","0.0-20.0-0.20","5eaee5a2b1ad425c2eb0061d","6796e1c0ff24ca17c453c51c","67c718efd2fb57b837e6860f","passed","","","","","","","","","","","","","","","","","ballFalling","322.3","356.42114317029973","357.87","4","fallScene","true","","","","","69","",""
"","","","","","html-keyboard-response","218","2961415","0.0-20.0-1.20","5eaee5a2b1ad425c2eb0061d","6796e1c0ff24ca17c453c51c","67c718efd2fb57b837e6860f","passed","","461","","","","","","","","","","","","","","j","yesOrNo","","","","4","","","gt","700","","","69","356.42114317029973","357.87"
"","","","","","html-keyboard-response","219","2963079","0.0-20.0-0.21","5eaee5a2b1ad425c2eb0061d","6796e1c0ff24ca17c453c51c","67c718efd2fb57b837e6860f","passed","","","","","","","","","","","","","","","","","ballFalling","500","479.92114317029973","330.87","6","fallScene","false","","","","","70","",""
"","","","","","html-keyboard-response","220","2963789","0.0-20.0-1.21","5eaee5a2b1ad425c2eb0061d","6796e1c0ff24ca17c453c51c","67c718efd2fb57b837e6860f","passed","","511","","","","","","","","","","","","","","j","yesOrNo","","","","6","","","gt","700","","","70","479.9211431702998","330.87"
"","","","","","html-keyboard-response","221","2965346","0.0-20.0-0.22","5eaee5a2b1ad425c2eb0061d","6796e1c0ff24ca17c453c51c","67c718efd2fb57b837e6860f","passed","","","","","","","","","","","","","","","","","ballFalling","500","453.67114317029973","210.33","5","fallScene","true","","","","","71","",""
"","","","","","html-keyboard-response","222","2966061","0.0-20.0-1.22","5eaee5a2b1ad425c2eb0061d","6796e1c0ff24ca17c453c51c","67c718efd2fb57b837e6860f","passed","","482","","","","","","","","","","","","","","f","yesOrNo","","","","5","","","gt","700","","","71","453.6711431702998","210.33"
"","","","","","html-keyboard-response","223","2967612","0.0-20.0-0.23","5eaee5a2b1ad425c2eb0061d","6796e1c0ff24ca17c453c51c","67c718efd2fb57b837e6860f","passed","","","","","","","","","","","","","","","","","ballFalling","604.4000000000001","650.0211431702996","404.58000000000004","11","fallScene","false","","","","","72","",""
"","","","","","html-keyboard-response","224","2968321","0.0-20.0-1.23","5eaee5a2b1ad425c2eb0061d","6796e1c0ff24ca17c453c51c","67c718efd2fb57b837e6860f","passed","","554","","","","","","","","","","","","","","j","yesOrNo","","","","11","","","gt","700","","","72","650.0211431702996","404.58"
"","","","","","html-keyboard-response","225","2969785","0.0-21.0","5eaee5a2b1ad425c2eb0061d","6796e1c0ff24ca17c453c51c","67c718efd2fb57b837e6860f","passed","","1462","","","","","","","","","","","","","<p><span style=""font-size:40px;"">BLOCK 4</span></p><p><span style=""font-size:25px;"">You have <b style=""color: #FF644F;""><strong>3 second(s)</strong></b> to respond to the following trials.</span><br></p><p></p> <!-- Blank line -->
                <p id=""blinking-text"" style=""font-weight; animation: blink 2s infinite;"">Press Space to continue</p>
                <style>
                    @keyframes blink {
                        50% {
                            opacity: 0;
                        }
                    }
                </style></p>"," ","","","","","","","","","","","","","",""
"","","","","","html-keyboard-response","226","2971346","0.0-22.0-0.0","5eaee5a2b1ad425c2eb0061d","6796e1c0ff24ca17c453c51c","67c718efd2fb57b837e6860f","passed","","","","","","","","","","","","","","","","","ballFalling","322.3","296.07114317029976","371.46","3","fallScene","false","","","","","73","",""
"","","","","","html-keyboard-response","227","2974350","0.0-22.0-1.0","5eaee5a2b1ad425c2eb0061d","6796e1c0ff24ca17c453c51c","67c718efd2fb57b837e6860f","passed","","906","","","","","","","","","","","","","","j","yesOrNo","","","","3","","","gt","3000","","","73","296.07114317029976","371.46"
"","","","","","html-keyboard-response","228","2975913","0.0-22.0-0.1","5eaee5a2b1ad425c2eb0061d","6796e1c0ff24ca17c453c51c","67c718efd2fb57b837e6860f","passed","","","","","","","","","","","","","","","","","ballFalling","322.3","379.3711431702997","245.25","1","fallScene","false","","","","","74","",""
"","","","","","html-keyboard-response","229","2978916","0.0-22.0-1.1","5eaee5a2b1ad425c2eb0061d","6796e1c0ff24ca17c453c51c","67c718efd2fb57b837e6860f","passed","","1052","","","","","","","","","","","","","","f","yesOrNo","","","","1","","","lp","3000","","","74","323.3","217.74551669457017"
"","","","","","html-keyboard-response","230","2980579","0.0-22.0-0.2","5eaee5a2b1ad425c2eb0061d","6796e1c0ff24ca17c453c51c","67c718efd2fb57b837e6860f","passed","","","","","","","","","","","","","","","","","ballFalling","500","479.92114317029973","330.87","6","fallScene","true","","","","","75","",""
"","","","","","html-keyboard-response","231","2983584","0.0-22.0-1.2","5eaee5a2b1ad425c2eb0061d","6796e1c0ff24ca17c453c51c","67c718efd2fb57b837e6860f","passed","","811","","","","","","","","","","","","","","f","yesOrNo","","","","6","","","lp","3000","","","75","499","189.92909825697632"
"","","","","","html-keyboard-response","232","2985079","0.0-22.0-0.3","5eaee5a2b1ad425c2eb0061d","6796e1c0ff24ca17c453c51c","67c718efd2fb57b837e6860f","passed","","","","","","","","","","","","","","","","","ballFalling","604.4000000000001","667.6211431702998","201.78","9","fallScene","true","","","","","76","",""
"","","","","","html-keyboard-response","233","2988095","0.0-22.0-1.3","5eaee5a2b1ad425c2eb0061d","6796e1c0ff24ca17c453c51c","67c718efd2fb57b837e6860f","passed","","1342","","","","","","","","","","","","","","f","yesOrNo","","","","9","","","mid","3000","","","76","605.4000000000001","300"
"","","","","","html-keyboard-response","234","2989879","0.0-22.0-0.4","5eaee5a2b1ad425c2eb0061d","6796e1c0ff24ca17c453c51c","67c718efd2fb57b837e6860f","passed","","","","","","","","","","","","","","","","","ballFalling","322.3","308.07114317029976","253.89","2","fallScene","false","","","","","77","",""
"","","","","","html-keyboard-response","235","2992884","0.0-22.0-1.4","5eaee5a2b1ad425c2eb0061d","6796e1c0ff24ca17c453c51c","67c718efd2fb57b837e6860f","passed","","741","","","","","","","","","","","","","","f","yesOrNo","","","","2","","","mid","3000","","","77","321.3","300"
"","","","","","html-keyboard-response","236","2994895","0.0-22.0-0.5","5eaee5a2b1ad425c2eb0061d","6796e1c0ff24ca17c453c51c","67c718efd2fb57b837e6860f","passed","","","","","","","","","","","","","","","","","ballFalling","500","510.8711431702997","369.03","8","fallScene","true","","","","","78","",""
"","","","","","html-keyboard-response","237","2997911","0.0-22.0-1.5","5eaee5a2b1ad425c2eb0061d","6796e1c0ff24ca17c453c51c","67c718efd2fb57b837e6860f","passed","","702","","","","","","","","","","","","","","f","yesOrNo","","","","8","","","lp","3000","","","78","501","151"
"","","","","","html-keyboard-response","238","2999463","0.0-22.0-0.6","5eaee5a2b1ad425c2eb0061d","6796e1c0ff24ca17c453c51c","67c718efd2fb57b837e6860f","passed","","","","","","","","","","","","","","","","","ballFalling","604.4000000000001","650.0211431702996","404.58000000000004","11","fallScene","true","","","","","79","",""
"","","","","","html-keyboard-response","239","3002478","0.0-22.0-1.6","5eaee5a2b1ad425c2eb0061d","6796e1c0ff24ca17c453c51c","67c718efd2fb57b837e6860f","passed","","2422","","","","","","","","","","","","","","f","yesOrNo","","","","11","","","lp","3000","","","79","605.4000000000001","372.6340973215488"
"","","","","","html-keyboard-response","240","3003962","0.0-22.0-0.7","5eaee5a2b1ad425c2eb0061d","6796e1c0ff24ca17c453c51c","67c718efd2fb57b837e6860f","passed","","","","","","","","","","","","","","","","","ballFalling","604.4000000000001","667.6211431702998","201.78","9","fallScene","true","","","","","80","",""
"","","","","","html-keyboard-response","241","3006972","0.0-22.0-1.7","5eaee5a2b1ad425c2eb0061d","6796e1c0ff24ca17c453c51c","67c718efd2fb57b837e6860f","passed","","1267","","","","","","","","","","","","","","f","yesOrNo","","","","9","","","lp","3000","","","80","605.4000000000001","151"
"","","","","","html-keyboard-response","242","3008979","0.0-22.0-0.8","5eaee5a2b1ad425c2eb0061d","6796e1c0ff24ca17c453c51c","67c718efd2fb57b837e6860f","passed","","","","","","","","","","","","","","","","","ballFalling","604.4000000000001","596.8711431702998","394.5","10","fallScene","true","","","","","81","",""
"","","","","","html-keyboard-response","243","3011995","0.0-22.0-1.8","5eaee5a2b1ad425c2eb0061d","6796e1c0ff24ca17c453c51c","67c718efd2fb57b837e6860f","passed","","1042","","","","","","","","","","","","","","f","yesOrNo","","","","10","","","mid","3000","","","81","536.4288568297004","300"
"","","","","","html-keyboard-response","244","3013779","0.0-22.0-0.9","5eaee5a2b1ad425c2eb0061d","6796e1c0ff24ca17c453c51c","67c718efd2fb57b837e6860f","passed","","","","","","","","","","","","","","","","","ballFalling","322.3","308.07114317029976","253.89","2","fallScene","true","","","","","82","",""
"","","","","","html-keyboard-response","245","3016793","0.0-22.0-1.9","5eaee5a2b1ad425c2eb0061d","6796e1c0ff24ca17c453c51c","67c718efd2fb57b837e6860f","passed","","611","","","","","","","","","","","","","","j","yesOrNo","","","","2","","","gt","3000","","","82","308.07114317029976","253.89"
"","","","","","html-keyboard-response","246","3018362","0.0-22.0-0.10","5eaee5a2b1ad425c2eb0061d","6796e1c0ff24ca17c453c51c","67c718efd2fb57b837e6860f","passed","","","","","","","","","","","","","","","","","ballFalling","500","553.4711431702997","282.51","7","fallScene","true","","","","","83","",""
"","","","","","html-keyboard-response","247","3021375","0.0-22.0-1.10","5eaee5a2b1ad425c2eb0061d","6796e1c0ff24ca17c453c51c","67c718efd2fb57b837e6860f","passed","","1386","","","","","","","","","","","","","","j","yesOrNo","","","","7","","","lp","3000","","","83","501","227.2843295913261"
"","","","","","html-keyboard-response","248","3023379","0.0-22.0-0.11","5eaee5a2b1ad425c2eb0061d","6796e1c0ff24ca17c453c51c","67c718efd2fb57b837e6860f","passed","","","","","","","","","","","","","","","","","ballFalling","500","510.8711431702997","369.03","8","fallScene","false","","","","","84","",""
"","","","","","html-keyboard-response","249","3026388","0.0-22.0-1.11","5eaee5a2b1ad425c2eb0061d","6796e1c0ff24ca17c453c51c","67c718efd2fb57b837e6860f","passed","","721","","","","","","","","","","","","","","f","yesOrNo","","","","8","","","lp","3000","","","84","501","151"
"","","","","","html-keyboard-response","250","3027946","0.0-22.0-0.12","5eaee5a2b1ad425c2eb0061d","6796e1c0ff24ca17c453c51c","67c718efd2fb57b837e6860f","passed","","","","","","","","","","","","","","","","","ballFalling","604.4000000000001","575.4211431702997","266.76","12","fallScene","false","","","","","85","",""
"","","","","","html-keyboard-response","251","3030958","0.0-22.0-1.12","5eaee5a2b1ad425c2eb0061d","6796e1c0ff24ca17c453c51c","67c718efd2fb57b837e6860f","passed","","995","","","","","","","","","","","","","","j","yesOrNo","","","","12","","","gt","3000","","","85","575.4211431702997","266.76"
"","","","","","html-keyboard-response","252","3032512","0.0-22.0-0.13","5eaee5a2b1ad425c2eb0061d","6796e1c0ff24ca17c453c51c","67c718efd2fb57b837e6860f","passed","","","","","","","","","","","","","","","","","ballFalling","322.3","296.07114317029976","371.46","3","fallScene","false","","","","","86","",""
"","","","","","html-keyboard-response","253","3035528","0.0-22.0-1.13","5eaee5a2b1ad425c2eb0061d","6796e1c0ff24ca17c453c51c","67c718efd2fb57b837e6860f","passed","","1268","","","","","","","","","","","","","","f","yesOrNo","","","","3","","","lp","3000","","","86","321.3","287.3327096511259"
"","","","","","html-keyboard-response","254","3037529","0.0-22.0-0.14","5eaee5a2b1ad425c2eb0061d","6796e1c0ff24ca17c453c51c","67c718efd2fb57b837e6860f","passed","","","","","","","","","","","","","","","","","ballFalling","604.4000000000001","596.8711431702998","394.5","10","fallScene","true","","","","","87","",""
"","","","","","html-keyboard-response","255","3040544","0.0-22.0-1.14","5eaee5a2b1ad425c2eb0061d","6796e1c0ff24ca17c453c51c","67c718efd2fb57b837e6860f","passed","","1540","","","","","","","","","","","","","","j","yesOrNo","","","","10","","","gt","3000","","","87","596.8711431702998","394.5"
"","","","","","html-keyboard-response","256","3042545","0.0-22.0-0.15","5eaee5a2b1ad425c2eb0061d","6796e1c0ff24ca17c453c51c","67c718efd2fb57b837e6860f","passed","","","","","","","","","","","","","","","","","ballFalling","500","510.8711431702997","369.03","8","fallScene","true","","","","","88","",""
"","","","","","html-keyboard-response","257","3045553","0.0-22.0-1.15","5eaee5a2b1ad425c2eb0061d","6796e1c0ff24ca17c453c51c","67c718efd2fb57b837e6860f","passed","","883","","","","","","","","","","","","","","j","yesOrNo","","","","8","","","gt","3000","","","88","510.8711431702997","369.03"
"","","","","","html-keyboard-response","258","3047045","0.0-22.0-0.16","5eaee5a2b1ad425c2eb0061d","6796e1c0ff24ca17c453c51c","67c718efd2fb57b837e6860f","passed","","","","","","","","","","","","","","","","","ballFalling","604.4000000000001","667.6211431702998","201.78","9","fallScene","false","","","","","89","",""
"","","","","","html-keyboard-response","259","3050061","0.0-22.0-1.16","5eaee5a2b1ad425c2eb0061d","6796e1c0ff24ca17c453c51c","67c718efd2fb57b837e6860f","passed","","975","","","","","","","","","","","","","","f","yesOrNo","","","","9","","","lp","3000","","","89","605.4000000000001","151"
"","","","","","html-keyboard-response","260","3051628","0.0-22.0-0.17","5eaee5a2b1ad425c2eb0061d","6796e1c0ff24ca17c453c51c","67c718efd2fb57b837e6860f","passed","","","","","","","","","","","","","","","","","ballFalling","500","553.4711431702997","282.51","7","fallScene","true","","","","","90","",""
"","","","","","html-keyboard-response","261","3054643","0.0-22.0-1.17","5eaee5a2b1ad425c2eb0061d","6796e1c0ff24ca17c453c51c","67c718efd2fb57b837e6860f","passed","","1114","","","","","","","","","","","","","","j","yesOrNo","","","","7","","","gt","3000","","","90","553.4711431702997","282.51"
"","","","","","html-keyboard-response","262","3056645","0.0-22.0-0.18","5eaee5a2b1ad425c2eb0061d","6796e1c0ff24ca17c453c51c","67c718efd2fb57b837e6860f","passed","","","","","","","","","","","","","","","","","ballFalling","500","510.8711431702997","369.03","8","fallScene","false","","","","","91","",""
"","","","","","html-keyboard-response","263","3059660","0.0-22.0-1.18","5eaee5a2b1ad425c2eb0061d","6796e1c0ff24ca17c453c51c","67c718efd2fb57b837e6860f","passed","","848","","","","","","","","","","","","","","j","yesOrNo","","","","8","","","gt","3000","","","91","510.8711431702997","369.03"
"","","","","","html-keyboard-response","264","3061212","0.0-22.0-0.19","5eaee5a2b1ad425c2eb0061d","6796e1c0ff24ca17c453c51c","67c718efd2fb57b837e6860f","passed","","","","","","","","","","","","","","","","","ballFalling","604.4000000000001","575.4211431702997","266.76","12","fallScene","true","","","","","92","",""
"","","","","","html-keyboard-response","265","3064219","0.0-22.0-1.19","5eaee5a2b1ad425c2eb0061d","6796e1c0ff24ca17c453c51c","67c718efd2fb57b837e6860f","passed","","872","","","","","","","","","","","","","","f","yesOrNo","","","","12","","","lp","3000","","","92","603.4000000000001","151"
"","","","","","html-keyboard-response","266","3065778","0.0-22.0-0.20","5eaee5a2b1ad425c2eb0061d","6796e1c0ff24ca17c453c51c","67c718efd2fb57b837e6860f","passed","","","","","","","","","","","","","","","","","ballFalling","322.3","356.42114317029973","357.87","4","fallScene","false","","","","","93","",""
"","","","","","html-keyboard-response","267","3068787","0.0-22.0-1.20","5eaee5a2b1ad425c2eb0061d","6796e1c0ff24ca17c453c51c","67c718efd2fb57b837e6860f","passed","","933","","","","","","","","","","","","","","j","yesOrNo","","","","4","","","lp","3000","","","93","323.3","297.4070551689986"
"","","","","","html-keyboard-response","268","3070345","0.0-22.0-0.21","5eaee5a2b1ad425c2eb0061d","6796e1c0ff24ca17c453c51c","67c718efd2fb57b837e6860f","passed","","","","","","","","","","","","","","","","","ballFalling","322.3","356.42114317029973","357.87","4","fallScene","true","","","","","94","",""
"","","","","","html-keyboard-response","269","3073351","0.0-22.0-1.21","5eaee5a2b1ad425c2eb0061d","6796e1c0ff24ca17c453c51c","67c718efd2fb57b837e6860f","passed","","780","","","","","","","","","","","","","","j","yesOrNo","","","","4","","","gt","3000","","","94","356.42114317029973","357.87"
"","","","","","html-keyboard-response","270","3074912","0.0-22.0-0.22","5eaee5a2b1ad425c2eb0061d","6796e1c0ff24ca17c453c51c","67c718efd2fb57b837e6860f","passed","","","","","","","","","","","","","","","","","ballFalling","604.4000000000001","650.0211431702996","404.58000000000004","11","fallScene","false","","","","","95","",""
"","","","","","html-keyboard-response","271","3077919","0.0-22.0-1.22","5eaee5a2b1ad425c2eb0061d","6796e1c0ff24ca17c453c51c","67c718efd2fb57b837e6860f","passed","","1124","","","","","","","","","","","","","","j","yesOrNo","","","","11","","","mid","3000","","","95","605.4000000000001","300"
"","","","","","html-keyboard-response","272","3079478","0.0-22.0-0.23","5eaee5a2b1ad425c2eb0061d","6796e1c0ff24ca17c453c51c","67c718efd2fb57b837e6860f","passed","","","","","","","","","","","","","","","","","ballFalling","322.3","296.07114317029976","371.46","3","fallScene","true","","","","","96","",""
"","","","","","html-keyboard-response","273","3082494","0.0-22.0-1.23","5eaee5a2b1ad425c2eb0061d","6796e1c0ff24ca17c453c51c","67c718efd2fb57b837e6860f","passed","","742","","","","","","","","","","","","","","j","yesOrNo","","","","3","","","gt","3000","","","96","296.07114317029976","371.46"
"","","","","","html-keyboard-response","274","3084143","0.0-23.0","5eaee5a2b1ad425c2eb0061d","6796e1c0ff24ca17c453c51c","67c718efd2fb57b837e6860f","passed","","1648","","","","","","","","","","","","","<p><span style=""font-size:40px;"">BLOCK 5</span></p><p><span style=""font-size:25px;"">You have <b style=""color: #FF644F;""><strong>0.7 second(s)</strong></b> to respond to the following trials.</span><br></p><p></p> <!-- Blank line -->
                <p id=""blinking-text"" style=""font-weight; animation: blink 2s infinite;"">Press Space to continue</p>
                <style>
                    @keyframes blink {
                        50% {
                            opacity: 0;
                        }
                    }
                </style></p>"," ","","","","","","","","","","","","","",""
"","","","","","html-keyboard-response","275","3085695","0.0-24.0-0.0","5eaee5a2b1ad425c2eb0061d","6796e1c0ff24ca17c453c51c","67c718efd2fb57b837e6860f","passed","","","","","","","","","","","","","","","","","ballFalling","322.3","296.07114317029976","371.46","3","fallScene","false","","","","","97","",""
"","","","","","html-keyboard-response","276","3086400","0.0-24.0-1.0","5eaee5a2b1ad425c2eb0061d","6796e1c0ff24ca17c453c51c","67c718efd2fb57b837e6860f","passed","","614","","","","","","","","","","","","","","j","yesOrNo","","","","3","","","mid","700","","","97","321.3","300"
"","","","","","html-keyboard-response","277","3087961","0.0-24.0-0.1","5eaee5a2b1ad425c2eb0061d","6796e1c0ff24ca17c453c51c","67c718efd2fb57b837e6860f","passed","","","","","","","","","","","","","","","","","ballFalling","604.4000000000001","650.0211431702996","404.58000000000004","11","fallScene","true","","","","","98","",""
"","","","","","html-keyboard-response","278","3088663","0.0-24.0-1.1","5eaee5a2b1ad425c2eb0061d","6796e1c0ff24ca17c453c51c","67c718efd2fb57b837e6860f","passed","","580","","","","","","","","","","","","","","j","yesOrNo","","","","11","","","gt","700","","","98","650.0211431702996","404.58"
"","","","","","html-keyboard-response","279","3090228","0.0-24.0-0.2","5eaee5a2b1ad425c2eb0061d","6796e1c0ff24ca17c453c51c","67c718efd2fb57b837e6860f","passed","","","","","","","","","","","","","","","","","ballFalling","322.3","356.42114317029973","357.87","4","fallScene","false","","","","","99","",""
"","","","","","html-keyboard-response","280","3090935","0.0-24.0-1.2","5eaee5a2b1ad425c2eb0061d","6796e1c0ff24ca17c453c51c","67c718efd2fb57b837e6860f","passed","","369","","","","","","","","","","","","","","f","yesOrNo","","","","4","","","mid","700","","","99","390.27114317029975","300"
"","","","","","html-keyboard-response","281","3092495","0.0-24.0-0.3","5eaee5a2b1ad425c2eb0061d","6796e1c0ff24ca17c453c51c","67c718efd2fb57b837e6860f","passed","","","","","","","","","","","","","","","","","ballFalling","322.3","379.3711431702997","245.25","1","fallScene","false","","","","","100","",""
"","","","","","html-keyboard-response","282","3093199","0.0-24.0-1.3","5eaee5a2b1ad425c2eb0061d","6796e1c0ff24ca17c453c51c","67c718efd2fb57b837e6860f","passed","","630","","","","","","","","","","","","","","j","yesOrNo","","","","1","","","gt","700","","","100","379.3711431702997","245.25"
"","","","","","html-keyboard-response","283","3094778","0.0-24.0-0.4","5eaee5a2b1ad425c2eb0061d","6796e1c0ff24ca17c453c51c","67c718efd2fb57b837e6860f","passed","","","","","","","","","","","","","","","","","ballFalling","500","553.4711431702997","282.51","7","fallScene","false","","","","","101","",""
"","","","","","html-keyboard-response","284","3095488","0.0-24.0-1.4","5eaee5a2b1ad425c2eb0061d","6796e1c0ff24ca17c453c51c","67c718efd2fb57b837e6860f","passed","","498","","","","","","","","","","","","","","j","yesOrNo","","","","7","","","mid","700","","","101","501","300"
"","","","","","html-keyboard-response","285","3097495","0.0-24.0-0.5","5eaee5a2b1ad425c2eb0061d","6796e1c0ff24ca17c453c51c","67c718efd2fb57b837e6860f","passed","","","","","","","","","","","","","","","","","ballFalling","500","510.8711431702997","369.03","8","fallScene","true","","","","","102","",""
"","","","","","html-keyboard-response","286","3098210","0.0-24.0-1.5","5eaee5a2b1ad425c2eb0061d","6796e1c0ff24ca17c453c51c","67c718efd2fb57b837e6860f","passed","","null","","","","","","","","","","","","","","null","yesOrNo","","","","8","","","mid","700","","","102","501","300"
"","","","","","html-keyboard-response","287","3100211","0.0-24.0-0.6","5eaee5a2b1ad425c2eb0061d","6796e1c0ff24ca17c453c51c","67c718efd2fb57b837e6860f","passed","","","","","","","","","","","","","","","","","ballFalling","604.4000000000001","596.8711431702998","394.5","10","fallScene","false","","","","","103","",""
"","","","","","html-keyboard-response","288","3100923","0.0-24.0-1.6","5eaee5a2b1ad425c2eb0061d","6796e1c0ff24ca17c453c51c","67c718efd2fb57b837e6860f","passed","","467","","","","","","","","","","","","","","j","yesOrNo","","","","10","","","mid","700","","","103","536.4288568297004","300"
"","","","","","html-keyboard-response","289","3102479","0.0-24.0-0.7","5eaee5a2b1ad425c2eb0061d","6796e1c0ff24ca17c453c51c","67c718efd2fb57b837e6860f","passed","","","","","","","","","","","","","","","","","ballFalling","604.4000000000001","575.4211431702997","266.76","12","fallScene","false","","","","","104","",""
"","","","","","html-keyboard-response","290","3103186","0.0-24.0-1.7","5eaee5a2b1ad425c2eb0061d","6796e1c0ff24ca17c453c51c","67c718efd2fb57b837e6860f","passed","","677","","","","","","","","","","","","","","j","yesOrNo","","","","12","","","gt","700","","","104","575.4211431702997","266.76"
"","","","","","html-keyboard-response","291","3104678","0.0-24.0-0.8","5eaee5a2b1ad425c2eb0061d","6796e1c0ff24ca17c453c51c","67c718efd2fb57b837e6860f","passed","","","","","","","","","","","","","","","","","ballFalling","604.4000000000001","667.6211431702998","201.78","9","fallScene","false","","","","","105","",""
"","","","","","html-keyboard-response","292","3105394","0.0-24.0-1.8","5eaee5a2b1ad425c2eb0061d","6796e1c0ff24ca17c453c51c","67c718efd2fb57b837e6860f","passed","","null","","","","","","","","","","","","","","null","yesOrNo","","","","9","","","mid","700","","","105","605.4000000000001","300"
"","","","","","html-keyboard-response","293","3106961","0.0-24.0-0.9","5eaee5a2b1ad425c2eb0061d","6796e1c0ff24ca17c453c51c","67c718efd2fb57b837e6860f","passed","","","","","","","","","","","","","","","","","ballFalling","500","553.4711431702997","282.51","7","fallScene","false","","","","","106","",""
"","","","","","html-keyboard-response","294","3107668","0.0-24.0-1.9","5eaee5a2b1ad425c2eb0061d","6796e1c0ff24ca17c453c51c","67c718efd2fb57b837e6860f","passed","","523","","","","","","","","","","","","","","f","yesOrNo","","","","7","","","gt","700","","","106","553.4711431702997","282.51"
"","","","","","html-keyboard-response","295","3109244","0.0-24.0-0.10","5eaee5a2b1ad425c2eb0061d","6796e1c0ff24ca17c453c51c","67c718efd2fb57b837e6860f","passed","","","","","","","","","","","","","","","","","ballFalling","500","553.4711431702997","282.51","7","fallScene","true","","","","","107","",""
"","","","","","html-keyboard-response","296","3109948","0.0-24.0-1.10","5eaee5a2b1ad425c2eb0061d","6796e1c0ff24ca17c453c51c","67c718efd2fb57b837e6860f","passed","","656","","","","","","","","","","","","","","j","yesOrNo","","","","7","","","mid","700","","","107","501","300"
"","","","","","html-keyboard-response","297","3111961","0.0-24.0-0.11","5eaee5a2b1ad425c2eb0061d","6796e1c0ff24ca17c453c51c","67c718efd2fb57b837e6860f","passed","","","","","","","","","","","","","","","","","ballFalling","604.4000000000001","596.8711431702998","394.5","10","fallScene","true","","","","","108","",""
"","","","","","html-keyboard-response","298","3112677","0.0-24.0-1.11","5eaee5a2b1ad425c2eb0061d","6796e1c0ff24ca17c453c51c","67c718efd2fb57b837e6860f","passed","","634","","","","","","","","","","","","","","f","yesOrNo","","","","10","","","lp","700","","","108","603.4000000000001","215.50214355555383"
"","","","","","html-keyboard-response","299","3114328","0.0-24.0-0.12","5eaee5a2b1ad425c2eb0061d","6796e1c0ff24ca17c453c51c","67c718efd2fb57b837e6860f","passed","","","","","","","","","","","","","","","","","ballFalling","500","479.92114317029973","330.87","6","fallScene","false","","","","","109","",""
