"success","timeout","failed_images","failed_audio","failed_video","trial_type","trial_index","time_elapsed","internal_node_id","subject_id","study_id","session_id","practiceTestResult","view_history","rt","width","height","webaudio","browser","browser_version","mobile","os","fullscreen","vsync_rate","webcam","microphone","url","stimulus","response","task","ball_X","obstacle_groundTruth_x","obstacle_groundTruth_y","stimulus_idx","trial_name","flipped","choice","timeLimit","question_order","comprehensionCheck","currentTrial","obstacle_choice_x","obstacle_choice_y"
"true","false","[]","[]","[]","preload","0","73","0.0-0.0","5fd95f2691ac2024f8a883dd","6796e1c0ff24ca17c453c51c","67c70b634e342d44d3e8c7bd","passed","","","","","","","","","","","","","","","","","","","","","","","","","","","","","",""
"","","","","","instructions","1","8049","0.0-1.0","5fd95f2691ac2024f8a883dd","6796e1c0ff24ca17c453c51c","67c70b634e342d44d3e8c7bd","passed","[{""page_index"":0,""viewing_time"":7975}]","7975","","","","","","","","","","","","","","","","","","","","","","","","","","","",""
"","","","","","browser-check","2","9066","0.0-2.0","5fd95f2691ac2024f8a883dd","6796e1c0ff24ca17c453c51c","67c70b634e342d44d3e8c7bd","passed","","","1470","817","true","safari","18.3.0","false","Mac OS","true","60.61","true","true","","","","","","","","","","","","","","","","",""
"","","","","","external-html","3","14058","0.0-3.0","5fd95f2691ac2024f8a883dd","6796e1c0ff24ca17c453c51c","67c70b634e342d44d3e8c7bd","passed","","4949","","","","","","","","","","","","consent.html","","","","","","","","","","","","","","","",""
"true","","","","","fullscreen","4","15912","0.0-4.0","5fd95f2691ac2024f8a883dd","6796e1c0ff24ca17c453c51c","67c70b634e342d44d3e8c7bd","passed","","1551","","","","","","","","","","","","","","","","","","","","","","","","","","","",""
"","","","","","browser-check","5","16931","0.0-5.0","5fd95f2691ac2024f8a883dd","6796e1c0ff24ca17c453c51c","67c70b634e342d44d3e8c7bd","passed","","","1470","924","true","safari","18.3.0","false","Mac OS","true","59","true","true","","","","","","","","","","","","","","","","",""
"","","","","","html-keyboard-response","6","21194","0.0-6.0","5fd95f2691ac2024f8a883dd","6796e1c0ff24ca17c453c51c","67c70b634e342d44d3e8c7bd","passed","","4262","","","","","","","","","","","","","<p><b>This experiment requires keyboard input.</b></p> 
        <p><b>To ensure your response will be recorded successfully, please press 'Space' to continue.</b></p>
        <p>If you can't proceed, you won't be able to complete this study.</p>
        <p></p> <!-- Blank line -->
        <p id=""blinking-text"" style=""font-weight; animation: blink 2s infinite;"">Press Space to continue</p>
        <style>
            @keyframes blink {
                50% {
                    opacity: 0;
                }
            }
        </style>"," ","","","","","","","","","","","","","",""
"","","","","","html-keyboard-response","7","24770","0.0-7.0","5fd95f2691ac2024f8a883dd","6796e1c0ff24ca17c453c51c","67c70b634e342d44d3e8c7bd","passed","","3565","","","","","","","","","","","","","<p><b>This experiment requires keyboard input.</b></p> 
        <p><b>To ensure your response will be recorded successfully, please press the 'f' key to continue.</b></p>
        <p>If you can't proceed, you won't be able to complete this study.</p>
        <p></p> <!-- Blank line -->
        <p id=""blinking-text"" style=""font-weight; animation: blink 2s infinite;"">Press f to continue</p>
        <style>
            @keyframes blink {
                50% {
                    opacity: 0;
                }
            }
        </style>","f","","","","","","","","","","","","","",""
"","","","","","html-keyboard-response","8","27383","0.0-8.0","5fd95f2691ac2024f8a883dd","6796e1c0ff24ca17c453c51c","67c70b634e342d44d3e8c7bd","passed","","2603","","","","","","","","","","","","","<p><b>This experiment requires keyboard input.</b></p> 
        <p><b>To ensure your response will be recorded successfully, please press the 'j' key to continue.</b></p>
        <p>If you can't proceed, you won't be able to complete this study.</p>
        <p></p> <!-- Blank line -->
        <p id=""blinking-text"" style=""font-weight; animation: blink 2s infinite;"">Press j to continue</p>
        <style>
            @keyframes blink {
                50% {
                    opacity: 0;
                }
            }
        </style>","j","","","","","","","","","","","","","",""
"","","","","","browser-check","9","28398","0.0-9.0","5fd95f2691ac2024f8a883dd","6796e1c0ff24ca17c453c51c","67c70b634e342d44d3e8c7bd","passed","","","1470","920","true","safari","18.3.0","false","Mac OS","true","59.76","true","true","","","","","","","","","","","","","","","","",""
"","","","","","survey-text","10","32206","0.0-10.0","5fd95f2691ac2024f8a883dd","6796e1c0ff24ca17c453c51c","67c70b634e342d44d3e8c7bd","passed","","3790","","","","","","","","","","","","","","{""prolificID"":""5fd95f2691ac2024f8a883dd""}","","","","","","","","","","","","","",""
"","","","","","instructions","11","83533","0.0-11.0-0.0-0.0","5fd95f2691ac2024f8a883dd","6796e1c0ff24ca17c453c51c","67c70b634e342d44d3e8c7bd","passed","[{""page_index"":0,""viewing_time"":21832},{""page_index"":1,""viewing_time"":14396},{""page_index"":2,""viewing_time"":9847},{""page_index"":3,""viewing_time"":5251}]","51327","","","","","","","","","","","","","","","","","","","","","","","","","","","",""
"","","","","","html-keyboard-response","12","94928","0.0-11.0-0.0-1.0","5fd95f2691ac2024f8a883dd","6796e1c0ff24ca17c453c51c","67c70b634e342d44d3e8c7bd","passed","","10890","","","","","","","","","","","","","<br>Remember! After a ball falls, the screen will disappear, and you'll decide if the proposed position is where the hidden triangle was. <br>You will now practice this by watching a few videos and making decisions.<p>To respond:<br style=""margin-bottom: 5px; text-indent: -20px; padding-left: 20px;"">- Press <b style=""color: #12AD2B;"">J for Yes</b>, if you think the triangle is in the correct position.<br style=""margin-top: 0; text-indent: -20px; padding-left: 20px;"">- Press <b style=""color: orange;"">F for No</b>, if you think the triangle is not in the correct position.</p><p>In this practice round, there is no time limit. Focus on getting comfortable with the task first.<br>Press either J or F to begin your practice trials.</p><img src = ""YesOrNo_instruction.png"" style=""width: 65%;""></img>","j","","","","","","","","","","","","","",""
"","","","","","html-keyboard-response","13","97031","0.0-11.0-0.0-2.0-0.0","5fd95f2691ac2024f8a883dd","6796e1c0ff24ca17c453c51c","67c70b634e342d44d3e8c7bd","passed","","","","","","","","","","","","","","","","","ballFalling_prac","660","666","350","3","fallScene","false","","","","","","",""
"","","","","","html-keyboard-response","14","99367","0.0-11.0-0.0-2.0-1.0","5fd95f2691ac2024f8a883dd","6796e1c0ff24ca17c453c51c","67c70b634e342d44d3e8c7bd","passed","","2332","","","","","","","","","","","","","","j","yesOrNo_prac_noTimed","","","","3","","","wrong direction","NA","","","","",""
"","","","","","html-keyboard-response","15","100948","0.0-11.0-0.0-2.0-0.1","5fd95f2691ac2024f8a883dd","6796e1c0ff24ca17c453c51c","67c70b634e342d44d3e8c7bd","passed","","","","","","","","","","","","","","","","","ballFalling_prac","441","414","302","5","fallScene","true","","","","","","",""
"","","","","","html-keyboard-response","16","102502","0.0-11.0-0.0-2.0-1.1","5fd95f2691ac2024f8a883dd","6796e1c0ff24ca17c453c51c","67c70b634e342d44d3e8c7bd","passed","","1553","","","","","","","","","","","","","","j","yesOrNo_prac_noTimed","","","","5","","","close gt","NA","","","","",""
"","","","","","html-keyboard-response","17","104065","0.0-11.0-0.0-2.0-0.2","5fd95f2691ac2024f8a883dd","6796e1c0ff24ca17c453c51c","67c70b634e342d44d3e8c7bd","passed","","","","","","","","","","","","","","","","","ballFalling_prac","416","464","296","1","fallScene","false","","","","","","",""
"","","","","","html-keyboard-response","18","105569","0.0-11.0-0.0-2.0-1.2","5fd95f2691ac2024f8a883dd","6796e1c0ff24ca17c453c51c","67c70b634e342d44d3e8c7bd","passed","","1501","","","","","","","","","","","","","","j","yesOrNo_prac_noTimed","","","","1","","","gt","NA","","","","",""
"","","","","","instructions","19","137498","0.0-11.0-0.0-3.0","5fd95f2691ac2024f8a883dd","6796e1c0ff24ca17c453c51c","67c70b634e342d44d3e8c7bd","passed","[{""page_index"":0,""viewing_time"":13796},{""page_index"":1,""viewing_time"":18131}]","31927","","","","","","","","","","","","","","","","","","","","","","","","","","","",""
"","","","","","html-button-response","20","141761","0.0-11.0-0.0-4.0","5fd95f2691ac2024f8a883dd","6796e1c0ff24ca17c453c51c","67c70b634e342d44d3e8c7bd","passed","","3762","","","","","","","","","","","","","<p>To make sure you understood the task, we just have a <b>brief quiz</b> here.</p><p>If you need to review the instructions, click 'Previous'.</p><p>It's important to understand the task to do the study, so you have to pass the quiz to move to the study.</p>","1","","","","","","","","","","","","","",""
"","","","","","survey-multi-choice","21","153484","0.0-11.0-1.0-0.0","5fd95f2691ac2024f8a883dd","6796e1c0ff24ca17c453c51c","67c70b634e342d44d3e8c7bd","passed","","11720","","","","","","","","","","","","","","{""generalProcedure"":""Watch a video of a ball falling, some of it behind a gray screen. After each video, decide if the triangle is at the spot where the ball hit the triangle behind the screen. There is time limit for the response.""}","","","","","","","","","","[0]","","","",""
"","","","","","survey-multi-choice","22","157252","0.0-11.0-1.0-1.0","5fd95f2691ac2024f8a883dd","6796e1c0ff24ca17c453c51c","67c70b634e342d44d3e8c7bd","passed","","3767","","","","","","","","","","","","","","{""checkBallHitObstacle"":""No.""}","","","","","","","","","","[0]","","","",""
"","","","","","survey-multi-choice","23","160268","0.0-11.0-1.0-2.0","5fd95f2691ac2024f8a883dd","6796e1c0ff24ca17c453c51c","67c70b634e342d44d3e8c7bd","passed","","3014","","","","","","","","","","","","","","{""checkTriangleVisibility"":""No, the triangle is hidden behind the gray screen.""}","","","","","","","","","","[0]","","","",""
"","","","","","survey-multi-choice","24","163519","0.0-11.0-1.0-3.0","5fd95f2691ac2024f8a883dd","6796e1c0ff24ca17c453c51c","67c70b634e342d44d3e8c7bd","passed","","3248","","","","","","","","","","","","","","{""checkTimedResponse"":""Your response will not be recorded, and the trial will move to the next one.""}","","","","","","","","","","[0]","","","",""
"","","","","","survey-multi-choice","25","168535","0.0-11.0-1.0-4.0","5fd95f2691ac2024f8a883dd","6796e1c0ff24ca17c453c51c","67c70b634e342d44d3e8c7bd","passed","","5013","","","","","","","","","","","","","","{""checkTimeBlockNotice"":""At the beginning of each block.""}","","","","","","","","","","[0]","","","",""
"","","","","","survey-multi-choice","26","175903","0.0-11.0-1.0-5.0","5fd95f2691ac2024f8a883dd","6796e1c0ff24ca17c453c51c","67c70b634e342d44d3e8c7bd","passed","","7365","","","","","","","","","","","","","","{""checkTimeBlockSameness"":""Yes, the time limit is the same for all trials within a block.""}","","","","","","","","","","[0]","","","",""
"","","","","","survey-multi-choice","27","187686","0.0-11.0-1.0-6.0","5fd95f2691ac2024f8a883dd","6796e1c0ff24ca17c453c51c","67c70b634e342d44d3e8c7bd","passed","","11781","","","","","","","","","","","","","","{""checkTrianglePrecision"":""No. The proposed purple triangle is not in the correct position because it doesn't match the location of the white triangle exactly.""}","","","","","","","","","","[0]","","","",""
"","","","","","html-button-response","28","189376","0.0-11.0-2.0-0.0","5fd95f2691ac2024f8a883dd","6796e1c0ff24ca17c453c51c","67c70b634e342d44d3e8c7bd","passed","","1679","","","","","","","","","","","","","<p>Oops! You did not pass the quiz.</p><p>You will now repeat the instructions and practice.</p>","0","","","","","","","","","","","failed","","",""
"","","","","","instructions","29","199982","0.0-11.1-0.1-0.1","5fd95f2691ac2024f8a883dd","6796e1c0ff24ca17c453c51c","67c70b634e342d44d3e8c7bd","passed","[{""page_index"":0,""viewing_time"":3439},{""page_index"":1,""viewing_time"":1766},{""page_index"":2,""viewing_time"":2516},{""page_index"":3,""viewing_time"":2883}]","10605","","","","","","","","","","","","","","","","","","","","","","","","","","","",""
"","","","","","html-keyboard-response","30","203890","0.0-11.1-0.1-1.1","5fd95f2691ac2024f8a883dd","6796e1c0ff24ca17c453c51c","67c70b634e342d44d3e8c7bd","passed","","3403","","","","","","","","","","","","","<br>Remember! After a ball falls, the screen will disappear, and you'll decide if the proposed position is where the hidden triangle was. <br>You will now practice this by watching a few videos and making decisions.<p>To respond:<br style=""margin-bottom: 5px; text-indent: -20px; padding-left: 20px;"">- Press <b style=""color: #12AD2B;"">J for Yes</b>, if you think the triangle is in the correct position.<br style=""margin-top: 0; text-indent: -20px; padding-left: 20px;"">- Press <b style=""color: orange;"">F for No</b>, if you think the triangle is not in the correct position.</p><p>In this practice round, there is no time limit. Focus on getting comfortable with the task first.<br>Press either J or F to begin your practice trials.</p><img src = ""YesOrNo_instruction.png"" style=""width: 65%;""></img>","f","","","","","","","","","","","","","",""
"","","","","","html-keyboard-response","31","205997","0.0-11.1-0.1-2.1-0.3","5fd95f2691ac2024f8a883dd","6796e1c0ff24ca17c453c51c","67c70b634e342d44d3e8c7bd","passed","","","","","","","","","","","","","","","","","ballFalling_prac","660","666","350","3","fallScene","false","","","","","","",""
"","","","","","html-keyboard-response","32","207911","0.0-11.1-0.1-2.1-1.3","5fd95f2691ac2024f8a883dd","6796e1c0ff24ca17c453c51c","67c70b634e342d44d3e8c7bd","passed","","1908","","","","","","","","","","","","","","f","yesOrNo_prac_noTimed","","","","3","","","wrong direction","NA","","","","",""
"","","","","","html-keyboard-response","33","209464","0.0-11.1-0.1-2.1-0.4","5fd95f2691ac2024f8a883dd","6796e1c0ff24ca17c453c51c","67c70b634e342d44d3e8c7bd","passed","","","","","","","","","","","","","","","","","ballFalling_prac","416","464","296","1","fallScene","false","","","","","","",""
"","","","","","html-keyboard-response","34","211715","0.0-11.1-0.1-2.1-1.4","5fd95f2691ac2024f8a883dd","6796e1c0ff24ca17c453c51c","67c70b634e342d44d3e8c7bd","passed","","2248","","","","","","","","","","","","","","j","yesOrNo_prac_noTimed","","","","1","","","gt","NA","","","","",""
"","","","","","html-keyboard-response","35","213297","0.0-11.1-0.1-2.1-0.5","5fd95f2691ac2024f8a883dd","6796e1c0ff24ca17c453c51c","67c70b634e342d44d3e8c7bd","passed","","","","","","","","","","","","","","","","","ballFalling_prac","441","414","302","5","fallScene","true","","","","","","",""
"","","","","","html-keyboard-response","36","214439","0.0-11.1-0.1-2.1-1.5","5fd95f2691ac2024f8a883dd","6796e1c0ff24ca17c453c51c","67c70b634e342d44d3e8c7bd","passed","","1139","","","","","","","","","","","","","","j","yesOrNo_prac_noTimed","","","","5","","","close gt","NA","","","","",""
"","","","","","instructions","37","222526","0.0-11.1-0.1-3.1","5fd95f2691ac2024f8a883dd","6796e1c0ff24ca17c453c51c","67c70b634e342d44d3e8c7bd","passed","[{""page_index"":0,""viewing_time"":6661},{""page_index"":1,""viewing_time"":1424}]","8085","","","","","","","","","","","","","","","","","","","","","","","","","","","",""
"","","","","","html-button-response","38","224483","0.0-11.1-0.1-4.1","5fd95f2691ac2024f8a883dd","6796e1c0ff24ca17c453c51c","67c70b634e342d44d3e8c7bd","passed","","1454","","","","","","","","","","","","","<p>To make sure you understood the task, we just have a <b>brief quiz</b> here.</p><p>If you need to review the instructions, click 'Previous'.</p><p>It's important to understand the task to do the study, so you have to pass the quiz to move to the study.</p>","1","","","","","","","","","","","","","",""
"","","","","","survey-multi-choice","39","230969","0.0-11.1-1.1-0.1","5fd95f2691ac2024f8a883dd","6796e1c0ff24ca17c453c51c","67c70b634e342d44d3e8c7bd","passed","","6484","","","","","","","","","","","","","","{""generalProcedure"":""Watch a video of a ball falling, some of it behind a gray screen. After each video, decide if the triangle is at the spot where the ball hit the triangle behind the screen. There is time limit for the response.""}","","","","","","","","","","[0]","","","",""
"","","","","","survey-multi-choice","40","239652","0.0-11.1-1.1-1.1","5fd95f2691ac2024f8a883dd","6796e1c0ff24ca17c453c51c","67c70b634e342d44d3e8c7bd","passed","","8681","","","","","","","","","","","","","","{""checkBallHitObstacle"":""Yes.""}","","","","","","","","","","[0]","","","",""
"","","","","","survey-multi-choice","41","241822","0.0-11.1-1.1-2.1","5fd95f2691ac2024f8a883dd","6796e1c0ff24ca17c453c51c","67c70b634e342d44d3e8c7bd","passed","","2168","","","","","","","","","","","","","","{""checkTriangleVisibility"":""No, the triangle is hidden behind the gray screen.""}","","","","","","","","","","[0]","","","",""
"","","","","","survey-multi-choice","42","244322","0.0-11.1-1.1-3.1","5fd95f2691ac2024f8a883dd","6796e1c0ff24ca17c453c51c","67c70b634e342d44d3e8c7bd","passed","","2498","","","","","","","","","","","","","","{""checkTimedResponse"":""Your response will not be recorded, and the trial will move to the next one.""}","","","","","","","","","","[0]","","","",""
"","","","","","survey-multi-choice","43","251072","0.0-11.1-1.1-4.1","5fd95f2691ac2024f8a883dd","6796e1c0ff24ca17c453c51c","67c70b634e342d44d3e8c7bd","passed","","6747","","","","","","","","","","","","","","{""checkTimeBlockNotice"":""At the beginning of each block.""}","","","","","","","","","","[0]","","","",""
"","","","","","survey-multi-choice","44","258119","0.0-11.1-1.1-5.1","5fd95f2691ac2024f8a883dd","6796e1c0ff24ca17c453c51c","67c70b634e342d44d3e8c7bd","passed","","7037","","","","","","","","","","","","","","{""checkTimeBlockSameness"":""Yes, the time limit is the same for all trials within a block.""}","","","","","","","","","","[0]","","","",""
"","","","","","survey-multi-choice","45","263201","0.0-11.1-1.1-6.1","5fd95f2691ac2024f8a883dd","6796e1c0ff24ca17c453c51c","67c70b634e342d44d3e8c7bd","passed","","5072","","","","","","","","","","","","","","{""checkTrianglePrecision"":""No. The proposed purple triangle is not in the correct position because it doesn't match the location of the white triangle exactly.""}","","","","","","","","","","[0]","","","",""
"","","","","","instructions","46","284775","0.0-12.0","5fd95f2691ac2024f8a883dd","6796e1c0ff24ca17c453c51c","67c70b634e342d44d3e8c7bd","passed","[{""page_index"":0,""viewing_time"":2470},{""page_index"":1,""viewing_time"":5484},{""page_index"":2,""viewing_time"":1698},{""page_index"":3,""viewing_time"":2283},{""page_index"":2,""viewing_time"":5512},{""page_index"":3,""viewing_time"":4116}]","21563","","","","","","","","","","","","","","","","","","","","","","","","","","","",""
"","","","","","instructions","47","294201","0.0-13.0-0.0","5fd95f2691ac2024f8a883dd","6796e1c0ff24ca17c453c51c","67c70b634e342d44d3e8c7bd","passed","[{""page_index"":0,""viewing_time"":9424}]","9425","","","","","","","","","","","","","","","","","","","","","","","","","","","",""
"","","","","","html-keyboard-response","48","296504","0.0-13.0-1.0","5fd95f2691ac2024f8a883dd","6796e1c0ff24ca17c453c51c","67c70b634e342d44d3e8c7bd","passed","","2301","","","","","","","","","","","","","<p><span style=""font-size:40px;"">Practice BLOCK 1</span></p><p><span style=""font-size:25px;"">You have <b style=""color: #FF644F;""><strong>3 second(s)</strong></b> to respond to the following trials.</span><br></p><p id=""blinking-text"" style=""font-weight; animation: blink 2s infinite;"">Press Space to continue</p><style>
                    @keyframes blink {
                        50% {
                            opacity: 0;
                        }
                    }
                </style>"," ","","","","","","","","","","","","","",""
"","","","","","html-keyboard-response","49","298080","0.0-13.0-2.0-0.0","5fd95f2691ac2024f8a883dd","6796e1c0ff24ca17c453c51c","67c70b634e342d44d3e8c7bd","passed","","","","","","","","","","","","","","","","","ballFalling_prac","660","610","263","4","fallScene","false","","","","","","",""
"","","","","","html-keyboard-response","50","301087","0.0-13.0-2.0-1.0","5fd95f2691ac2024f8a883dd","6796e1c0ff24ca17c453c51c","67c70b634e342d44d3e8c7bd","passed","","962","","","","","","","","","","","","","","j","yesOrNo_prac","","","","4","","","gt","3000","","","","",""
"","","","","","html-keyboard-response","51","302646","0.0-13.0-2.0-0.1","5fd95f2691ac2024f8a883dd","6796e1c0ff24ca17c453c51c","67c70b634e342d44d3e8c7bd","passed","","","","","","","","","","","","","","","","","ballFalling_prac","584","536","296","1","fallScene","true","","","","","","",""
"","","","","","html-keyboard-response","52","305649","0.0-13.0-2.0-1.1","5fd95f2691ac2024f8a883dd","6796e1c0ff24ca17c453c51c","67c70b634e342d44d3e8c7bd","passed","","868","","","","","","","","","","","","","","f","yesOrNo_prac","","","","1","","","close gt","3000","","","","",""
"","","","","","html-keyboard-response","53","307213","0.0-13.0-2.0-0.2","5fd95f2691ac2024f8a883dd","6796e1c0ff24ca17c453c51c","67c70b634e342d44d3e8c7bd","passed","","","","","","","","","","","","","","","","","ballFalling_prac","416","464","296","1","fallScene","false","","","","","","",""
"","","","","","html-keyboard-response","54","310216","0.0-13.0-2.0-1.2","5fd95f2691ac2024f8a883dd","6796e1c0ff24ca17c453c51c","67c70b634e342d44d3e8c7bd","passed","","864","","","","","","","","","","","","","","j","yesOrNo_prac","","","","1","","","far gt","3000","","","","",""
"","","","","","html-keyboard-response","55","312343","0.0-13.0-3.0","5fd95f2691ac2024f8a883dd","6796e1c0ff24ca17c453c51c","67c70b634e342d44d3e8c7bd","passed","","2125","","","","","","","","","","","","","<p><span style=""font-size:40px;"">Practice BLOCK 2</span></p><p><span style=""font-size:25px;"">You have <b style=""color: #FF644F;""><strong>0.7 second(s)</strong></b> to respond to the following trials.</span><br></p><p id=""blinking-text"" style=""font-weight; animation: blink 2s infinite;"">Press Space to continue</p><style>
                    @keyframes blink {
                        50% {
                            opacity: 0;
                        }
                    }
                </style>"," ","","","","","","","","","","","","","",""
"","","","","","html-keyboard-response","56","314463","0.0-13.0-4.0-0.0","5fd95f2691ac2024f8a883dd","6796e1c0ff24ca17c453c51c","67c70b634e342d44d3e8c7bd","passed","","","","","","","","","","","","","","","","","ballFalling_prac","340","334","350","3","fallScene","true","","","","","","",""
"","","","","","html-keyboard-response","57","315168","0.0-13.0-4.0-1.0","5fd95f2691ac2024f8a883dd","6796e1c0ff24ca17c453c51c","67c70b634e342d44d3e8c7bd","passed","","null","","","","","","","","","","","","","","null","yesOrNo_prac","","","","3","","","close gt","700","","","","",""
"","","","","","html-keyboard-response","58","316730","0.0-13.0-4.0-0.1","5fd95f2691ac2024f8a883dd","6796e1c0ff24ca17c453c51c","67c70b634e342d44d3e8c7bd","passed","","","","","","","","","","","","","","","","","ballFalling_prac","441","500","317","6","fallScene","true","","","","","","",""
"","","","","","html-keyboard-response","59","317432","0.0-13.0-4.0-1.1","5fd95f2691ac2024f8a883dd","6796e1c0ff24ca17c453c51c","67c70b634e342d44d3e8c7bd","passed","","null","","","","","","","","","","","","","","null","yesOrNo_prac","","","","6","","","gt","700","","","","",""
"","","","","","html-keyboard-response","60","319013","0.0-13.0-4.0-0.2","5fd95f2691ac2024f8a883dd","6796e1c0ff24ca17c453c51c","67c70b634e342d44d3e8c7bd","passed","","","","","","","","","","","","","","","","","ballFalling_prac","660","610","263","4","fallScene","false","","","","","","",""
"","","","","","html-keyboard-response","61","319717","0.0-13.0-4.0-1.2","5fd95f2691ac2024f8a883dd","6796e1c0ff24ca17c453c51c","67c70b634e342d44d3e8c7bd","passed","","218","","","","","","","","","","","","","","j","yesOrNo_prac","","","","4","","","far gt","700","","","","",""
"","","","","","instructions","62","325185","0.0-13.0-5.0","5fd95f2691ac2024f8a883dd","6796e1c0ff24ca17c453c51c","67c70b634e342d44d3e8c7bd","passed","[{""page_index"":0,""viewing_time"":5467}]","5468","","","","","","","","","","","","","","","","","","","","","","","","","","","",""
"","","","","","html-keyboard-response","63","327525","0.0-13.0-6.0","5fd95f2691ac2024f8a883dd","6796e1c0ff24ca17c453c51c","67c70b634e342d44d3e8c7bd","passed","","2339","","","","","","","","","","","","","<p><span style=""font-size:40px;"">Practice Test BLOCK 1</span></p><p><span style=""font-size:25px;"">You have <b style=""color: #FF644F;""><strong>0.7 second(s)</strong></b> to respond to the following trials.</span><br></p><p id=""blinking-text"" style=""font-weight; animation: blink 2s infinite;"">Press Space to continue</p><style>
                    @keyframes blink {
                        50% {
                            opacity: 0;
                        }
                    }
                </style>"," ","","","","","","","","","","","","","",""
"","","","","","html-keyboard-response","64","329097","0.0-13.0-7.0-0.0","5fd95f2691ac2024f8a883dd","6796e1c0ff24ca17c453c51c","67c70b634e342d44d3e8c7bd","passed","","","","","","","","","","","","","","","","","ballFalling_prac","340","390","263","4","fallScene","true","","","","","","",""
"","","","","","html-keyboard-response","65","329804","0.0-13.0-7.0-1.0","5fd95f2691ac2024f8a883dd","6796e1c0ff24ca17c453c51c","67c70b634e342d44d3e8c7bd","passed","","null","","","","","","","","","","","","","","null","yesOrNo_prac","","","","4","","","far gt","700","","","","",""
"","","","","","html-keyboard-response","66","331380","0.0-13.0-7.0-0.1","5fd95f2691ac2024f8a883dd","6796e1c0ff24ca17c453c51c","67c70b634e342d44d3e8c7bd","passed","","","","","","","","","","","","","","","","","ballFalling_prac","559","586","302","5","fallScene","false","","","","","","",""
"","","","","","html-keyboard-response","67","332083","0.0-13.0-7.0-1.1","5fd95f2691ac2024f8a883dd","6796e1c0ff24ca17c453c51c","67c70b634e342d44d3e8c7bd","passed","","433","","","","","","","","","","","","","","j","yesOrNo_prac","","","","5","","","gt","700","","","","",""
"","","","","","html-keyboard-response","68","333646","0.0-13.0-7.0-0.2","5fd95f2691ac2024f8a883dd","6796e1c0ff24ca17c453c51c","67c70b634e342d44d3e8c7bd","passed","","","","","","","","","","","","","","","","","ballFalling_prac","441","500","317","6","fallScene","true","","","","","","",""
"","","","","","html-keyboard-response","69","334349","0.0-13.0-7.0-1.2","5fd95f2691ac2024f8a883dd","6796e1c0ff24ca17c453c51c","67c70b634e342d44d3e8c7bd","passed","","411","","","","","","","","","","","","","","j","yesOrNo_prac","","","","6","","","close gt","700","","","","",""
"","","","","","html-keyboard-response","70","336056","0.0-13.0-8.0","5fd95f2691ac2024f8a883dd","6796e1c0ff24ca17c453c51c","67c70b634e342d44d3e8c7bd","passed","","1706","","","","","","","","","","","","","<p><span style=""font-size:40px;"">Practice Test BLOCK 2</span></p><p><span style=""font-size:25px;"">You have <b style=""color: #FF644F;""><strong>3 second(s)</strong></b> to respond to the following trials.</span><br></p><p id=""blinking-text"" style=""font-weight; animation: blink 2s infinite;"">Press Space to continue</p><style>
                    @keyframes blink {
                        50% {
                            opacity: 0;
                        }
                    }
                </style>"," ","","","","","","","","","","","","","",""
"","","","","","html-keyboard-response","71","337630","0.0-13.0-9.0-0.0","5fd95f2691ac2024f8a883dd","6796e1c0ff24ca17c453c51c","67c70b634e342d44d3e8c7bd","passed","","","","","","","","","","","","","","","","","ballFalling_prac","559","586","302","5","fallScene","false","","","","","","",""
"","","","","","html-keyboard-response","72","340633","0.0-13.0-9.0-1.0","5fd95f2691ac2024f8a883dd","6796e1c0ff24ca17c453c51c","67c70b634e342d44d3e8c7bd","passed","","1071","","","","","","","","","","","","","","j","yesOrNo_prac","","","","5","","","far gt","3000","","","","",""
"","","","","","html-keyboard-response","73","342213","0.0-13.0-9.0-0.1","5fd95f2691ac2024f8a883dd","6796e1c0ff24ca17c453c51c","67c70b634e342d44d3e8c7bd","passed","","","","","","","","","","","","","","","","","ballFalling_prac","416","365","249","2","fallScene","false","","","","","","",""
"","","","","","html-keyboard-response","74","345216","0.0-13.0-9.0-1.1","5fd95f2691ac2024f8a883dd","6796e1c0ff24ca17c453c51c","67c70b634e342d44d3e8c7bd","passed","","856","","","","","","","","","","","","","","j","yesOrNo_prac","","","","2","","","gt","3000","","","","",""
"","","","","","html-keyboard-response","75","346796","0.0-13.0-9.0-0.2","5fd95f2691ac2024f8a883dd","6796e1c0ff24ca17c453c51c","67c70b634e342d44d3e8c7bd","passed","","","","","","","","","","","","","","","","","ballFalling_prac","340","390","263","4","fallScene","true","","","","","","",""
"","","","","","html-keyboard-response","76","349799","0.0-13.0-9.0-1.2","5fd95f2691ac2024f8a883dd","6796e1c0ff24ca17c453c51c","67c70b634e342d44d3e8c7bd","passed","","643","","","","","","","","","","","","","","j","yesOrNo_prac","","","","4","","","close gt","3000","","","","",""
"","","","","","instructions","77","354216","0.0-14.0","5fd95f2691ac2024f8a883dd","6796e1c0ff24ca17c453c51c","67c70b634e342d44d3e8c7bd","passed","[{""page_index"":0,""viewing_time"":4414}]","4414","","","","","","","","","","","","","","","","","","","","","","","","","","","",""
"","","","","","html-keyboard-response","78","357463","0.0-15.0","5fd95f2691ac2024f8a883dd","6796e1c0ff24ca17c453c51c","67c70b634e342d44d3e8c7bd","passed","","3245","","","","","","","","","","","","","<p><span style=""font-size:40px;"">BLOCK 1</span></p><p><span style=""font-size:25px;"">You have <b style=""color: #FF644F;""><strong>3 second(s)</strong></b> to respond to the following trials.</span><br></p><p></p> <!-- Blank line -->
                <p id=""blinking-text"" style=""font-weight; animation: blink 2s infinite;"">Press Space to continue</p>
                <style>
                    @keyframes blink {
                        50% {
                            opacity: 0;
                        }
                    }
                </style></p>"," ","","","","","","","","","","","","","",""
"","","","","","html-keyboard-response","79","359030","0.0-16.0-0.0","5fd95f2691ac2024f8a883dd","6796e1c0ff24ca17c453c51c","67c70b634e342d44d3e8c7bd","passed","","","","","","","","","","","","","","","","","ballFalling","500","453.67114317029973","210.33","5","fallScene","true","","","","","1","",""
"","","","","","html-keyboard-response","80","362037","0.0-16.0-1.0","5fd95f2691ac2024f8a883dd","6796e1c0ff24ca17c453c51c","67c70b634e342d44d3e8c7bd","passed","","1139","","","","","","","","","","","","","","f","yesOrNo","","","","5","","","lp","3000","","","1","499","151"
"","","","","","html-keyboard-response","81","364047","0.0-16.0-0.1","5fd95f2691ac2024f8a883dd","6796e1c0ff24ca17c453c51c","67c70b634e342d44d3e8c7bd","passed","","","","","","","","","","","","","","","","","ballFalling","500","510.8711431702997","369.03","8","fallScene","true","","","","","2","",""
"","","","","","html-keyboard-response","82","367051","0.0-16.0-1.1","5fd95f2691ac2024f8a883dd","6796e1c0ff24ca17c453c51c","67c70b634e342d44d3e8c7bd","passed","","1120","","","","","","","","","","","","","","j","yesOrNo","","","","8","","","mid","3000","","","2","501","300"
"","","","","","html-keyboard-response","83","368546","0.0-16.0-0.2","5fd95f2691ac2024f8a883dd","6796e1c0ff24ca17c453c51c","67c70b634e342d44d3e8c7bd","passed","","","","","","","","","","","","","","","","","ballFalling","604.4000000000001","667.6211431702998","201.78","9","fallScene","false","","","","","3","",""
"","","","","","html-keyboard-response","84","371549","0.0-16.0-1.2","5fd95f2691ac2024f8a883dd","6796e1c0ff24ca17c453c51c","67c70b634e342d44d3e8c7bd","passed","","836","","","","","","","","","","","","","","f","yesOrNo","","","","9","","","lp","3000","","","3","605.4000000000001","151"
"","","","","","html-keyboard-response","85","373113","0.0-16.0-0.3","5fd95f2691ac2024f8a883dd","6796e1c0ff24ca17c453c51c","67c70b634e342d44d3e8c7bd","passed","","","","","","","","","","","","","","","","","ballFalling","322.3","379.3711431702997","245.25","1","fallScene","false","","","","","4","",""
"","","","","","html-keyboard-response","86","376116","0.0-16.0-1.3","5fd95f2691ac2024f8a883dd","6796e1c0ff24ca17c453c51c","67c70b634e342d44d3e8c7bd","passed","","972","","","","","","","","","","","","","","f","yesOrNo","","","","1","","","gt","3000","","","4","379.3711431702997","245.25"
"","","","","","html-keyboard-response","87","377679","0.0-16.0-0.4","5fd95f2691ac2024f8a883dd","6796e1c0ff24ca17c453c51c","67c70b634e342d44d3e8c7bd","passed","","","","","","","","","","","","","","","","","ballFalling","322.3","296.07114317029976","371.46","3","fallScene","true","","","","","5","",""
"","","","","","html-keyboard-response","88","380683","0.0-16.0-1.4","5fd95f2691ac2024f8a883dd","6796e1c0ff24ca17c453c51c","67c70b634e342d44d3e8c7bd","passed","","425","","","","","","","","","","","","","","j","yesOrNo","","","","3","","","lp","3000","","","5","321.3","287.3327096511259"
"","","","","","html-keyboard-response","89","382246","0.0-16.0-0.5","5fd95f2691ac2024f8a883dd","6796e1c0ff24ca17c453c51c","67c70b634e342d44d3e8c7bd","passed","","","","","","","","","","","","","","","","","ballFalling","322.3","356.42114317029973","357.87","4","fallScene","false","","","","","6","",""
"","","","","","html-keyboard-response","90","385248","0.0-16.0-1.5","5fd95f2691ac2024f8a883dd","6796e1c0ff24ca17c453c51c","67c70b634e342d44d3e8c7bd","passed","","986","","","","","","","","","","","","","","f","yesOrNo","","","","4","","","gt","3000","","","6","356.42114317029973","357.87"
"","","","","","html-keyboard-response","91","386813","0.0-16.0-0.6","5fd95f2691ac2024f8a883dd","6796e1c0ff24ca17c453c51c","67c70b634e342d44d3e8c7bd","passed","","","","","","","","","","","","","","","","","ballFalling","322.3","379.3711431702997","245.25","1","fallScene","true","","","","","7","",""
"","","","","","html-keyboard-response","92","389817","0.0-16.0-1.6","5fd95f2691ac2024f8a883dd","6796e1c0ff24ca17c453c51c","67c70b634e342d44d3e8c7bd","passed","","792","","","","","","","","","","","","","","f","yesOrNo","","","","1","","","lp","3000","","","7","323.3","217.74551669457017"
"","","","","","html-keyboard-response","93","391396","0.0-16.0-0.7","5fd95f2691ac2024f8a883dd","6796e1c0ff24ca17c453c51c","67c70b634e342d44d3e8c7bd","passed","","","","","","","","","","","","","","","","","ballFalling","500","553.4711431702997","282.51","7","fallScene","false","","","","","8","",""
"","","","","","html-keyboard-response","94","394400","0.0-16.0-1.7","5fd95f2691ac2024f8a883dd","6796e1c0ff24ca17c453c51c","67c70b634e342d44d3e8c7bd","passed","","1366","","","","","","","","","","","","","","j","yesOrNo","","","","7","","","gt","3000","","","8","553.4711431702997","282.51"
"","","","","","html-keyboard-response","95","395962","0.0-16.0-0.8","5fd95f2691ac2024f8a883dd","6796e1c0ff24ca17c453c51c","67c70b634e342d44d3e8c7bd","passed","","","","","","","","","","","","","","","","","ballFalling","604.4000000000001","575.4211431702997","266.76","12","fallScene","true","","","","","9","",""
"","","","","","html-keyboard-response","96","398966","0.0-16.0-1.8","5fd95f2691ac2024f8a883dd","6796e1c0ff24ca17c453c51c","67c70b634e342d44d3e8c7bd","passed","","601","","","","","","","","","","","","","","f","yesOrNo","","","","12","","","lp","3000","","","9","603.4000000000001","151"
"","","","","","html-keyboard-response","97","400529","0.0-16.0-0.9","5fd95f2691ac2024f8a883dd","6796e1c0ff24ca17c453c51c","67c70b634e342d44d3e8c7bd","passed","","","","","","","","","","","","","","","","","ballFalling","322.3","379.3711431702997","245.25","1","fallScene","true","","","","","10","",""
"","","","","","html-keyboard-response","98","403532","0.0-16.0-1.9","5fd95f2691ac2024f8a883dd","6796e1c0ff24ca17c453c51c","67c70b634e342d44d3e8c7bd","passed","","1031","","","","","","","","","","","","","","f","yesOrNo","","","","1","","","mid","3000","","","10","390.27114317029975","300"
"","","","","","html-keyboard-response","99","405096","0.0-16.0-0.10","5fd95f2691ac2024f8a883dd","6796e1c0ff24ca17c453c51c","67c70b634e342d44d3e8c7bd","passed","","","","","","","","","","","","","","","","","ballFalling","604.4000000000001","650.0211431702996","404.58000000000004","11","fallScene","true","","","","","11","",""
"","","","","","html-keyboard-response","100","408099","0.0-16.0-1.10","5fd95f2691ac2024f8a883dd","6796e1c0ff24ca17c453c51c","67c70b634e342d44d3e8c7bd","passed","","1047","","","","","","","","","","","","","","f","yesOrNo","","","","11","","","mid","3000","","","11","605.4000000000001","300"
"","","","","","html-keyboard-response","101","409662","0.0-16.0-0.11","5fd95f2691ac2024f8a883dd","6796e1c0ff24ca17c453c51c","67c70b634e342d44d3e8c7bd","passed","","","","","","","","","","","","","","","","","ballFalling","322.3","379.3711431702997","245.25","1","fallScene","false","","","","","12","",""
"","","","","","html-keyboard-response","102","412666","0.0-16.0-1.11","5fd95f2691ac2024f8a883dd","6796e1c0ff24ca17c453c51c","67c70b634e342d44d3e8c7bd","passed","","602","","","","","","","","","","","","","","f","yesOrNo","","","","1","","","lp","3000","","","12","323.3","217.74551669457017"
"","","","","","html-keyboard-response","103","414229","0.0-16.0-0.12","5fd95f2691ac2024f8a883dd","6796e1c0ff24ca17c453c51c","67c70b634e342d44d3e8c7bd","passed","","","","","","","","","","","","","","","","","ballFalling","604.4000000000001","650.0211431702996","404.58000000000004","11","fallScene","false","","","","","13","",""
"","","","","","html-keyboard-response","104","417233","0.0-16.0-1.12","5fd95f2691ac2024f8a883dd","6796e1c0ff24ca17c453c51c","67c70b634e342d44d3e8c7bd","passed","","1418","","","","","","","","","","","","","","j","yesOrNo","","","","11","","","lp","3000","","","13","605.4000000000001","372.6340973215488"
"","","","","","html-keyboard-response","105","418895","0.0-16.0-0.13","5fd95f2691ac2024f8a883dd","6796e1c0ff24ca17c453c51c","67c70b634e342d44d3e8c7bd","passed","","","","","","","","","","","","","","","","","ballFalling","500","479.92114317029973","330.87","6","fallScene","false","","","","","14","",""
"","","","","","html-keyboard-response","106","421898","0.0-16.0-1.13","5fd95f2691ac2024f8a883dd","6796e1c0ff24ca17c453c51c","67c70b634e342d44d3e8c7bd","passed","","900","","","","","","","","","","","","","","j","yesOrNo","","","","6","","","gt","3000","","","14","479.9211431702998","330.87"
"","","","","","html-keyboard-response","107","423697","0.0-16.0-0.14","5fd95f2691ac2024f8a883dd","6796e1c0ff24ca17c453c51c","67c70b634e342d44d3e8c7bd","passed","","","","","","","","","","","","","","","","","ballFalling","322.3","308.07114317029976","253.89","2","fallScene","true","","","","","15","",""
"","","","","","html-keyboard-response","108","426700","0.0-16.0-1.14","5fd95f2691ac2024f8a883dd","6796e1c0ff24ca17c453c51c","67c70b634e342d44d3e8c7bd","passed","","1050","","","","","","","","","","","","","","f","yesOrNo","","","","2","","","mid","3000","","","15","321.3","300"
"","","","","","html-keyboard-response","109","428712","0.0-16.0-0.15","5fd95f2691ac2024f8a883dd","6796e1c0ff24ca17c453c51c","67c70b634e342d44d3e8c7bd","passed","","","","","","","","","","","","","","","","","ballFalling","500","510.8711431702997","369.03","8","fallScene","false","","","","","16","",""
"","","","","","html-keyboard-response","110","431715","0.0-16.0-1.15","5fd95f2691ac2024f8a883dd","6796e1c0ff24ca17c453c51c","67c70b634e342d44d3e8c7bd","passed","","1026","","","","","","","","","","","","","","f","yesOrNo","","","","8","","","lp","3000","","","16","501","151"
"","","","","","html-keyboard-response","111","433279","0.0-16.0-0.16","5fd95f2691ac2024f8a883dd","6796e1c0ff24ca17c453c51c","67c70b634e342d44d3e8c7bd","passed","","","","","","","","","","","","","","","","","ballFalling","500","453.67114317029973","210.33","5","fallScene","true","","","","","17","",""
"","","","","","html-keyboard-response","112","436282","0.0-16.0-1.16","5fd95f2691ac2024f8a883dd","6796e1c0ff24ca17c453c51c","67c70b634e342d44d3e8c7bd","passed","","1045","","","","","","","","","","","","","","f","yesOrNo","","","","5","","","gt","3000","","","17","453.6711431702998","210.33"
"","","","","","html-keyboard-response","113","438296","0.0-16.0-0.17","5fd95f2691ac2024f8a883dd","6796e1c0ff24ca17c453c51c","67c70b634e342d44d3e8c7bd","passed","","","","","","","","","","","","","","","","","ballFalling","500","510.8711431702997","369.03","8","fallScene","false","","","","","18","",""
"","","","","","html-keyboard-response","114","441299","0.0-16.0-1.17","5fd95f2691ac2024f8a883dd","6796e1c0ff24ca17c453c51c","67c70b634e342d44d3e8c7bd","passed","","1051","","","","","","","","","","","","","","f","yesOrNo","","","","8","","","gt","3000","","","18","510.8711431702997","369.03"
"","","","","","html-keyboard-response","115","442880","0.0-16.0-0.18","5fd95f2691ac2024f8a883dd","6796e1c0ff24ca17c453c51c","67c70b634e342d44d3e8c7bd","passed","","","","","","","","","","","","","","","","","ballFalling","500","553.4711431702997","282.51","7","fallScene","false","","","","","19","",""
"","","","","","html-keyboard-response","116","445883","0.0-16.0-1.18","5fd95f2691ac2024f8a883dd","6796e1c0ff24ca17c453c51c","67c70b634e342d44d3e8c7bd","passed","","1008","","","","","","","","","","","","","","j","yesOrNo","","","","7","","","lp","3000","","","19","501","227.2843295913261"
"","","","","","html-keyboard-response","117","447463","0.0-16.0-0.19","5fd95f2691ac2024f8a883dd","6796e1c0ff24ca17c453c51c","67c70b634e342d44d3e8c7bd","passed","","","","","","","","","","","","","","","","","ballFalling","500","553.4711431702997","282.51","7","fallScene","false","","","","","20","",""
"","","","","","html-keyboard-response","118","450466","0.0-16.0-1.19","5fd95f2691ac2024f8a883dd","6796e1c0ff24ca17c453c51c","67c70b634e342d44d3e8c7bd","passed","","721","","","","","","","","","","","","","","j","yesOrNo","","","","7","","","mid","3000","","","20","501","300"
"","","","","","html-keyboard-response","119","452479","0.0-16.0-0.20","5fd95f2691ac2024f8a883dd","6796e1c0ff24ca17c453c51c","67c70b634e342d44d3e8c7bd","passed","","","","","","","","","","","","","","","","","ballFalling","604.4000000000001","596.8711431702998","394.5","10","fallScene","true","","","","","21","",""
"","","","","","html-keyboard-response","120","455481","0.0-16.0-1.20","5fd95f2691ac2024f8a883dd","6796e1c0ff24ca17c453c51c","67c70b634e342d44d3e8c7bd","passed","","854","","","","","","","","","","","","","","f","yesOrNo","","","","10","","","gt","3000","","","21","596.8711431702998","394.5"
"","","","","","html-keyboard-response","121","457496","0.0-16.0-0.21","5fd95f2691ac2024f8a883dd","6796e1c0ff24ca17c453c51c","67c70b634e342d44d3e8c7bd","passed","","","","","","","","","","","","","","","","","ballFalling","500","510.8711431702997","369.03","8","fallScene","false","","","","","22","",""
"","","","","","html-keyboard-response","122","460499","0.0-16.0-1.21","5fd95f2691ac2024f8a883dd","6796e1c0ff24ca17c453c51c","67c70b634e342d44d3e8c7bd","passed","","1285","","","","","","","","","","","","","","j","yesOrNo","","","","8","","","lp","3000","","","22","501","151"
"","","","","","html-keyboard-response","123","462062","0.0-16.0-0.22","5fd95f2691ac2024f8a883dd","6796e1c0ff24ca17c453c51c","67c70b634e342d44d3e8c7bd","passed","","","","","","","","","","","","","","","","","ballFalling","604.4000000000001","575.4211431702997","266.76","12","fallScene","false","","","","","23","",""
"","","","","","html-keyboard-response","124","465066","0.0-16.0-1.22","5fd95f2691ac2024f8a883dd","6796e1c0ff24ca17c453c51c","67c70b634e342d44d3e8c7bd","passed","","747","","","","","","","","","","","","","","j","yesOrNo","","","","12","","","gt","3000","","","23","575.4211431702997","266.76"
"","","","","","html-keyboard-response","125","466628","0.0-16.0-0.23","5fd95f2691ac2024f8a883dd","6796e1c0ff24ca17c453c51c","67c70b634e342d44d3e8c7bd","passed","","","","","","","","","","","","","","","","","ballFalling","322.3","379.3711431702997","245.25","1","fallScene","true","","","","","24","",""
"","","","","","html-keyboard-response","126","469631","0.0-16.0-1.23","5fd95f2691ac2024f8a883dd","6796e1c0ff24ca17c453c51c","67c70b634e342d44d3e8c7bd","passed","","678","","","","","","","","","","","","","","f","yesOrNo","","","","1","","","mid","3000","","","24","390.27114317029975","300"
"","","","","","html-keyboard-response","127","471376","0.0-17.0","5fd95f2691ac2024f8a883dd","6796e1c0ff24ca17c453c51c","67c70b634e342d44d3e8c7bd","passed","","1743","","","","","","","","","","","","","<p><span style=""font-size:40px;"">BLOCK 2</span></p><p><span style=""font-size:25px;"">You have <b style=""color: #FF644F;""><strong>3 second(s)</strong></b> to respond to the following trials.</span><br></p><p></p> <!-- Blank line -->
                <p id=""blinking-text"" style=""font-weight; animation: blink 2s infinite;"">Press Space to continue</p>
                <style>
                    @keyframes blink {
                        50% {
                            opacity: 0;
                        }
                    }
                </style></p>"," ","","","","","","","","","","","","","",""
"","","","","","html-keyboard-response","128","473179","0.0-18.0-0.0","5fd95f2691ac2024f8a883dd","6796e1c0ff24ca17c453c51c","67c70b634e342d44d3e8c7bd","passed","","","","","","","","","","","","","","","","","ballFalling","322.3","308.07114317029976","253.89","2","fallScene","false","","","","","25","",""
"","","","","","html-keyboard-response","129","476182","0.0-18.0-1.0","5fd95f2691ac2024f8a883dd","6796e1c0ff24ca17c453c51c","67c70b634e342d44d3e8c7bd","passed","","814","","","","","","","","","","","","","","f","yesOrNo","","","","2","","","lp","3000","","","25","321.3","151"
"","","","","","html-keyboard-response","130","477746","0.0-18.0-0.1","5fd95f2691ac2024f8a883dd","6796e1c0ff24ca17c453c51c","67c70b634e342d44d3e8c7bd","passed","","","","","","","","","","","","","","","","","ballFalling","604.4000000000001","575.4211431702997","266.76","12","fallScene","false","","","","","26","",""
"","","","","","html-keyboard-response","131","480749","0.0-18.0-1.1","5fd95f2691ac2024f8a883dd","6796e1c0ff24ca17c453c51c","67c70b634e342d44d3e8c7bd","passed","","849","","","","","","","","","","","","","","f","yesOrNo","","","","12","","","mid","3000","","","26","536.4288568297004","300"
"","","","","","html-keyboard-response","132","482329","0.0-18.0-0.2","5fd95f2691ac2024f8a883dd","6796e1c0ff24ca17c453c51c","67c70b634e342d44d3e8c7bd","passed","","","","","","","","","","","","","","","","","ballFalling","500","553.4711431702997","282.51","7","fallScene","false","","","","","27","",""
"","","","","","html-keyboard-response","133","485332","0.0-18.0-1.2","5fd95f2691ac2024f8a883dd","6796e1c0ff24ca17c453c51c","67c70b634e342d44d3e8c7bd","passed","","937","","","","","","","","","","","","","","f","yesOrNo","","","","7","","","gt","3000","","","27","553.4711431702997","282.51"
"","","","","","html-keyboard-response","134","487345","0.0-18.0-0.3","5fd95f2691ac2024f8a883dd","6796e1c0ff24ca17c453c51c","67c70b634e342d44d3e8c7bd","passed","","","","","","","","","","","","","","","","","ballFalling","604.4000000000001","596.8711431702998","394.5","10","fallScene","true","","","","","28","",""
"","","","","","html-keyboard-response","135","490348","0.0-18.0-1.3","5fd95f2691ac2024f8a883dd","6796e1c0ff24ca17c453c51c","67c70b634e342d44d3e8c7bd","passed","","789","","","","","","","","","","","","","","f","yesOrNo","","","","10","","","mid","3000","","","28","536.4288568297004","300"
"","","","","","html-keyboard-response","136","491929","0.0-18.0-0.4","5fd95f2691ac2024f8a883dd","6796e1c0ff24ca17c453c51c","67c70b634e342d44d3e8c7bd","passed","","","","","","","","","","","","","","","","","ballFalling","500","553.4711431702997","282.51","7","fallScene","false","","","","","29","",""
"","","","","","html-keyboard-response","137","494931","0.0-18.0-1.4","5fd95f2691ac2024f8a883dd","6796e1c0ff24ca17c453c51c","67c70b634e342d44d3e8c7bd","passed","","1550","","","","","","","","","","","","","","f","yesOrNo","","","","7","","","lp","3000","","","29","501","227.2843295913261"
"","","","","","html-keyboard-response","138","496495","0.0-18.0-0.5","5fd95f2691ac2024f8a883dd","6796e1c0ff24ca17c453c51c","67c70b634e342d44d3e8c7bd","passed","","","","","","","","","","","","","","","","","ballFalling","322.3","356.42114317029973","357.87","4","fallScene","false","","","","","30","",""
"","","","","","html-keyboard-response","139","499499","0.0-18.0-1.5","5fd95f2691ac2024f8a883dd","6796e1c0ff24ca17c453c51c","67c70b634e342d44d3e8c7bd","passed","","1360","","","","","","","","","","","","","","j","yesOrNo","","","","4","","","mid","3000","","","30","390.27114317029975","300"
"","","","","","html-keyboard-response","140","501062","0.0-18.0-0.6","5fd95f2691ac2024f8a883dd","6796e1c0ff24ca17c453c51c","67c70b634e342d44d3e8c7bd","passed","","","","","","","","","","","","","","","","","ballFalling","604.4000000000001","575.4211431702997","266.76","12","fallScene","true","","","","","31","",""
"","","","","","html-keyboard-response","141","504065","0.0-18.0-1.6","5fd95f2691ac2024f8a883dd","6796e1c0ff24ca17c453c51c","67c70b634e342d44d3e8c7bd","passed","","884","","","","","","","","","","","","","","j","yesOrNo","","","","12","","","gt","3000","","","31","575.4211431702997","266.76"
"","","","","","html-keyboard-response","142","505862","0.0-18.0-0.7","5fd95f2691ac2024f8a883dd","6796e1c0ff24ca17c453c51c","67c70b634e342d44d3e8c7bd","passed","","","","","","","","","","","","","","","","","ballFalling","322.3","308.07114317029976","253.89","2","fallScene","true","","","","","32","",""
"","","","","","html-keyboard-response","143","508866","0.0-18.0-1.7","5fd95f2691ac2024f8a883dd","6796e1c0ff24ca17c453c51c","67c70b634e342d44d3e8c7bd","passed","","789","","","","","","","","","","","","","","j","yesOrNo","","","","2","","","mid","3000","","","32","321.3","300"
"","","","","","html-keyboard-response","144","510879","0.0-18.0-0.8","5fd95f2691ac2024f8a883dd","6796e1c0ff24ca17c453c51c","67c70b634e342d44d3e8c7bd","passed","","","","","","","","","","","","","","","","","ballFalling","500","510.8711431702997","369.03","8","fallScene","false","","","","","33","",""
"","","","","","html-keyboard-response","145","513883","0.0-18.0-1.8","5fd95f2691ac2024f8a883dd","6796e1c0ff24ca17c453c51c","67c70b634e342d44d3e8c7bd","passed","","844","","","","","","","","","","","","","","j","yesOrNo","","","","8","","","mid","3000","","","33","501","300"
"","","","","","html-keyboard-response","146","515896","0.0-18.0-0.9","5fd95f2691ac2024f8a883dd","6796e1c0ff24ca17c453c51c","67c70b634e342d44d3e8c7bd","passed","","","","","","","","","","","","","","","","","ballFalling","604.4000000000001","596.8711431702998","394.5","10","fallScene","false","","","","","34","",""
"","","","","","html-keyboard-response","147","518898","0.0-18.0-1.9","5fd95f2691ac2024f8a883dd","6796e1c0ff24ca17c453c51c","67c70b634e342d44d3e8c7bd","passed","","1076","","","","","","","","","","","","","","f","yesOrNo","","","","10","","","gt","3000","","","34","596.8711431702998","394.5"
"","","","","","html-keyboard-response","148","520462","0.0-18.0-0.10","5fd95f2691ac2024f8a883dd","6796e1c0ff24ca17c453c51c","67c70b634e342d44d3e8c7bd","passed","","","","","","","","","","","","","","","","","ballFalling","604.4000000000001","650.0211431702996","404.58000000000004","11","fallScene","false","","","","","35","",""
"","","","","","html-keyboard-response","149","523468","0.0-18.0-1.10","5fd95f2691ac2024f8a883dd","6796e1c0ff24ca17c453c51c","67c70b634e342d44d3e8c7bd","passed","","785","","","","","","","","","","","","","","j","yesOrNo","","","","11","","","gt","3000","","","35","650.0211431702996","404.58"
"","","","","","html-keyboard-response","150","525045","0.0-18.0-0.11","5fd95f2691ac2024f8a883dd","6796e1c0ff24ca17c453c51c","67c70b634e342d44d3e8c7bd","passed","","","","","","","","","","","","","","","","","ballFalling","500","553.4711431702997","282.51","7","fallScene","true","","","","","36","",""
"","","","","","html-keyboard-response","151","528048","0.0-18.0-1.11","5fd95f2691ac2024f8a883dd","6796e1c0ff24ca17c453c51c","67c70b634e342d44d3e8c7bd","passed","","798","","","","","","","","","","","","","","j","yesOrNo","","","","7","","","mid","3000","","","36","501","300"
"","","","","","html-keyboard-response","152","529612","0.0-18.0-0.12","5fd95f2691ac2024f8a883dd","6796e1c0ff24ca17c453c51c","67c70b634e342d44d3e8c7bd","passed","","","","","","","","","","","","","","","","","ballFalling","604.4000000000001","650.0211431702996","404.58000000000004","11","fallScene","true","","","","","37","",""
"","","","","","html-keyboard-response","153","532615","0.0-18.0-1.12","5fd95f2691ac2024f8a883dd","6796e1c0ff24ca17c453c51c","67c70b634e342d44d3e8c7bd","passed","","1099","","","","","","","","","","","","","","j","yesOrNo","","","","11","","","lp","3000","","","37","605.4000000000001","372.6340973215488"
"","","","","","html-keyboard-response","154","534179","0.0-18.0-0.13","5fd95f2691ac2024f8a883dd","6796e1c0ff24ca17c453c51c","67c70b634e342d44d3e8c7bd","passed","","","","","","","","","","","","","","","","","ballFalling","322.3","296.07114317029976","371.46","3","fallScene","false","","","","","38","",""
"","","","","","html-keyboard-response","155","537182","0.0-18.0-1.13","5fd95f2691ac2024f8a883dd","6796e1c0ff24ca17c453c51c","67c70b634e342d44d3e8c7bd","passed","","705","","","","","","","","","","","","","","j","yesOrNo","","","","3","","","lp","3000","","","38","321.3","287.3327096511259"
"","","","","","html-keyboard-response","156","538746","0.0-18.0-0.14","5fd95f2691ac2024f8a883dd","6796e1c0ff24ca17c453c51c","67c70b634e342d44d3e8c7bd","passed","","","","","","","","","","","","","","","","","ballFalling","604.4000000000001","650.0211431702996","404.58000000000004","11","fallScene","true","","","","","39","",""
"","","","","","html-keyboard-response","157","541748","0.0-18.0-1.14","5fd95f2691ac2024f8a883dd","6796e1c0ff24ca17c453c51c","67c70b634e342d44d3e8c7bd","passed","","632","","","","","","","","","","","","","","f","yesOrNo","","","","11","","","mid","3000","","","39","605.4000000000001","300"
"","","","","","html-keyboard-response","158","543244","0.0-18.0-0.15","5fd95f2691ac2024f8a883dd","6796e1c0ff24ca17c453c51c","67c70b634e342d44d3e8c7bd","passed","","","","","","","","","","","","","","","","","ballFalling","604.4000000000001","667.6211431702998","201.78","9","fallScene","true","","","","","40","",""
"","","","","","html-keyboard-response","159","546248","0.0-18.0-1.15","5fd95f2691ac2024f8a883dd","6796e1c0ff24ca17c453c51c","67c70b634e342d44d3e8c7bd","passed","","785","","","","","","","","","","","","","","j","yesOrNo","","","","9","","","mid","3000","","","40","605.4000000000001","300"
"","","","","","html-keyboard-response","160","547812","0.0-18.0-0.16","5fd95f2691ac2024f8a883dd","6796e1c0ff24ca17c453c51c","67c70b634e342d44d3e8c7bd","passed","","","","","","","","","","","","","","","","","ballFalling","500","453.67114317029973","210.33","5","fallScene","false","","","","","41","",""
"","","","","","html-keyboard-response","161","550815","0.0-18.0-1.16","5fd95f2691ac2024f8a883dd","6796e1c0ff24ca17c453c51c","67c70b634e342d44d3e8c7bd","passed","","499","","","","","","","","","","","","","","j","yesOrNo","","","","5","","","mid","3000","","","41","499","300"
"","","","","","html-keyboard-response","162","552379","0.0-18.0-0.17","5fd95f2691ac2024f8a883dd","6796e1c0ff24ca17c453c51c","67c70b634e342d44d3e8c7bd","passed","","","","","","","","","","","","","","","","","ballFalling","322.3","379.3711431702997","245.25","1","fallScene","false","","","","","42","",""
"","","","","","html-keyboard-response","163","555383","0.0-18.0-1.17","5fd95f2691ac2024f8a883dd","6796e1c0ff24ca17c453c51c","67c70b634e342d44d3e8c7bd","passed","","797","","","","","","","","","","","","","","f","yesOrNo","","","","1","","","gt","3000","","","42","379.3711431702997","245.25"
"","","","","","html-keyboard-response","164","556879","0.0-18.0-0.18","5fd95f2691ac2024f8a883dd","6796e1c0ff24ca17c453c51c","67c70b634e342d44d3e8c7bd","passed","","","","","","","","","","","","","","","","","ballFalling","604.4000000000001","667.6211431702998","201.78","9","fallScene","false","","","","","43","",""
"","","","","","html-keyboard-response","165","559884","0.0-18.0-1.18","5fd95f2691ac2024f8a883dd","6796e1c0ff24ca17c453c51c","67c70b634e342d44d3e8c7bd","passed","","1023","","","","","","","","","","","","","","j","yesOrNo","","","","9","","","gt","3000","","","43","667.6211431702998","201.78"
"","","","","","html-keyboard-response","166","561445","0.0-18.0-0.19","5fd95f2691ac2024f8a883dd","6796e1c0ff24ca17c453c51c","67c70b634e342d44d3e8c7bd","passed","","","","","","","","","","","","","","","","","ballFalling","322.3","296.07114317029976","371.46","3","fallScene","true","","","","","44","",""
"","","","","","html-keyboard-response","167","564448","0.0-18.0-1.19","5fd95f2691ac2024f8a883dd","6796e1c0ff24ca17c453c51c","67c70b634e342d44d3e8c7bd","passed","","953","","","","","","","","","","","","","","f","yesOrNo","","","","3","","","mid","3000","","","44","321.3","300"
"","","","","","html-keyboard-response","168","566012","0.0-18.0-0.20","5fd95f2691ac2024f8a883dd","6796e1c0ff24ca17c453c51c","67c70b634e342d44d3e8c7bd","passed","","","","","","","","","","","","","","","","","ballFalling","322.3","356.42114317029973","357.87","4","fallScene","true","","","","","45","",""
"","","","","","html-keyboard-response","169","569015","0.0-18.0-1.20","5fd95f2691ac2024f8a883dd","6796e1c0ff24ca17c453c51c","67c70b634e342d44d3e8c7bd","passed","","785","","","","","","","","","","","","","","f","yesOrNo","","","","4","","","lp","3000","","","45","323.3","297.4070551689986"
"","","","","","html-keyboard-response","170","570579","0.0-18.0-0.21","5fd95f2691ac2024f8a883dd","6796e1c0ff24ca17c453c51c","67c70b634e342d44d3e8c7bd","passed","","","","","","","","","","","","","","","","","ballFalling","322.3","356.42114317029973","357.87","4","fallScene","false","","","","","46","",""
"","","","","","html-keyboard-response","171","573581","0.0-18.0-1.21","5fd95f2691ac2024f8a883dd","6796e1c0ff24ca17c453c51c","67c70b634e342d44d3e8c7bd","passed","","976","","","","","","","","","","","","","","f","yesOrNo","","","","4","","","lp","3000","","","46","323.3","297.4070551689986"
"","","","","","html-keyboard-response","172","575245","0.0-18.0-0.22","5fd95f2691ac2024f8a883dd","6796e1c0ff24ca17c453c51c","67c70b634e342d44d3e8c7bd","passed","","","","","","","","","","","","","","","","","ballFalling","500","479.92114317029973","330.87","6","fallScene","true","","","","","47","",""
"","","","","","html-keyboard-response","173","578248","0.0-18.0-1.22","5fd95f2691ac2024f8a883dd","6796e1c0ff24ca17c453c51c","67c70b634e342d44d3e8c7bd","passed","","1603","","","","","","","","","","","","","","j","yesOrNo","","","","6","","","lp","3000","","","47","499","189.92909825697632"
"","","","","","html-keyboard-response","174","580046","0.0-18.0-0.23","5fd95f2691ac2024f8a883dd","6796e1c0ff24ca17c453c51c","67c70b634e342d44d3e8c7bd","passed","","","","","","","","","","","","","","","","","ballFalling","322.3","308.07114317029976","253.89","2","fallScene","true","","","","","48","",""
"","","","","","html-keyboard-response","175","583050","0.0-18.0-1.23","5fd95f2691ac2024f8a883dd","6796e1c0ff24ca17c453c51c","67c70b634e342d44d3e8c7bd","passed","","705","","","","","","","","","","","","","","j","yesOrNo","","","","2","","","gt","3000","","","48","308.07114317029976","253.89"
"","","","","","html-keyboard-response","176","584418","0.0-19.0","5fd95f2691ac2024f8a883dd","6796e1c0ff24ca17c453c51c","67c70b634e342d44d3e8c7bd","passed","","1366","","","","","","","","","","","","","<p><span style=""font-size:40px;"">BLOCK 3</span></p><p><span style=""font-size:25px;"">You have <b style=""color: #FF644F;""><strong>0.7 second(s)</strong></b> to respond to the following trials.</span><br></p><p></p> <!-- Blank line -->
                <p id=""blinking-text"" style=""font-weight; animation: blink 2s infinite;"">Press Space to continue</p>
                <style>
                    @keyframes blink {
                        50% {
                            opacity: 0;
                        }
                    }
                </style></p>"," ","","","","","","","","","","","","","",""
"","","","","","html-keyboard-response","177","585995","0.0-20.0-0.0","5fd95f2691ac2024f8a883dd","6796e1c0ff24ca17c453c51c","67c70b634e342d44d3e8c7bd","passed","","","","","","","","","","","","","","","","","ballFalling","500","553.4711431702997","282.51","7","fallScene","false","","","","","49","",""
"","","","","","html-keyboard-response","178","586699","0.0-20.0-1.0","5fd95f2691ac2024f8a883dd","6796e1c0ff24ca17c453c51c","67c70b634e342d44d3e8c7bd","passed","","423","","","","","","","","","","","","","","f","yesOrNo","","","","7","","","lp","700","","","49","501","227.2843295913261"
"","","","","","html-keyboard-response","179","588195","0.0-20.0-0.1","5fd95f2691ac2024f8a883dd","6796e1c0ff24ca17c453c51c","67c70b634e342d44d3e8c7bd","passed","","","","","","","","","","","","","","","","","ballFalling","604.4000000000001","667.6211431702998","201.78","9","fallScene","false","","","","","50","",""
"","","","","","html-keyboard-response","180","588898","0.0-20.0-1.1","5fd95f2691ac2024f8a883dd","6796e1c0ff24ca17c453c51c","67c70b634e342d44d3e8c7bd","passed","","492","","","","","","","","","","","","","","j","yesOrNo","","","","9","","","lp","700","","","50","605.4000000000001","151"
"","","","","","html-keyboard-response","181","590912","0.0-20.0-0.2","5fd95f2691ac2024f8a883dd","6796e1c0ff24ca17c453c51c","67c70b634e342d44d3e8c7bd","passed","","","","","","","","","","","","","","","","","ballFalling","500","510.8711431702997","369.03","8","fallScene","true","","","","","51","",""
"","","","","","html-keyboard-response","182","591617","0.0-20.0-1.2","5fd95f2691ac2024f8a883dd","6796e1c0ff24ca17c453c51c","67c70b634e342d44d3e8c7bd","passed","","451","","","","","","","","","","","","","","j","yesOrNo","","","","8","","","lp","700","","","51","501","151"
"","","","","","html-keyboard-response","183","593112","0.0-20.0-0.3","5fd95f2691ac2024f8a883dd","6796e1c0ff24ca17c453c51c","67c70b634e342d44d3e8c7bd","passed","","","","","","","","","","","","","","","","","ballFalling","604.4000000000001","667.6211431702998","201.78","9","fallScene","false","","","","","52","",""
"","","","","","html-keyboard-response","184","593815","0.0-20.0-1.3","5fd95f2691ac2024f8a883dd","6796e1c0ff24ca17c453c51c","67c70b634e342d44d3e8c7bd","passed","","519","","","","","","","","","","","","","","f","yesOrNo","","","","9","","","gt","700","","","52","667.6211431702998","201.78"
"","","","","","html-keyboard-response","185","595379","0.0-20.0-0.4","5fd95f2691ac2024f8a883dd","6796e1c0ff24ca17c453c51c","67c70b634e342d44d3e8c7bd","passed","","","","","","","","","","","","","","","","","ballFalling","322.3","356.42114317029973","357.87","4","fallScene","false","","","","","53","",""
"","","","","","html-keyboard-response","186","596082","0.0-20.0-1.4","5fd95f2691ac2024f8a883dd","6796e1c0ff24ca17c453c51c","67c70b634e342d44d3e8c7bd","passed","","552","","","","","","","","","","","","","","j","yesOrNo","","","","4","","","mid","700","","","53","390.27114317029975","300"
"","","","","","html-keyboard-response","187","597644","0.0-20.0-0.5","5fd95f2691ac2024f8a883dd","6796e1c0ff24ca17c453c51c","67c70b634e342d44d3e8c7bd","passed","","","","","","","","","","","","","","","","","ballFalling","604.4000000000001","650.0211431702996","404.58000000000004","11","fallScene","false","","","","","54","",""
"","","","","","html-keyboard-response","188","598346","0.0-20.0-1.5","5fd95f2691ac2024f8a883dd","6796e1c0ff24ca17c453c51c","67c70b634e342d44d3e8c7bd","passed","","400","","","","","","","","","","","","","","f","yesOrNo","","","","11","","","lp","700","","","54","605.4000000000001","372.6340973215488"
"","","","","","html-keyboard-response","189","600145","0.0-20.0-0.6","5fd95f2691ac2024f8a883dd","6796e1c0ff24ca17c453c51c","67c70b634e342d44d3e8c7bd","passed","","","","","","","","","","","","","","","","","ballFalling","322.3","308.07114317029976","253.89","2","fallScene","true","","","","","55","",""
"","","","","","html-keyboard-response","190","600848","0.0-20.0-1.6","5fd95f2691ac2024f8a883dd","6796e1c0ff24ca17c453c51c","67c70b634e342d44d3e8c7bd","passed","","null","","","","","","","","","","","","","","null","yesOrNo","","","","2","","","lp","700","","","55","321.3","151"
"","","","","","html-keyboard-response","191","602645","0.0-20.0-0.7","5fd95f2691ac2024f8a883dd","6796e1c0ff24ca17c453c51c","67c70b634e342d44d3e8c7bd","passed","","","","","","","","","","","","","","","","","ballFalling","322.3","308.07114317029976","253.89","2","fallScene","false","","","","","56","",""
"","","","","","html-keyboard-response","192","603347","0.0-20.0-1.7","5fd95f2691ac2024f8a883dd","6796e1c0ff24ca17c453c51c","67c70b634e342d44d3e8c7bd","passed","","null","","","","","","","","","","","","","","null","yesOrNo","","","","2","","","lp","700","","","56","321.3","151"
"","","","","","html-keyboard-response","193","604912","0.0-20.0-0.8","5fd95f2691ac2024f8a883dd","6796e1c0ff24ca17c453c51c","67c70b634e342d44d3e8c7bd","passed","","","","","","","","","","","","","","","","","ballFalling","604.4000000000001","575.4211431702997","266.76","12","fallScene","true","","","","","57","",""
"","","","","","html-keyboard-response","194","605614","0.0-20.0-1.8","5fd95f2691ac2024f8a883dd","6796e1c0ff24ca17c453c51c","67c70b634e342d44d3e8c7bd","passed","","483","","","","","","","","","","","","","","f","yesOrNo","","","","12","","","mid","700","","","57","536.4288568297004","300"
"","","","","","html-keyboard-response","195","607178","0.0-20.0-0.9","5fd95f2691ac2024f8a883dd","6796e1c0ff24ca17c453c51c","67c70b634e342d44d3e8c7bd","passed","","","","","","","","","","","","","","","","","ballFalling","604.4000000000001","575.4211431702997","266.76","12","fallScene","true","","","","","58","",""
"","","","","","html-keyboard-response","196","607881","0.0-20.0-1.9","5fd95f2691ac2024f8a883dd","6796e1c0ff24ca17c453c51c","67c70b634e342d44d3e8c7bd","passed","","400","","","","","","","","","","","","","","j","yesOrNo","","","","12","","","lp","700","","","58","603.4000000000001","151"
"","","","","","html-keyboard-response","197","609445","0.0-20.0-0.10","5fd95f2691ac2024f8a883dd","6796e1c0ff24ca17c453c51c","67c70b634e342d44d3e8c7bd","passed","","","","","","","","","","","","","","","","","ballFalling","500","453.67114317029973","210.33","5","fallScene","true","","","","","59","",""
"","","","","","html-keyboard-response","198","610151","0.0-20.0-1.10","5fd95f2691ac2024f8a883dd","6796e1c0ff24ca17c453c51c","67c70b634e342d44d3e8c7bd","passed","","365","","","","","","","","","","","","","","f","yesOrNo","","","","5","","","gt","700","","","59","453.6711431702998","210.33"
"","","","","","html-keyboard-response","199","611711","0.0-20.0-0.11","5fd95f2691ac2024f8a883dd","6796e1c0ff24ca17c453c51c","67c70b634e342d44d3e8c7bd","passed","","","","","","","","","","","","","","","","","ballFalling","322.3","296.07114317029976","371.46","3","fallScene","true","","","","","60","",""
"","","","","","html-keyboard-response","200","612414","0.0-20.0-1.11","5fd95f2691ac2024f8a883dd","6796e1c0ff24ca17c453c51c","67c70b634e342d44d3e8c7bd","passed","","539","","","","","","","","","","","","","","j","yesOrNo","","","","3","","","mid","700","","","60","321.3","300"
"","","","","","html-keyboard-response","201","614428","0.0-20.0-0.12","5fd95f2691ac2024f8a883dd","6796e1c0ff24ca17c453c51c","67c70b634e342d44d3e8c7bd","passed","","","","","","","","","","","","","","","","","ballFalling","604.4000000000001","596.8711431702998","394.5","10","fallScene","true","","","","","61","",""
"","","","","","html-keyboard-response","202","615130","0.0-20.0-1.12","5fd95f2691ac2024f8a883dd","6796e1c0ff24ca17c453c51c","67c70b634e342d44d3e8c7bd","passed","","283","","","","","","","","","","","","","","j","yesOrNo","","","","10","","","lp","700","","","61","603.4000000000001","215.50214355555383"
"","","","","","html-keyboard-response","203","617145","0.0-20.0-0.13","5fd95f2691ac2024f8a883dd","6796e1c0ff24ca17c453c51c","67c70b634e342d44d3e8c7bd","passed","","","","","","","","","","","","","","","","","ballFalling","604.4000000000001","596.8711431702998","394.5","10","fallScene","true","","","","","62","",""
"","","","","","html-keyboard-response","204","617848","0.0-20.0-1.13","5fd95f2691ac2024f8a883dd","6796e1c0ff24ca17c453c51c","67c70b634e342d44d3e8c7bd","passed","","383","","","","","","","","","","","","","","j","yesOrNo","","","","10","","","mid","700","","","62","536.4288568297004","300"
"","","","","","html-keyboard-response","205","619344","0.0-20.0-0.14","5fd95f2691ac2024f8a883dd","6796e1c0ff24ca17c453c51c","67c70b634e342d44d3e8c7bd","passed","","","","","","","","","","","","","","","","","ballFalling","604.4000000000001","667.6211431702998","201.78","9","fallScene","false","","","","","63","",""
"","","","","","html-keyboard-response","206","620047","0.0-20.0-1.14","5fd95f2691ac2024f8a883dd","6796e1c0ff24ca17c453c51c","67c70b634e342d44d3e8c7bd","passed","","516","","","","","","","","","","","","","","f","yesOrNo","","","","9","","","mid","700","","","63","605.4000000000001","300"
"","","","","","html-keyboard-response","207","621612","0.0-20.0-0.15","5fd95f2691ac2024f8a883dd","6796e1c0ff24ca17c453c51c","67c70b634e342d44d3e8c7bd","passed","","","","","","","","","","","","","","","","","ballFalling","500","453.67114317029973","210.33","5","fallScene","false","","","","","64","",""
"","","","","","html-keyboard-response","208","622314","0.0-20.0-1.15","5fd95f2691ac2024f8a883dd","6796e1c0ff24ca17c453c51c","67c70b634e342d44d3e8c7bd","passed","","533","","","","","","","","","","","","","","j","yesOrNo","","","","5","","","mid","700","","","64","499","300"
"","","","","","html-keyboard-response","209","624111","0.0-20.0-0.16","5fd95f2691ac2024f8a883dd","6796e1c0ff24ca17c453c51c","67c70b634e342d44d3e8c7bd","passed","","","","","","","","","","","","","","","","","ballFalling","322.3","308.07114317029976","253.89","2","fallScene","true","","","","","65","",""
"","","","","","html-keyboard-response","210","624814","0.0-20.0-1.16","5fd95f2691ac2024f8a883dd","6796e1c0ff24ca17c453c51c","67c70b634e342d44d3e8c7bd","passed","","535","","","","","","","","","","","","","","j","yesOrNo","","","","2","","","mid","700","","","65","321.3","300"
"","","","","","html-keyboard-response","211","626378","0.0-20.0-0.17","5fd95f2691ac2024f8a883dd","6796e1c0ff24ca17c453c51c","67c70b634e342d44d3e8c7bd","passed","","","","","","","","","","","","","","","","","ballFalling","322.3","296.07114317029976","371.46","3","fallScene","false","","","","","66","",""
"","","","","","html-keyboard-response","212","627081","0.0-20.0-1.17","5fd95f2691ac2024f8a883dd","6796e1c0ff24ca17c453c51c","67c70b634e342d44d3e8c7bd","passed","","468","","","","","","","","","","","","","","f","yesOrNo","","","","3","","","gt","700","","","66","296.07114317029976","371.46"
"","","","","","html-keyboard-response","213","628645","0.0-20.0-0.18","5fd95f2691ac2024f8a883dd","6796e1c0ff24ca17c453c51c","67c70b634e342d44d3e8c7bd","passed","","","","","","","","","","","","","","","","","ballFalling","604.4000000000001","650.0211431702996","404.58000000000004","11","fallScene","true","","","","","67","",""
"","","","","","html-keyboard-response","214","629350","0.0-20.0-1.18","5fd95f2691ac2024f8a883dd","6796e1c0ff24ca17c453c51c","67c70b634e342d44d3e8c7bd","passed","","647","","","","","","","","","","","","","","f","yesOrNo","","","","11","","","mid","700","","","67","605.4000000000001","300"
"","","","","","html-keyboard-response","215","630845","0.0-20.0-0.19","5fd95f2691ac2024f8a883dd","6796e1c0ff24ca17c453c51c","67c70b634e342d44d3e8c7bd","passed","","","","","","","","","","","","","","","","","ballFalling","604.4000000000001","667.6211431702998","201.78","9","fallScene","false","","","","","68","",""
"","","","","","html-keyboard-response","216","631548","0.0-20.0-1.19","5fd95f2691ac2024f8a883dd","6796e1c0ff24ca17c453c51c","67c70b634e342d44d3e8c7bd","passed","","null","","","","","","","","","","","","","","null","yesOrNo","","","","9","","","lp","700","","","68","605.4000000000001","151"
"","","","","","html-keyboard-response","217","633111","0.0-20.0-0.20","5fd95f2691ac2024f8a883dd","6796e1c0ff24ca17c453c51c","67c70b634e342d44d3e8c7bd","passed","","","","","","","","","","","","","","","","","ballFalling","322.3","356.42114317029973","357.87","4","fallScene","false","","","","","69","",""
"","","","","","html-keyboard-response","218","633814","0.0-20.0-1.20","5fd95f2691ac2024f8a883dd","6796e1c0ff24ca17c453c51c","67c70b634e342d44d3e8c7bd","passed","","348","","","","","","","","","","","","","","j","yesOrNo","","","","4","","","lp","700","","","69","323.3","297.4070551689986"
"","","","","","html-keyboard-response","219","635611","0.0-20.0-0.21","5fd95f2691ac2024f8a883dd","6796e1c0ff24ca17c453c51c","67c70b634e342d44d3e8c7bd","passed","","","","","","","","","","","","","","","","","ballFalling","322.3","308.07114317029976","253.89","2","fallScene","false","","","","","70","",""
"","","","","","html-keyboard-response","220","636314","0.0-20.0-1.21","5fd95f2691ac2024f8a883dd","6796e1c0ff24ca17c453c51c","67c70b634e342d44d3e8c7bd","passed","","451","","","","","","","","","","","","","","f","yesOrNo","","","","2","","","mid","700","","","70","321.3","300"
"","","","","","html-keyboard-response","221","637895","0.0-20.0-0.22","5fd95f2691ac2024f8a883dd","6796e1c0ff24ca17c453c51c","67c70b634e342d44d3e8c7bd","passed","","","","","","","","","","","","","","","","","ballFalling","500","553.4711431702997","282.51","7","fallScene","true","","","","","71","",""
"","","","","","html-keyboard-response","222","638598","0.0-20.0-1.22","5fd95f2691ac2024f8a883dd","6796e1c0ff24ca17c453c51c","67c70b634e342d44d3e8c7bd","passed","","418","","","","","","","","","","","","","","j","yesOrNo","","","","7","","","mid","700","","","71","501","300"
"","","","","","html-keyboard-response","223","640177","0.0-20.0-0.23","5fd95f2691ac2024f8a883dd","6796e1c0ff24ca17c453c51c","67c70b634e342d44d3e8c7bd","passed","","","","","","","","","","","","","","","","","ballFalling","500","553.4711431702997","282.51","7","fallScene","false","","","","","72","",""
"","","","","","html-keyboard-response","224","640880","0.0-20.0-1.23","5fd95f2691ac2024f8a883dd","6796e1c0ff24ca17c453c51c","67c70b634e342d44d3e8c7bd","passed","","301","","","","","","","","","","","","","","j","yesOrNo","","","","7","","","lp","700","","","72","501","227.2843295913261"
"","","","","","html-keyboard-response","225","641789","0.0-21.0","5fd95f2691ac2024f8a883dd","6796e1c0ff24ca17c453c51c","67c70b634e342d44d3e8c7bd","passed","","908","","","","","","","","","","","","","<p><span style=""font-size:40px;"">BLOCK 4</span></p><p><span style=""font-size:25px;"">You have <b style=""color: #FF644F;""><strong>0.7 second(s)</strong></b> to respond to the following trials.</span><br></p><p></p> <!-- Blank line -->
                <p id=""blinking-text"" style=""font-weight; animation: blink 2s infinite;"">Press Space to continue</p>
                <style>
                    @keyframes blink {
                        50% {
                            opacity: 0;
                        }
                    }
                </style></p>"," ","","","","","","","","","","","","","",""
"","","","","","html-keyboard-response","226","643345","0.0-22.0-0.0","5fd95f2691ac2024f8a883dd","6796e1c0ff24ca17c453c51c","67c70b634e342d44d3e8c7bd","passed","","","","","","","","","","","","","","","","","ballFalling","322.3","356.42114317029973","357.87","4","fallScene","false","","","","","73","",""
"","","","","","html-keyboard-response","227","644048","0.0-22.0-1.0","5fd95f2691ac2024f8a883dd","6796e1c0ff24ca17c453c51c","67c70b634e342d44d3e8c7bd","passed","","464","","","","","","","","","","","","","","j","yesOrNo","","","","4","","","lp","700","","","73","323.3","297.4070551689986"
"","","","","","html-keyboard-response","228","646061","0.0-22.0-0.1","5fd95f2691ac2024f8a883dd","6796e1c0ff24ca17c453c51c","67c70b634e342d44d3e8c7bd","passed","","","","","","","","","","","","","","","","","ballFalling","604.4000000000001","596.8711431702998","394.5","10","fallScene","false","","","","","74","",""
"","","","","","html-keyboard-response","229","646765","0.0-22.0-1.1","5fd95f2691ac2024f8a883dd","6796e1c0ff24ca17c453c51c","67c70b634e342d44d3e8c7bd","passed","","156","","","","","","","","","","","","","","j","yesOrNo","","","","10","","","gt","700","","","74","596.8711431702998","394.5"
"","","","","","html-keyboard-response","230","648328","0.0-22.0-0.2","5fd95f2691ac2024f8a883dd","6796e1c0ff24ca17c453c51c","67c70b634e342d44d3e8c7bd","passed","","","","","","","","","","","","","","","","","ballFalling","322.3","379.3711431702997","245.25","1","fallScene","true","","","","","75","",""
"","","","","","html-keyboard-response","231","649030","0.0-22.0-1.2","5fd95f2691ac2024f8a883dd","6796e1c0ff24ca17c453c51c","67c70b634e342d44d3e8c7bd","passed","","91","","","","","","","","","","","","","","j","yesOrNo","","","","1","","","lp","700","","","75","323.3","217.74551669457017"
"","","","","","html-keyboard-response","232","650594","0.0-22.0-0.3","5fd95f2691ac2024f8a883dd","6796e1c0ff24ca17c453c51c","67c70b634e342d44d3e8c7bd","passed","","","","","","","","","","","","","","","","","ballFalling","500","453.67114317029973","210.33","5","fallScene","true","","","","","76","",""
"","","","","","html-keyboard-response","233","651297","0.0-22.0-1.3","5fd95f2691ac2024f8a883dd","6796e1c0ff24ca17c453c51c","67c70b634e342d44d3e8c7bd","passed","","398","","","","","","","","","","","","","","j","yesOrNo","","","","5","","","mid","700","","","76","499","300"
"","","","","","html-keyboard-response","234","652961","0.0-22.0-0.4","5fd95f2691ac2024f8a883dd","6796e1c0ff24ca17c453c51c","67c70b634e342d44d3e8c7bd","passed","","","","","","","","","","","","","","","","","ballFalling","500","479.92114317029973","330.87","6","fallScene","true","","","","","77","",""
"","","","","","html-keyboard-response","235","653664","0.0-22.0-1.4","5fd95f2691ac2024f8a883dd","6796e1c0ff24ca17c453c51c","67c70b634e342d44d3e8c7bd","passed","","534","","","","","","","","","","","","","","j","yesOrNo","","","","6","","","mid","700","","","77","499","300"
"","","","","","html-keyboard-response","236","655461","0.0-22.0-0.5","5fd95f2691ac2024f8a883dd","6796e1c0ff24ca17c453c51c","67c70b634e342d44d3e8c7bd","passed","","","","","","","","","","","","","","","","","ballFalling","322.3","308.07114317029976","253.89","2","fallScene","false","","","","","78","",""
"","","","","","html-keyboard-response","237","656164","0.0-22.0-1.5","5fd95f2691ac2024f8a883dd","6796e1c0ff24ca17c453c51c","67c70b634e342d44d3e8c7bd","passed","","385","","","","","","","","","","","","","","j","yesOrNo","","","","2","","","gt","700","","","78","308.07114317029976","253.89"
"","","","","","html-keyboard-response","238","657729","0.0-22.0-0.6","5fd95f2691ac2024f8a883dd","6796e1c0ff24ca17c453c51c","67c70b634e342d44d3e8c7bd","passed","","","","","","","","","","","","","","","","","ballFalling","322.3","379.3711431702997","245.25","1","fallScene","true","","","","","79","",""
"","","","","","html-keyboard-response","239","658433","0.0-22.0-1.6","5fd95f2691ac2024f8a883dd","6796e1c0ff24ca17c453c51c","67c70b634e342d44d3e8c7bd","passed","","366","","","","","","","","","","","","","","j","yesOrNo","","","","1","","","gt","700","","","79","379.3711431702997","245.25"
"","","","","","html-keyboard-response","240","659994","0.0-22.0-0.7","5fd95f2691ac2024f8a883dd","6796e1c0ff24ca17c453c51c","67c70b634e342d44d3e8c7bd","passed","","","","","","","","","","","","","","","","","ballFalling","604.4000000000001","650.0211431702996","404.58000000000004","11","fallScene","true","","","","","80","",""
"","","","","","html-keyboard-response","241","660697","0.0-22.0-1.7","5fd95f2691ac2024f8a883dd","6796e1c0ff24ca17c453c51c","67c70b634e342d44d3e8c7bd","passed","","508","","","","","","","","","","","","","","j","yesOrNo","","","","11","","","lp","700","","","80","605.4000000000001","372.6340973215488"
"","","","","","html-keyboard-response","242","662261","0.0-22.0-0.8","5fd95f2691ac2024f8a883dd","6796e1c0ff24ca17c453c51c","67c70b634e342d44d3e8c7bd","passed","","","","","","","","","","","","","","","","","ballFalling","322.3","356.42114317029973","357.87","4","fallScene","true","","","","","81","",""
"","","","","","html-keyboard-response","243","662965","0.0-22.0-1.8","5fd95f2691ac2024f8a883dd","6796e1c0ff24ca17c453c51c","67c70b634e342d44d3e8c7bd","passed","","362","","","","","","","","","","","","","","j","yesOrNo","","","","4","","","gt","700","","","81","356.42114317029973","357.87"
"","","","","","html-keyboard-response","244","664978","0.0-22.0-0.9","5fd95f2691ac2024f8a883dd","6796e1c0ff24ca17c453c51c","67c70b634e342d44d3e8c7bd","passed","","","","","","","","","","","","","","","","","ballFalling","604.4000000000001","596.8711431702998","394.5","10","fallScene","false","","","","","82","",""
"","","","","","html-keyboard-response","245","665680","0.0-22.0-1.9","5fd95f2691ac2024f8a883dd","6796e1c0ff24ca17c453c51c","67c70b634e342d44d3e8c7bd","passed","","602","","","","","","","","","","","","","","f","yesOrNo","","","","10","","","lp","700","","","82","603.4000000000001","215.50214355555383"
"","","","","","html-keyboard-response","246","667245","0.0-22.0-0.10","5fd95f2691ac2024f8a883dd","6796e1c0ff24ca17c453c51c","67c70b634e342d44d3e8c7bd","passed","","","","","","","","","","","","","","","","","ballFalling","322.3","379.3711431702997","245.25","1","fallScene","false","","","","","83","",""
"","","","","","html-keyboard-response","247","667947","0.0-22.0-1.10","5fd95f2691ac2024f8a883dd","6796e1c0ff24ca17c453c51c","67c70b634e342d44d3e8c7bd","passed","","null","","","","","","","","","","","","","","null","yesOrNo","","","","1","","","mid","700","","","83","390.27114317029975","300"
"","","","","","html-keyboard-response","248","669511","0.0-22.0-0.11","5fd95f2691ac2024f8a883dd","6796e1c0ff24ca17c453c51c","67c70b634e342d44d3e8c7bd","passed","","","","","","","","","","","","","","","","","ballFalling","604.4000000000001","575.4211431702997","266.76","12","fallScene","false","","","","","84","",""
"","","","","","html-keyboard-response","249","670214","0.0-22.0-1.11","5fd95f2691ac2024f8a883dd","6796e1c0ff24ca17c453c51c","67c70b634e342d44d3e8c7bd","passed","","636","","","","","","","","","","","","","","j","yesOrNo","","","","12","","","gt","700","","","84","575.4211431702997","266.76"
"","","","","","html-keyboard-response","250","671778","0.0-22.0-0.12","5fd95f2691ac2024f8a883dd","6796e1c0ff24ca17c453c51c","67c70b634e342d44d3e8c7bd","passed","","","","","","","","","","","","","","","","","ballFalling","604.4000000000001","650.0211431702996","404.58000000000004","11","fallScene","true","","","","","85","",""
"","","","","","html-keyboard-response","251","672480","0.0-22.0-1.12","5fd95f2691ac2024f8a883dd","6796e1c0ff24ca17c453c51c","67c70b634e342d44d3e8c7bd","passed","","595","","","","","","","","","","","","","","f","yesOrNo","","","","11","","","gt","700","","","85","650.0211431702996","404.58"
"","","","","","html-keyboard-response","252","674144","0.0-22.0-0.13","5fd95f2691ac2024f8a883dd","6796e1c0ff24ca17c453c51c","67c70b634e342d44d3e8c7bd","passed","","","","","","","","","","","","","","","","","ballFalling","500","479.92114317029973","330.87","6","fallScene","true","","","","","86","",""
"","","","","","html-keyboard-response","253","674847","0.0-22.0-1.13","5fd95f2691ac2024f8a883dd","6796e1c0ff24ca17c453c51c","67c70b634e342d44d3e8c7bd","passed","","667","","","","","","","","","","","","","","j","yesOrNo","","","","6","","","gt","700","","","86","479.9211431702998","330.87"
"","","","","","html-keyboard-response","254","676411","0.0-22.0-0.14","5fd95f2691ac2024f8a883dd","6796e1c0ff24ca17c453c51c","67c70b634e342d44d3e8c7bd","passed","","","","","","","","","","","","","","","","","ballFalling","604.4000000000001","650.0211431702996","404.58000000000004","11","fallScene","false","","","","","87","",""
"","","","","","html-keyboard-response","255","677114","0.0-22.0-1.14","5fd95f2691ac2024f8a883dd","6796e1c0ff24ca17c453c51c","67c70b634e342d44d3e8c7bd","passed","","366","","","","","","","","","","","","","","j","yesOrNo","","","","11","","","gt","700","","","87","650.0211431702996","404.58"
"","","","","","html-keyboard-response","256","678678","0.0-22.0-0.15","5fd95f2691ac2024f8a883dd","6796e1c0ff24ca17c453c51c","67c70b634e342d44d3e8c7bd","passed","","","","","","","","","","","","","","","","","ballFalling","604.4000000000001","650.0211431702996","404.58000000000004","11","fallScene","true","","","","","88","",""
"","","","","","html-keyboard-response","257","679381","0.0-22.0-1.15","5fd95f2691ac2024f8a883dd","6796e1c0ff24ca17c453c51c","67c70b634e342d44d3e8c7bd","passed","","548","","","","","","","","","","","","","","j","yesOrNo","","","","11","","","mid","700","","","88","605.4000000000001","300"
"","","","","","html-keyboard-response","258","680944","0.0-22.0-0.16","5fd95f2691ac2024f8a883dd","6796e1c0ff24ca17c453c51c","67c70b634e342d44d3e8c7bd","passed","","","","","","","","","","","","","","","","","ballFalling","322.3","296.07114317029976","371.46","3","fallScene","true","","","","","89","",""
"","","","","","html-keyboard-response","259","681647","0.0-22.0-1.16","5fd95f2691ac2024f8a883dd","6796e1c0ff24ca17c453c51c","67c70b634e342d44d3e8c7bd","passed","","null","","","","","","","","","","","","","","null","yesOrNo","","","","3","","","mid","700","","","89","321.3","300"
"","","","","","html-keyboard-response","260","683311","0.0-22.0-0.17","5fd95f2691ac2024f8a883dd","6796e1c0ff24ca17c453c51c","67c70b634e342d44d3e8c7bd","passed","","","","","","","","","","","","","","","","","ballFalling","500","479.92114317029973","330.87","6","fallScene","true","","","","","90","",""
"","","","","","html-keyboard-response","261","684015","0.0-22.0-1.17","5fd95f2691ac2024f8a883dd","6796e1c0ff24ca17c453c51c","67c70b634e342d44d3e8c7bd","passed","","519","","","","","","","","","","","","","","f","yesOrNo","","","","6","","","lp","700","","","90","499","189.92909825697632"
"","","","","","html-keyboard-response","262","685811","0.0-22.0-0.18","5fd95f2691ac2024f8a883dd","6796e1c0ff24ca17c453c51c","67c70b634e342d44d3e8c7bd","passed","","","","","","","","","","","","","","","","","ballFalling","322.3","308.07114317029976","253.89","2","fallScene","false","","","","","91","",""
"","","","","","html-keyboard-response","263","686515","0.0-22.0-1.18","5fd95f2691ac2024f8a883dd","6796e1c0ff24ca17c453c51c","67c70b634e342d44d3e8c7bd","passed","","363","","","","","","","","","","","","","","j","yesOrNo","","","","2","","","gt","700","","","91","308.07114317029976","253.89"
"","","","","","html-keyboard-response","264","688078","0.0-22.0-0.19","5fd95f2691ac2024f8a883dd","6796e1c0ff24ca17c453c51c","67c70b634e342d44d3e8c7bd","passed","","","","","","","","","","","","","","","","","ballFalling","322.3","296.07114317029976","371.46","3","fallScene","false","","","","","92","",""
"","","","","","html-keyboard-response","265","688780","0.0-22.0-1.19","5fd95f2691ac2024f8a883dd","6796e1c0ff24ca17c453c51c","67c70b634e342d44d3e8c7bd","passed","","368","","","","","","","","","","","","","","f","yesOrNo","","","","3","","","gt","700","","","92","296.07114317029976","371.46"
"","","","","","html-keyboard-response","266","690345","0.0-22.0-0.20","5fd95f2691ac2024f8a883dd","6796e1c0ff24ca17c453c51c","67c70b634e342d44d3e8c7bd","passed","","","","","","","","","","","","","","","","","ballFalling","322.3","356.42114317029973","357.87","4","fallScene","false","","","","","93","",""
"","","","","","html-keyboard-response","267","691049","0.0-22.0-1.20","5fd95f2691ac2024f8a883dd","6796e1c0ff24ca17c453c51c","67c70b634e342d44d3e8c7bd","passed","","449","","","","","","","","","","","","","","j","yesOrNo","","","","4","","","gt","700","","","93","356.42114317029973","357.87"
"","","","","","html-keyboard-response","268","692611","0.0-22.0-0.21","5fd95f2691ac2024f8a883dd","6796e1c0ff24ca17c453c51c","67c70b634e342d44d3e8c7bd","passed","","","","","","","","","","","","","","","","","ballFalling","500","453.67114317029973","210.33","5","fallScene","false","","","","","94","",""
"","","","","","html-keyboard-response","269","693314","0.0-22.0-1.21","5fd95f2691ac2024f8a883dd","6796e1c0ff24ca17c453c51c","67c70b634e342d44d3e8c7bd","passed","","451","","","","","","","","","","","","","","f","yesOrNo","","","","5","","","lp","700","","","94","499","151"
"","","","","","html-keyboard-response","270","694978","0.0-22.0-0.22","5fd95f2691ac2024f8a883dd","6796e1c0ff24ca17c453c51c","67c70b634e342d44d3e8c7bd","passed","","","","","","","","","","","","","","","","","ballFalling","500","479.92114317029973","330.87","6","fallScene","false","","","","","95","",""
"","","","","","html-keyboard-response","271","695680","0.0-22.0-1.22","5fd95f2691ac2024f8a883dd","6796e1c0ff24ca17c453c51c","67c70b634e342d44d3e8c7bd","passed","","518","","","","","","","","","","","","","","f","yesOrNo","","","","6","","","lp","700","","","95","499","189.92909825697632"
"","","","","","html-keyboard-response","272","697694","0.0-22.0-0.23","5fd95f2691ac2024f8a883dd","6796e1c0ff24ca17c453c51c","67c70b634e342d44d3e8c7bd","passed","","","","","","","","","","","","","","","","","ballFalling","500","510.8711431702997","369.03","8","fallScene","true","","","","","96","",""
"","","","","","html-keyboard-response","273","698398","0.0-22.0-1.23","5fd95f2691ac2024f8a883dd","6796e1c0ff24ca17c453c51c","67c70b634e342d44d3e8c7bd","passed","","442","","","","","","","","","","","","","","f","yesOrNo","","","","8","","","mid","700","","","96","501","300"
"","","","","","html-keyboard-response","274","699478","0.0-23.0","5fd95f2691ac2024f8a883dd","6796e1c0ff24ca17c453c51c","67c70b634e342d44d3e8c7bd","passed","","1078","","","","","","","","","","","","","<p><span style=""font-size:40px;"">BLOCK 5</span></p><p><span style=""font-size:25px;"">You have <b style=""color: #FF644F;""><strong>3 second(s)</strong></b> to respond to the following trials.</span><br></p><p></p> <!-- Blank line -->
                <p id=""blinking-text"" style=""font-weight; animation: blink 2s infinite;"">Press Space to continue</p>
                <style>
                    @keyframes blink {
                        50% {
                            opacity: 0;
                        }
                    }
                </style></p>"," ","","","","","","","","","","","","","",""
"","","","","","html-keyboard-response","275","700978","0.0-24.0-0.0","5fd95f2691ac2024f8a883dd","6796e1c0ff24ca17c453c51c","67c70b634e342d44d3e8c7bd","passed","","","","","","","","","","","","","","","","","ballFalling","604.4000000000001","667.6211431702998","201.78","9","fallScene","false","","","","","97","",""
"","","","","","html-keyboard-response","276","703981","0.0-24.0-1.0","5fd95f2691ac2024f8a883dd","6796e1c0ff24ca17c453c51c","67c70b634e342d44d3e8c7bd","passed","","1751","","","","","","","","","","","","","","j","yesOrNo","","","","9","","","gt","3000","","","97","667.6211431702998","201.78"
"","","","","","html-keyboard-response","277","705994","0.0-24.0-0.1","5fd95f2691ac2024f8a883dd","6796e1c0ff24ca17c453c51c","67c70b634e342d44d3e8c7bd","passed","","","","","","","","","","","","","","","","","ballFalling","500","510.8711431702997","369.03","8","fallScene","false","","","","","98","",""
"","","","","","html-keyboard-response","278","708999","0.0-24.0-1.1","5fd95f2691ac2024f8a883dd","6796e1c0ff24ca17c453c51c","67c70b634e342d44d3e8c7bd","passed","","982","","","","","","","","","","","","","","j","yesOrNo","","","","8","","","gt","3000","","","98","510.8711431702997","369.03"
"","","","","","html-keyboard-response","279","710561","0.0-24.0-0.2","5fd95f2691ac2024f8a883dd","6796e1c0ff24ca17c453c51c","67c70b634e342d44d3e8c7bd","passed","","","","","","","","","","","","","","","","","ballFalling","322.3","296.07114317029976","371.46","3","fallScene","false","","","","","99","",""
"","","","","","html-keyboard-response","280","713564","0.0-24.0-1.2","5fd95f2691ac2024f8a883dd","6796e1c0ff24ca17c453c51c","67c70b634e342d44d3e8c7bd","passed","","867","","","","","","","","","","","","","","j","yesOrNo","","","","3","","","gt","3000","","","99","296.07114317029976","371.46"
"","","","","","html-keyboard-response","281","715128","0.0-24.0-0.3","5fd95f2691ac2024f8a883dd","6796e1c0ff24ca17c453c51c","67c70b634e342d44d3e8c7bd","passed","","","","","","","","","","","","","","","","","ballFalling","500","453.67114317029973","210.33","5","fallScene","false","","","","","100","",""
"","","","","","html-keyboard-response","282","718131","0.0-24.0-1.3","5fd95f2691ac2024f8a883dd","6796e1c0ff24ca17c453c51c","67c70b634e342d44d3e8c7bd","passed","","1020","","","","","","","","","","","","","","j","yesOrNo","","","","5","","","gt","3000","","","100","453.6711431702998","210.33"
"","","","","","html-keyboard-response","283","720144","0.0-24.0-0.4","5fd95f2691ac2024f8a883dd","6796e1c0ff24ca17c453c51c","67c70b634e342d44d3e8c7bd","passed","","","","","","","","","","","","","","","","","ballFalling","604.4000000000001","596.8711431702998","394.5","10","fallScene","true","","","","","101","",""
"","","","","","html-keyboard-response","284","723148","0.0-24.0-1.4","5fd95f2691ac2024f8a883dd","6796e1c0ff24ca17c453c51c","67c70b634e342d44d3e8c7bd","passed","","1323","","","","","","","","","","","","","","f","yesOrNo","","","","10","","","lp","3000","","","101","603.4000000000001","215.50214355555383"
"","","","","","html-keyboard-response","285","724711","0.0-24.0-0.5","5fd95f2691ac2024f8a883dd","6796e1c0ff24ca17c453c51c","67c70b634e342d44d3e8c7bd","passed","","","","","","","","","","","","","","","","","ballFalling","322.3","296.07114317029976","371.46","3","fallScene","true","","","","","102","",""
"","","","","","html-keyboard-response","286","727714","0.0-24.0-1.5","5fd95f2691ac2024f8a883dd","6796e1c0ff24ca17c453c51c","67c70b634e342d44d3e8c7bd","passed","","949","","","","","","","","","","","","","","f","yesOrNo","","","","3","","","mid","3000","","","102","321.3","300"
"","","","","","html-keyboard-response","287","729277","0.0-24.0-0.6","5fd95f2691ac2024f8a883dd","6796e1c0ff24ca17c453c51c","67c70b634e342d44d3e8c7bd","passed","","","","","","","","","","","","","","","","","ballFalling","604.4000000000001","575.4211431702997","266.76","12","fallScene","false","","","","","103","",""
"","","","","","html-keyboard-response","288","732280","0.0-24.0-1.6","5fd95f2691ac2024f8a883dd","6796e1c0ff24ca17c453c51c","67c70b634e342d44d3e8c7bd","passed","","602","","","","","","","","","","","","","","f","yesOrNo","","","","12","","","lp","3000","","","103","603.4000000000001","151"
"","","","","","html-keyboard-response","289","733844","0.0-24.0-0.7","5fd95f2691ac2024f8a883dd","6796e1c0ff24ca17c453c51c","67c70b634e342d44d3e8c7bd","passed","","","","","","","","","","","","","","","","","ballFalling","500","453.67114317029973","210.33","5","fallScene","true","","","","","104","",""
"","","","","","html-keyboard-response","290","736848","0.0-24.0-1.7","5fd95f2691ac2024f8a883dd","6796e1c0ff24ca17c453c51c","67c70b634e342d44d3e8c7bd","passed","","668","","","","","","","","","","","","","","f","yesOrNo","","","","5","","","lp","3000","","","104","499","151"
"","","","","","html-keyboard-response","291","738511","0.0-24.0-0.8","5fd95f2691ac2024f8a883dd","6796e1c0ff24ca17c453c51c","67c70b634e342d44d3e8c7bd","passed","","","","","","","","","","","","","","","","","ballFalling","500","479.92114317029973","330.87","6","fallScene","true","","","","","105","",""
"","","","","","html-keyboard-response","292","741513","0.0-24.0-1.8","5fd95f2691ac2024f8a883dd","6796e1c0ff24ca17c453c51c","67c70b634e342d44d3e8c7bd","passed","","854","","","","","","","","","","","","","","f","yesOrNo","","","","6","","","mid","3000","","","105","499","300"
"","","","","","html-keyboard-response","293","743077","0.0-24.0-0.9","5fd95f2691ac2024f8a883dd","6796e1c0ff24ca17c453c51c","67c70b634e342d44d3e8c7bd","passed","","","","","","","","","","","","","","","","","ballFalling","322.3","356.42114317029973","357.87","4","fallScene","true","","","","","106","",""
"","","","","","html-keyboard-response","294","746080","0.0-24.0-1.9","5fd95f2691ac2024f8a883dd","6796e1c0ff24ca17c453c51c","67c70b634e342d44d3e8c7bd","passed","","822","","","","","","","","","","","","","","j","yesOrNo","","","","4","","","gt","3000","","","106","356.42114317029973","357.87"
"","","","","","html-keyboard-response","295","747645","0.0-24.0-0.10","5fd95f2691ac2024f8a883dd","6796e1c0ff24ca17c453c51c","67c70b634e342d44d3e8c7bd","passed","","","","","","","","","","","","","","","","","ballFalling","322.3","296.07114317029976","371.46","3","fallScene","false","","","","","107","",""
"","","","","","html-keyboard-response","296","750649","0.0-24.0-1.10","5fd95f2691ac2024f8a883dd","6796e1c0ff24ca17c453c51c","67c70b634e342d44d3e8c7bd","passed","","1081","","","","","","","","","","","","","","j","yesOrNo","","","","3","","","gt","3000","","","107","296.07114317029976","371.46"
"","","","","","html-keyboard-response","297","752145","0.0-24.0-0.11","5fd95f2691ac2024f8a883dd","6796e1c0ff24ca17c453c51c","67c70b634e342d44d3e8c7bd","passed","","","","","","","","","","","","","","","","","ballFalling","604.4000000000001","667.6211431702998","201.78","9","fallScene","false","","","","","108","",""
"","","","","","html-keyboard-response","298","755147","0.0-24.0-1.11","5fd95f2691ac2024f8a883dd","6796e1c0ff24ca17c453c51c","67c70b634e342d44d3e8c7bd","passed","","708","","","","","","","","","","","","","","f","yesOrNo","","","","9","","","lp","3000","","","108","605.4000000000001","151"
"","","","","","html-keyboard-response","299","756710","0.0-24.0-0.12","5fd95f2691ac2024f8a883dd","6796e1c0ff24ca17c453c51c","67c70b634e342d44d3e8c7bd","passed","","","","","","","","","","","","","","","","","ballFalling","500","453.67114317029973","210.33","5","fallScene","true","","","","","109","",""
"","","","","","html-keyboard-response","300","759713","0.0-24.0-1.12","5fd95f2691ac2024f8a883dd","6796e1c0ff24ca17c453c51c","67c70b634e342d44d3e8c7bd","passed","","736","","","","","","","","","","","","","","j","yesOrNo","","","","5","","","mid","3000","","","109","499","300"
