"success","timeout","failed_images","failed_audio","failed_video","trial_type","trial_index","time_elapsed","internal_node_id","subject_id","study_id","session_id","practiceTestResult","view_history","rt","width","height","webaudio","browser","browser_version","mobile","os","fullscreen","vsync_rate","webcam","microphone","url","stimulus","response","task","ball_X","obstacle_groundTruth_x","obstacle_groundTruth_y","stimulus_idx","trial_name","flipped","choice","timeLimit","question_order","comprehensionCheck","practiceTest","currentTrial","obstacle_choice_x","obstacle_choice_y"
"true","false","[]","[]","[]","preload","0","205","0.0-0.0","605a2dbead400eae8de18f8c","6796e1c0ff24ca17c453c51c","67c70c4c57a6c80e7cd71ccf","passed","","","","","","","","","","","","","","","","","","","","","","","","","","","","","","",""
"","","","","","instructions","1","13481","0.0-1.0","605a2dbead400eae8de18f8c","6796e1c0ff24ca17c453c51c","67c70c4c57a6c80e7cd71ccf","passed","[{""page_index"":0,""viewing_time"":13273}]","13274","","","","","","","","","","","","","","","","","","","","","","","","","","","","",""
"","","","","","browser-check","2","14477","0.0-2.0","605a2dbead400eae8de18f8c","6796e1c0ff24ca17c453c51c","67c70c4c57a6c80e7cd71ccf","passed","","","1366","607","true","chrome","133.0.0","false","Windows 10","true","61.56","true","true","","","","","","","","","","","","","","","","","",""
"","","","","","external-html","3","24781","0.0-3.0","605a2dbead400eae8de18f8c","6796e1c0ff24ca17c453c51c","67c70c4c57a6c80e7cd71ccf","passed","","10085","","","","","","","","","","","","consent.html","","","","","","","","","","","","","","","","",""
"true","","","","","fullscreen","4","30141","0.0-4.0","605a2dbead400eae8de18f8c","6796e1c0ff24ca17c453c51c","67c70c4c57a6c80e7cd71ccf","passed","","2376","","","","","","","","","","","","","","","","","","","","","","","","","","","","",""
"","","","","","browser-check","5","31139","0.0-5.0","605a2dbead400eae8de18f8c","6796e1c0ff24ca17c453c51c","67c70c4c57a6c80e7cd71ccf","passed","","","1366","768","true","chrome","133.0.0","false","Windows 10","true","60.29","true","true","","","","","","","","","","","","","","","","","",""
"","","","","","html-keyboard-response","6","36772","0.0-6.0","605a2dbead400eae8de18f8c","6796e1c0ff24ca17c453c51c","67c70c4c57a6c80e7cd71ccf","passed","","5630","","","","","","","","","","","","","<p><b>This experiment requires keyboard input.</b></p> 
        <p><b>To ensure your response will be recorded successfully, please press 'Space' to continue.</b></p>
        <p>If you can't proceed, you won't be able to complete this study.</p>
        <p></p> <!-- Blank line -->
        <p id=""blinking-text"" style=""font-weight; animation: blink 2s infinite;"">Press Space to continue</p>
        <style>
            @keyframes blink {
                50% {
                    opacity: 0;
                }
            }
        </style>"," ","","","","","","","","","","","","","","",""
"","","","","","html-keyboard-response","7","42836","0.0-7.0","605a2dbead400eae8de18f8c","6796e1c0ff24ca17c453c51c","67c70c4c57a6c80e7cd71ccf","passed","","6062","","","","","","","","","","","","","<p><b>This experiment requires keyboard input.</b></p> 
        <p><b>To ensure your response will be recorded successfully, please press the 'f' key to continue.</b></p>
        <p>If you can't proceed, you won't be able to complete this study.</p>
        <p></p> <!-- Blank line -->
        <p id=""blinking-text"" style=""font-weight; animation: blink 2s infinite;"">Press f to continue</p>
        <style>
            @keyframes blink {
                50% {
                    opacity: 0;
                }
            }
        </style>","f","","","","","","","","","","","","","","",""
"","","","","","html-keyboard-response","8","47028","0.0-8.0","605a2dbead400eae8de18f8c","6796e1c0ff24ca17c453c51c","67c70c4c57a6c80e7cd71ccf","passed","","4191","","","","","","","","","","","","","<p><b>This experiment requires keyboard input.</b></p> 
        <p><b>To ensure your response will be recorded successfully, please press the 'j' key to continue.</b></p>
        <p>If you can't proceed, you won't be able to complete this study.</p>
        <p></p> <!-- Blank line -->
        <p id=""blinking-text"" style=""font-weight; animation: blink 2s infinite;"">Press j to continue</p>
        <style>
            @keyframes blink {
                50% {
                    opacity: 0;
                }
            }
        </style>","j","","","","","","","","","","","","","","",""
"","","","","","browser-check","9","48041","0.0-9.0","605a2dbead400eae8de18f8c","6796e1c0ff24ca17c453c51c","67c70c4c57a6c80e7cd71ccf","passed","","","1366","768","true","chrome","133.0.0","false","Windows 10","true","60.02","true","true","","","","","","","","","","","","","","","","","",""
"","","","","","survey-text","10","55477","0.0-10.0","605a2dbead400eae8de18f8c","6796e1c0ff24ca17c453c51c","67c70c4c57a6c80e7cd71ccf","passed","","7428","","","","","","","","","","","","","","{""prolificID"":""605a2dbead400eae8de18f8c""}","","","","","","","","","","","","","","",""
"","","","","","instructions","11","153691","0.0-11.0-0.0-0.0","605a2dbead400eae8de18f8c","6796e1c0ff24ca17c453c51c","67c70c4c57a6c80e7cd71ccf","passed","[{""page_index"":0,""viewing_time"":25235},{""page_index"":1,""viewing_time"":50748},{""page_index"":2,""viewing_time"":8595},{""page_index"":3,""viewing_time"":13633}]","98213","","","","","","","","","","","","","","","","","","","","","","","","","","","","",""
"","","","","","html-keyboard-response","12","164746","0.0-11.0-0.0-1.0","605a2dbead400eae8de18f8c","6796e1c0ff24ca17c453c51c","67c70c4c57a6c80e7cd71ccf","passed","","10499","","","","","","","","","","","","","<br>Remember! After a ball falls, the screen will disappear, and you'll decide if the proposed position is where the hidden triangle was. <br>You will now practice this by watching a few videos and making decisions.<p>To respond:<br style=""margin-bottom: 5px; text-indent: -20px; padding-left: 20px;"">- Press <b style=""color: #12AD2B;"">J for Yes</b>, if you think the triangle is in the correct position.<br style=""margin-top: 0; text-indent: -20px; padding-left: 20px;"">- Press <b style=""color: orange;"">F for No</b>, if you think the triangle is not in the correct position.</p><p>In this practice round, there is no time limit. Focus on getting comfortable with the task first.<br>Press either J or F to begin your practice trials.</p><img src = ""YesOrNo_instruction.png"" style=""width: 65%;""></img>","f","","","","","","","","","","","","","","",""
"","","","","","html-keyboard-response","13","166255","0.0-11.0-0.0-2.0-0.0","605a2dbead400eae8de18f8c","6796e1c0ff24ca17c453c51c","67c70c4c57a6c80e7cd71ccf","passed","","","","","","","","","","","","","","","","","ballFalling_prac","441","414","302","5","fallScene","true","","","","","","","",""
"","","","","","html-keyboard-response","14","168242","0.0-11.0-0.0-2.0-1.0","605a2dbead400eae8de18f8c","6796e1c0ff24ca17c453c51c","67c70c4c57a6c80e7cd71ccf","passed","","1977","","","","","","","","","","","","","","j","yesOrNo_prac_noTimed","","","","5","","","close gt","NA","","","","","",""
"","","","","","html-keyboard-response","15","169806","0.0-11.0-0.0-2.0-0.1","605a2dbead400eae8de18f8c","6796e1c0ff24ca17c453c51c","67c70c4c57a6c80e7cd71ccf","passed","","","","","","","","","","","","","","","","","ballFalling_prac","416","464","296","1","fallScene","false","","","","","","","",""
"","","","","","html-keyboard-response","16","170860","0.0-11.0-0.0-2.0-1.1","605a2dbead400eae8de18f8c","6796e1c0ff24ca17c453c51c","67c70c4c57a6c80e7cd71ccf","passed","","1052","","","","","","","","","","","","","","j","yesOrNo_prac_noTimed","","","","1","","","gt","NA","","","","","",""
"","","","","","html-keyboard-response","17","172973","0.0-11.0-0.0-2.0-0.2","605a2dbead400eae8de18f8c","6796e1c0ff24ca17c453c51c","67c70c4c57a6c80e7cd71ccf","passed","","","","","","","","","","","","","","","","","ballFalling_prac","660","666","350","3","fallScene","false","","","","","","","",""
"","","","","","html-keyboard-response","18","173926","0.0-11.0-0.0-2.0-1.2","605a2dbead400eae8de18f8c","6796e1c0ff24ca17c453c51c","67c70c4c57a6c80e7cd71ccf","passed","","951","","","","","","","","","","","","","","j","yesOrNo_prac_noTimed","","","","3","","","wrong direction","NA","","","","","",""
"","","","","","instructions","19","226474","0.0-11.0-0.0-3.0","605a2dbead400eae8de18f8c","6796e1c0ff24ca17c453c51c","67c70c4c57a6c80e7cd71ccf","passed","[{""page_index"":0,""viewing_time"":43089},{""page_index"":1,""viewing_time"":9458}]","52547","","","","","","","","","","","","","","","","","","","","","","","","","","","","",""
"","","","","","html-button-response","20","229849","0.0-11.0-0.0-4.0","605a2dbead400eae8de18f8c","6796e1c0ff24ca17c453c51c","67c70c4c57a6c80e7cd71ccf","passed","","2860","","","","","","","","","","","","","<p>To make sure you understood the task, we just have a <b>brief quiz</b> here.</p><p>If you need to review the instructions, click 'Previous'.</p><p>It's important to understand the task to do the study, so you have to pass the quiz to move to the study.</p>","1","","","","","","","","","","","","","","",""
"","","","","","survey-multi-choice","21","244837","0.0-11.0-1.0-0.0","605a2dbead400eae8de18f8c","6796e1c0ff24ca17c453c51c","67c70c4c57a6c80e7cd71ccf","passed","","14984","","","","","","","","","","","","","","{""generalProcedure"":""Watch a video of a ball falling, some of it behind a gray screen. After each video, decide if the triangle is at the spot where the ball hit the triangle behind the screen. There is time limit for the response.""}","","","","","","","","","","[0]","","","","",""
"","","","","","survey-multi-choice","22","249517","0.0-11.0-1.0-1.0","605a2dbead400eae8de18f8c","6796e1c0ff24ca17c453c51c","67c70c4c57a6c80e7cd71ccf","passed","","4678","","","","","","","","","","","","","","{""checkBallHitObstacle"":""No.""}","","","","","","","","","","[0]","","","","",""
"","","","","","survey-multi-choice","23","255808","0.0-11.0-1.0-2.0","605a2dbead400eae8de18f8c","6796e1c0ff24ca17c453c51c","67c70c4c57a6c80e7cd71ccf","passed","","6289","","","","","","","","","","","","","","{""checkTriangleVisibility"":""No, the triangle is hidden behind the gray screen.""}","","","","","","","","","","[0]","","","","",""
"","","","","","survey-multi-choice","24","261402","0.0-11.0-1.0-3.0","605a2dbead400eae8de18f8c","6796e1c0ff24ca17c453c51c","67c70c4c57a6c80e7cd71ccf","passed","","5591","","","","","","","","","","","","","","{""checkTimedResponse"":""Your response will not be recorded, and the trial will move to the next one.""}","","","","","","","","","","[0]","","","","",""
"","","","","","survey-multi-choice","25","269437","0.0-11.0-1.0-4.0","605a2dbead400eae8de18f8c","6796e1c0ff24ca17c453c51c","67c70c4c57a6c80e7cd71ccf","passed","","8033","","","","","","","","","","","","","","{""checkTimeBlockNotice"":""Before every individual trial.""}","","","","","","","","","","[0]","","","","",""
"","","","","","survey-multi-choice","26","276494","0.0-11.0-1.0-5.0","605a2dbead400eae8de18f8c","6796e1c0ff24ca17c453c51c","67c70c4c57a6c80e7cd71ccf","passed","","7055","","","","","","","","","","","","","","{""checkTimeBlockSameness"":""Yes, the time limit is the same for all trials within a block.""}","","","","","","","","","","[0]","","","","",""
"","","","","","survey-multi-choice","27","291303","0.0-11.0-1.0-6.0","605a2dbead400eae8de18f8c","6796e1c0ff24ca17c453c51c","67c70c4c57a6c80e7cd71ccf","passed","","14808","","","","","","","","","","","","","","{""checkTrianglePrecision"":""No. The proposed purple triangle is not in the correct position because it doesn't match the location of the white triangle exactly.""}","","","","","","","","","","[0]","","","","",""
"","","","","","html-button-response","28","293269","0.0-11.0-2.0-0.0","605a2dbead400eae8de18f8c","6796e1c0ff24ca17c453c51c","67c70c4c57a6c80e7cd71ccf","passed","","1961","","","","","","","","","","","","","<p>Oops! You did not pass the quiz.</p><p>You will now repeat the instructions and practice.</p>","0","","","","","","","","","","","failed","","","",""
"","","","","","instructions","29","352813","0.0-11.1-0.1-0.1","605a2dbead400eae8de18f8c","6796e1c0ff24ca17c453c51c","67c70c4c57a6c80e7cd71ccf","passed","[{""page_index"":0,""viewing_time"":28803},{""page_index"":1,""viewing_time"":4716},{""page_index"":2,""viewing_time"":8143},{""page_index"":3,""viewing_time"":17879}]","59543","","","","","","","","","","","","","","","","","","","","","","","","","","","","",""
"","","","","","html-keyboard-response","30","377023","0.0-11.1-0.1-1.1","605a2dbead400eae8de18f8c","6796e1c0ff24ca17c453c51c","67c70c4c57a6c80e7cd71ccf","passed","","23679","","","","","","","","","","","","","<br>Remember! After a ball falls, the screen will disappear, and you'll decide if the proposed position is where the hidden triangle was. <br>You will now practice this by watching a few videos and making decisions.<p>To respond:<br style=""margin-bottom: 5px; text-indent: -20px; padding-left: 20px;"">- Press <b style=""color: #12AD2B;"">J for Yes</b>, if you think the triangle is in the correct position.<br style=""margin-top: 0; text-indent: -20px; padding-left: 20px;"">- Press <b style=""color: orange;"">F for No</b>, if you think the triangle is not in the correct position.</p><p>In this practice round, there is no time limit. Focus on getting comfortable with the task first.<br>Press either J or F to begin your practice trials.</p><img src = ""YesOrNo_instruction.png"" style=""width: 65%;""></img>","f","","","","","","","","","","","","","","",""
"","","","","","html-keyboard-response","31","378578","0.0-11.1-0.1-2.1-0.3","605a2dbead400eae8de18f8c","6796e1c0ff24ca17c453c51c","67c70c4c57a6c80e7cd71ccf","passed","","","","","","","","","","","","","","","","","ballFalling_prac","441","414","302","5","fallScene","true","","","","","","","",""
"","","","","","html-keyboard-response","32","381899","0.0-11.1-0.1-2.1-1.3","605a2dbead400eae8de18f8c","6796e1c0ff24ca17c453c51c","67c70c4c57a6c80e7cd71ccf","passed","","3319","","","","","","","","","","","","","","j","yesOrNo_prac_noTimed","","","","5","","","close gt","NA","","","","","",""
"","","","","","html-keyboard-response","33","383495","0.0-11.1-0.1-2.1-0.4","605a2dbead400eae8de18f8c","6796e1c0ff24ca17c453c51c","67c70c4c57a6c80e7cd71ccf","passed","","","","","","","","","","","","","","","","","ballFalling_prac","416","464","296","1","fallScene","false","","","","","","","",""
"","","","","","html-keyboard-response","34","385199","0.0-11.1-0.1-2.1-1.4","605a2dbead400eae8de18f8c","6796e1c0ff24ca17c453c51c","67c70c4c57a6c80e7cd71ccf","passed","","1701","","","","","","","","","","","","","","j","yesOrNo_prac_noTimed","","","","1","","","gt","NA","","","","","",""
"","","","","","html-keyboard-response","35","387312","0.0-11.1-0.1-2.1-0.5","605a2dbead400eae8de18f8c","6796e1c0ff24ca17c453c51c","67c70c4c57a6c80e7cd71ccf","passed","","","","","","","","","","","","","","","","","ballFalling_prac","660","666","350","3","fallScene","false","","","","","","","",""
"","","","","","html-keyboard-response","36","389290","0.0-11.1-0.1-2.1-1.5","605a2dbead400eae8de18f8c","6796e1c0ff24ca17c453c51c","67c70c4c57a6c80e7cd71ccf","passed","","1975","","","","","","","","","","","","","","j","yesOrNo_prac_noTimed","","","","3","","","wrong direction","NA","","","","","",""
"","","","","","instructions","37","419050","0.0-11.1-0.1-3.1","605a2dbead400eae8de18f8c","6796e1c0ff24ca17c453c51c","67c70c4c57a6c80e7cd71ccf","passed","[{""page_index"":0,""viewing_time"":18623},{""page_index"":1,""viewing_time"":11137}]","29760","","","","","","","","","","","","","","","","","","","","","","","","","","","","",""
"","","","","","html-button-response","38","421448","0.0-11.1-0.1-4.1","605a2dbead400eae8de18f8c","6796e1c0ff24ca17c453c51c","67c70c4c57a6c80e7cd71ccf","passed","","1887","","","","","","","","","","","","","<p>To make sure you understood the task, we just have a <b>brief quiz</b> here.</p><p>If you need to review the instructions, click 'Previous'.</p><p>It's important to understand the task to do the study, so you have to pass the quiz to move to the study.</p>","1","","","","","","","","","","","","","","",""
"","","","","","survey-multi-choice","39","444869","0.0-11.1-1.1-0.1","605a2dbead400eae8de18f8c","6796e1c0ff24ca17c453c51c","67c70c4c57a6c80e7cd71ccf","passed","","23420","","","","","","","","","","","","","","{""generalProcedure"":""Watch a video of a ball falling, some of it behind a gray screen. After each video, decide if the triangle is at the spot where the ball hit the triangle behind the screen. There is time limit for the response.""}","","","","","","","","","","[0]","","","","",""
"","","","","","survey-multi-choice","40","464881","0.0-11.1-1.1-1.1","605a2dbead400eae8de18f8c","6796e1c0ff24ca17c453c51c","67c70c4c57a6c80e7cd71ccf","passed","","20011","","","","","","","","","","","","","","{""checkBallHitObstacle"":""Yes.""}","","","","","","","","","","[0]","","","","",""
"","","","","","survey-multi-choice","41","470107","0.0-11.1-1.1-2.1","605a2dbead400eae8de18f8c","6796e1c0ff24ca17c453c51c","67c70c4c57a6c80e7cd71ccf","passed","","5224","","","","","","","","","","","","","","{""checkTriangleVisibility"":""No, the triangle is hidden behind the gray screen.""}","","","","","","","","","","[0]","","","","",""
"","","","","","survey-multi-choice","42","514869","0.0-11.1-1.1-3.1","605a2dbead400eae8de18f8c","6796e1c0ff24ca17c453c51c","67c70c4c57a6c80e7cd71ccf","passed","","44761","","","","","","","","","","","","","","{""checkTimedResponse"":""Your response will not be recorded, and the trial will move to the next one.""}","","","","","","","","","","[0]","","","","",""
"","","","","","survey-multi-choice","43","548355","0.0-11.1-1.1-4.1","605a2dbead400eae8de18f8c","6796e1c0ff24ca17c453c51c","67c70c4c57a6c80e7cd71ccf","passed","","33485","","","","","","","","","","","","","","{""checkTimeBlockNotice"":""At the beginning of each block.""}","","","","","","","","","","[0]","","","","",""
"","","","","","survey-multi-choice","44","599894","0.0-11.1-1.1-5.1","605a2dbead400eae8de18f8c","6796e1c0ff24ca17c453c51c","67c70c4c57a6c80e7cd71ccf","passed","","51531","","","","","","","","","","","","","","{""checkTimeBlockSameness"":""Yes, the time limit is the same for all trials within a block.""}","","","","","","","","","","[0]","","","","",""
"","","","","","survey-multi-choice","45","628899","0.0-11.1-1.1-6.1","605a2dbead400eae8de18f8c","6796e1c0ff24ca17c453c51c","67c70c4c57a6c80e7cd71ccf","passed","","29001","","","","","","","","","","","","","","{""checkTrianglePrecision"":""No. The proposed purple triangle is not in the correct position because it doesn't match the location of the white triangle exactly.""}","","","","","","","","","","[0]","","","","",""
"","","","","","instructions","46","651679","0.0-12.0","605a2dbead400eae8de18f8c","6796e1c0ff24ca17c453c51c","67c70c4c57a6c80e7cd71ccf","passed","[{""page_index"":0,""viewing_time"":5793},{""page_index"":1,""viewing_time"":7245},{""page_index"":2,""viewing_time"":5919},{""page_index"":3,""viewing_time"":3814}]","22772","","","","","","","","","","","","","","","","","","","","","","","","","","","","",""
"","","","","","instructions","47","669800","0.0-13.0-0.0","605a2dbead400eae8de18f8c","6796e1c0ff24ca17c453c51c","67c70c4c57a6c80e7cd71ccf","passed","[{""page_index"":0,""viewing_time"":18120}]","18121","","","","","","","","","","","","","","","","","","","","","","","","","","","","",""
"","","","","","html-keyboard-response","48","694135","0.0-13.0-1.0","605a2dbead400eae8de18f8c","6796e1c0ff24ca17c453c51c","67c70c4c57a6c80e7cd71ccf","passed","","24330","","","","","","","","","","","","","<p><span style=""font-size:40px;"">Practice BLOCK 1</span></p><p><span style=""font-size:25px;"">You have <b style=""color: #FF644F;""><strong>3 second(s)</strong></b> to respond to the following trials.</span><br></p><p id=""blinking-text"" style=""font-weight; animation: blink 2s infinite;"">Press Space to continue</p><style>
                    @keyframes blink {
                        50% {
                            opacity: 0;
                        }
                    }
                </style>"," ","","","","","","","","","","","","","","",""
"","","","","","html-keyboard-response","49","695787","0.0-13.0-2.0-0.0","605a2dbead400eae8de18f8c","6796e1c0ff24ca17c453c51c","67c70c4c57a6c80e7cd71ccf","passed","","","","","","","","","","","","","","","","","ballFalling_prac","416","464","296","1","fallScene","false","","","","","","","",""
"","","","","","html-keyboard-response","50","698882","0.0-13.0-2.0-1.0","605a2dbead400eae8de18f8c","6796e1c0ff24ca17c453c51c","67c70c4c57a6c80e7cd71ccf","passed","","1251","","","","","","","","","","","","","","j","yesOrNo_prac","","","","1","","","far gt","3000","","","","","",""
"","","","","","html-keyboard-response","51","700580","0.0-13.0-2.0-0.1","605a2dbead400eae8de18f8c","6796e1c0ff24ca17c453c51c","67c70c4c57a6c80e7cd71ccf","passed","","","","","","","","","","","","","","","","","ballFalling_prac","660","610","263","4","fallScene","false","","","","","","","",""
"","","","","","html-keyboard-response","52","703627","0.0-13.0-2.0-1.1","605a2dbead400eae8de18f8c","6796e1c0ff24ca17c453c51c","67c70c4c57a6c80e7cd71ccf","passed","","852","","","","","","","","","","","","","","j","yesOrNo_prac","","","","4","","","gt","3000","","","","","",""
"","","","","","html-keyboard-response","53","705179","0.0-13.0-2.0-0.2","605a2dbead400eae8de18f8c","6796e1c0ff24ca17c453c51c","67c70c4c57a6c80e7cd71ccf","passed","","","","","","","","","","","","","","","","","ballFalling_prac","584","536","296","1","fallScene","true","","","","","","","",""
"","","","","","html-keyboard-response","54","708190","0.0-13.0-2.0-1.2","605a2dbead400eae8de18f8c","6796e1c0ff24ca17c453c51c","67c70c4c57a6c80e7cd71ccf","passed","","631","","","","","","","","","","","","","","j","yesOrNo_prac","","","","1","","","close gt","3000","","","","","",""
"","","","","","html-keyboard-response","55","712141","0.0-13.0-3.0","605a2dbead400eae8de18f8c","6796e1c0ff24ca17c453c51c","67c70c4c57a6c80e7cd71ccf","passed","","3950","","","","","","","","","","","","","<p><span style=""font-size:40px;"">Practice BLOCK 2</span></p><p><span style=""font-size:25px;"">You have <b style=""color: #FF644F;""><strong>0.7 second(s)</strong></b> to respond to the following trials.</span><br></p><p id=""blinking-text"" style=""font-weight; animation: blink 2s infinite;"">Press Space to continue</p><style>
                    @keyframes blink {
                        50% {
                            opacity: 0;
                        }
                    }
                </style>"," ","","","","","","","","","","","","","","",""
"","","","","","html-keyboard-response","56","714215","0.0-13.0-4.0-0.0","605a2dbead400eae8de18f8c","6796e1c0ff24ca17c453c51c","67c70c4c57a6c80e7cd71ccf","passed","","","","","","","","","","","","","","","","","ballFalling_prac","340","334","350","3","fallScene","true","","","","","","","",""
"","","","","","html-keyboard-response","57","714948","0.0-13.0-4.0-1.0","605a2dbead400eae8de18f8c","6796e1c0ff24ca17c453c51c","67c70c4c57a6c80e7cd71ccf","passed","","null","","","","","","","","","","","","","","null","yesOrNo_prac","","","","3","","","close gt","700","","","","","",""
"","","","","","html-keyboard-response","58","716530","0.0-13.0-4.0-0.1","605a2dbead400eae8de18f8c","6796e1c0ff24ca17c453c51c","67c70c4c57a6c80e7cd71ccf","passed","","","","","","","","","","","","","","","","","ballFalling_prac","660","610","263","4","fallScene","false","","","","","","","",""
"","","","","","html-keyboard-response","59","717243","0.0-13.0-4.0-1.1","605a2dbead400eae8de18f8c","6796e1c0ff24ca17c453c51c","67c70c4c57a6c80e7cd71ccf","passed","","709","","","","","","","","","","","","","","j","yesOrNo_prac","","","","4","","","far gt","700","","","","","",""
"","","","","","html-keyboard-response","60","718799","0.0-13.0-4.0-0.2","605a2dbead400eae8de18f8c","6796e1c0ff24ca17c453c51c","67c70c4c57a6c80e7cd71ccf","passed","","","","","","","","","","","","","","","","","ballFalling_prac","441","500","317","6","fallScene","true","","","","","","","",""
"","","","","","html-keyboard-response","61","719513","0.0-13.0-4.0-1.2","605a2dbead400eae8de18f8c","6796e1c0ff24ca17c453c51c","67c70c4c57a6c80e7cd71ccf","passed","","691","","","","","","","","","","","","","","j","yesOrNo_prac","","","","6","","","gt","700","","","","","",""
"","","","","","instructions","62","723300","0.0-13.0-5.0","605a2dbead400eae8de18f8c","6796e1c0ff24ca17c453c51c","67c70c4c57a6c80e7cd71ccf","passed","[{""page_index"":0,""viewing_time"":3785}]","3786","","","","","","","","","","","","","","","","","","","","","","","","","","","","",""
"","","","","","html-keyboard-response","63","732050","0.0-13.0-6.0","605a2dbead400eae8de18f8c","6796e1c0ff24ca17c453c51c","67c70c4c57a6c80e7cd71ccf","passed","","8748","","","","","","","","","","","","","<p><span style=""font-size:40px;"">Practice Test BLOCK 1</span></p><p><span style=""font-size:25px;"">You have <b style=""color: #FF644F;""><strong>0.7 second(s)</strong></b> to respond to the following trials.</span><br></p><p id=""blinking-text"" style=""font-weight; animation: blink 2s infinite;"">Press Space to continue</p><style>
                    @keyframes blink {
                        50% {
                            opacity: 0;
                        }
                    }
                </style>"," ","","","","","","","","","","","","","","",""
"","","","","","html-keyboard-response","64","733631","0.0-13.0-7.0-0.0","605a2dbead400eae8de18f8c","6796e1c0ff24ca17c453c51c","67c70c4c57a6c80e7cd71ccf","passed","","","","","","","","","","","","","","","","","ballFalling_prac","559","586","302","5","fallScene","false","","","","","","","",""
"","","","","","html-keyboard-response","65","734349","0.0-13.0-7.0-1.0","605a2dbead400eae8de18f8c","6796e1c0ff24ca17c453c51c","67c70c4c57a6c80e7cd71ccf","passed","","null","","","","","","","","","","","","","","null","yesOrNo_prac","","","","5","","","gt","700","","","","","",""
"","","","","","html-keyboard-response","66","735932","0.0-13.0-7.0-0.1","605a2dbead400eae8de18f8c","6796e1c0ff24ca17c453c51c","67c70c4c57a6c80e7cd71ccf","passed","","","","","","","","","","","","","","","","","ballFalling_prac","340","390","263","4","fallScene","true","","","","","","","",""
"","","","","","html-keyboard-response","67","736644","0.0-13.0-7.0-1.1","605a2dbead400eae8de18f8c","6796e1c0ff24ca17c453c51c","67c70c4c57a6c80e7cd71ccf","passed","","553","","","","","","","","","","","","","","f","yesOrNo_prac","","","","4","","","far gt","700","","","","","",""
"","","","","","html-keyboard-response","68","738204","0.0-13.0-7.0-0.2","605a2dbead400eae8de18f8c","6796e1c0ff24ca17c453c51c","67c70c4c57a6c80e7cd71ccf","passed","","","","","","","","","","","","","","","","","ballFalling_prac","441","500","317","6","fallScene","true","","","","","","","",""
"","","","","","html-keyboard-response","69","738912","0.0-13.0-7.0-1.2","605a2dbead400eae8de18f8c","6796e1c0ff24ca17c453c51c","67c70c4c57a6c80e7cd71ccf","passed","","null","","","","","","","","","","","","","","null","yesOrNo_prac","","","","6","","","close gt","700","","","","","",""
"","","","","","html-keyboard-response","70","740819","0.0-13.0-8.0","605a2dbead400eae8de18f8c","6796e1c0ff24ca17c453c51c","67c70c4c57a6c80e7cd71ccf","passed","","1906","","","","","","","","","","","","","<p><span style=""font-size:40px;"">Practice Test BLOCK 2</span></p><p><span style=""font-size:25px;"">You have <b style=""color: #FF644F;""><strong>3 second(s)</strong></b> to respond to the following trials.</span><br></p><p id=""blinking-text"" style=""font-weight; animation: blink 2s infinite;"">Press Space to continue</p><style>
                    @keyframes blink {
                        50% {
                            opacity: 0;
                        }
                    }
                </style>"," ","","","","","","","","","","","","","","",""
"","","","","","html-keyboard-response","71","742399","0.0-13.0-9.0-0.0","605a2dbead400eae8de18f8c","6796e1c0ff24ca17c453c51c","67c70c4c57a6c80e7cd71ccf","passed","","","","","","","","","","","","","","","","","ballFalling_prac","416","365","249","2","fallScene","false","","","","","","","",""
"","","","","","html-keyboard-response","72","745412","0.0-13.0-9.0-1.0","605a2dbead400eae8de18f8c","6796e1c0ff24ca17c453c51c","67c70c4c57a6c80e7cd71ccf","passed","","2568","","","","","","","","","","","","","","j","yesOrNo_prac","","","","2","","","gt","3000","","","","","",""
"","","","","","html-keyboard-response","73","746969","0.0-13.0-9.0-0.1","605a2dbead400eae8de18f8c","6796e1c0ff24ca17c453c51c","67c70c4c57a6c80e7cd71ccf","passed","","","","","","","","","","","","","","","","","ballFalling_prac","559","586","302","5","fallScene","false","","","","","","","",""
"","","","","","html-keyboard-response","74","749977","0.0-13.0-9.0-1.1","605a2dbead400eae8de18f8c","6796e1c0ff24ca17c453c51c","67c70c4c57a6c80e7cd71ccf","passed","","1068","","","","","","","","","","","","","","j","yesOrNo_prac","","","","5","","","far gt","3000","","","","","",""
"","","","","","html-keyboard-response","75","751533","0.0-13.0-9.0-0.2","605a2dbead400eae8de18f8c","6796e1c0ff24ca17c453c51c","67c70c4c57a6c80e7cd71ccf","passed","","","","","","","","","","","","","","","","","ballFalling_prac","340","390","263","4","fallScene","true","","","","","","","",""
"","","","","","html-keyboard-response","76","754553","0.0-13.0-9.0-1.2","605a2dbead400eae8de18f8c","6796e1c0ff24ca17c453c51c","67c70c4c57a6c80e7cd71ccf","passed","","999","","","","","","","","","","","","","","j","yesOrNo_prac","","","","4","","","close gt","3000","","","","","",""
"","","","","","html-button-response","77","761327","0.0-13.0-10.0-0.0","605a2dbead400eae8de18f8c","6796e1c0ff24ca17c453c51c","67c70c4c57a6c80e7cd71ccf","passed","","6719","","","","","","","","","","","","","<p>Oops! You did not pass the practice test. You missed 2 out of 6 trials.</p><p>You will now repeat the practice and the test.</p>","0","","","","","","","","","","","","failed","","",""
"","","","","","instructions","78","765262","0.0-13.1-0.1","605a2dbead400eae8de18f8c","6796e1c0ff24ca17c453c51c","67c70c4c57a6c80e7cd71ccf","passed","[{""page_index"":0,""viewing_time"":3931}]","3931","","","","","","","","","","","","","","","","","","","","","","","","","","","","",""
"","","","","","html-keyboard-response","79","767946","0.0-13.1-1.1","605a2dbead400eae8de18f8c","6796e1c0ff24ca17c453c51c","67c70c4c57a6c80e7cd71ccf","passed","","2683","","","","","","","","","","","","","<p><span style=""font-size:40px;"">Practice BLOCK 1</span></p><p><span style=""font-size:25px;"">You have <b style=""color: #FF644F;""><strong>3 second(s)</strong></b> to respond to the following trials.</span><br></p><p id=""blinking-text"" style=""font-weight; animation: blink 2s infinite;"">Press Space to continue</p><style>
                    @keyframes blink {
                        50% {
                            opacity: 0;
                        }
                    }
                </style>"," ","","","","","","","","","","","","","","",""
"","","","","","html-keyboard-response","80","769484","0.0-13.1-2.1-0.3","605a2dbead400eae8de18f8c","6796e1c0ff24ca17c453c51c","67c70c4c57a6c80e7cd71ccf","passed","","","","","","","","","","","","","","","","","ballFalling_prac","584","536","296","1","fallScene","true","","","","","","","",""
"","","","","","html-keyboard-response","81","772493","0.0-13.1-2.1-1.3","605a2dbead400eae8de18f8c","6796e1c0ff24ca17c453c51c","67c70c4c57a6c80e7cd71ccf","passed","","1871","","","","","","","","","","","","","","f","yesOrNo_prac","","","","1","","","close gt","3000","","","","","",""
"","","","","","html-keyboard-response","82","774073","0.0-13.1-2.1-0.4","605a2dbead400eae8de18f8c","6796e1c0ff24ca17c453c51c","67c70c4c57a6c80e7cd71ccf","passed","","","","","","","","","","","","","","","","","ballFalling_prac","660","610","263","4","fallScene","false","","","","","","","",""
"","","","","","html-keyboard-response","83","777088","0.0-13.1-2.1-1.4","605a2dbead400eae8de18f8c","6796e1c0ff24ca17c453c51c","67c70c4c57a6c80e7cd71ccf","passed","","781","","","","","","","","","","","","","","j","yesOrNo_prac","","","","4","","","gt","3000","","","","","",""
"","","","","","html-keyboard-response","84","778657","0.0-13.1-2.1-0.5","605a2dbead400eae8de18f8c","6796e1c0ff24ca17c453c51c","67c70c4c57a6c80e7cd71ccf","passed","","","","","","","","","","","","","","","","","ballFalling_prac","416","464","296","1","fallScene","false","","","","","","","",""
"","","","","","html-keyboard-response","85","781662","0.0-13.1-2.1-1.5","605a2dbead400eae8de18f8c","6796e1c0ff24ca17c453c51c","67c70c4c57a6c80e7cd71ccf","passed","","1880","","","","","","","","","","","","","","j","yesOrNo_prac","","","","1","","","far gt","3000","","","","","",""
"","","","","","html-keyboard-response","86","784016","0.0-13.1-3.1","605a2dbead400eae8de18f8c","6796e1c0ff24ca17c453c51c","67c70c4c57a6c80e7cd71ccf","passed","","2339","","","","","","","","","","","","","<p><span style=""font-size:40px;"">Practice BLOCK 2</span></p><p><span style=""font-size:25px;"">You have <b style=""color: #FF644F;""><strong>0.7 second(s)</strong></b> to respond to the following trials.</span><br></p><p id=""blinking-text"" style=""font-weight; animation: blink 2s infinite;"">Press Space to continue</p><style>
                    @keyframes blink {
                        50% {
                            opacity: 0;
                        }
                    }
                </style>"," ","","","","","","","","","","","","","","",""
"","","","","","html-keyboard-response","87","786104","0.0-13.1-4.1-0.3","605a2dbead400eae8de18f8c","6796e1c0ff24ca17c453c51c","67c70c4c57a6c80e7cd71ccf","passed","","","","","","","","","","","","","","","","","ballFalling_prac","340","334","350","3","fallScene","true","","","","","","","",""
"","","","","","html-keyboard-response","88","786818","0.0-13.1-4.1-1.3","605a2dbead400eae8de18f8c","6796e1c0ff24ca17c453c51c","67c70c4c57a6c80e7cd71ccf","passed","","null","","","","","","","","","","","","","","null","yesOrNo_prac","","","","3","","","close gt","700","","","","","",""
"","","","","","html-keyboard-response","89","788389","0.0-13.1-4.1-0.4","605a2dbead400eae8de18f8c","6796e1c0ff24ca17c453c51c","67c70c4c57a6c80e7cd71ccf","passed","","","","","","","","","","","","","","","","","ballFalling_prac","660","610","263","4","fallScene","false","","","","","","","",""
"","","","","","html-keyboard-response","90","789102","0.0-13.1-4.1-1.4","605a2dbead400eae8de18f8c","6796e1c0ff24ca17c453c51c","67c70c4c57a6c80e7cd71ccf","passed","","600","","","","","","","","","","","","","","j","yesOrNo_prac","","","","4","","","far gt","700","","","","","",""
"","","","","","html-keyboard-response","91","790674","0.0-13.1-4.1-0.5","605a2dbead400eae8de18f8c","6796e1c0ff24ca17c453c51c","67c70c4c57a6c80e7cd71ccf","passed","","","","","","","","","","","","","","","","","ballFalling_prac","441","500","317","6","fallScene","true","","","","","","","",""
"","","","","","html-keyboard-response","92","791382","0.0-13.1-4.1-1.5","605a2dbead400eae8de18f8c","6796e1c0ff24ca17c453c51c","67c70c4c57a6c80e7cd71ccf","passed","","600","","","","","","","","","","","","","","j","yesOrNo_prac","","","","6","","","gt","700","","","","","",""
"","","","","","instructions","93","873924","0.0-13.1-5.1","605a2dbead400eae8de18f8c","6796e1c0ff24ca17c453c51c","67c70c4c57a6c80e7cd71ccf","passed","[{""page_index"":0,""viewing_time"":82541}]","82541","","","","","","","","","","","","","","","","","","","","","","","","","","","","",""
"","","","","","html-keyboard-response","94","878004","0.0-13.1-6.1","605a2dbead400eae8de18f8c","6796e1c0ff24ca17c453c51c","67c70c4c57a6c80e7cd71ccf","passed","","4078","","","","","","","","","","","","","<p><span style=""font-size:40px;"">Practice Test BLOCK 1</span></p><p><span style=""font-size:25px;"">You have <b style=""color: #FF644F;""><strong>0.7 second(s)</strong></b> to respond to the following trials.</span><br></p><p id=""blinking-text"" style=""font-weight; animation: blink 2s infinite;"">Press Space to continue</p><style>
                    @keyframes blink {
                        50% {
                            opacity: 0;
                        }
                    }
                </style>"," ","","","","","","","","","","","","","","",""
"","","","","","html-keyboard-response","95","879563","0.0-13.1-7.1-0.3","605a2dbead400eae8de18f8c","6796e1c0ff24ca17c453c51c","67c70c4c57a6c80e7cd71ccf","passed","","","","","","","","","","","","","","","","","ballFalling_prac","559","586","302","5","fallScene","false","","","","","","","",""
"","","","","","html-keyboard-response","96","880275","0.0-13.1-7.1-1.3","605a2dbead400eae8de18f8c","6796e1c0ff24ca17c453c51c","67c70c4c57a6c80e7cd71ccf","passed","","685","","","","","","","","","","","","","","j","yesOrNo_prac","","","","5","","","gt","700","","","","","",""
"","","","","","html-keyboard-response","97","881832","0.0-13.1-7.1-0.4","605a2dbead400eae8de18f8c","6796e1c0ff24ca17c453c51c","67c70c4c57a6c80e7cd71ccf","passed","","","","","","","","","","","","","","","","","ballFalling_prac","340","390","263","4","fallScene","true","","","","","","","",""
"","","","","","html-keyboard-response","98","882537","0.0-13.1-7.1-1.4","605a2dbead400eae8de18f8c","6796e1c0ff24ca17c453c51c","67c70c4c57a6c80e7cd71ccf","passed","","685","","","","","","","","","","","","","","j","yesOrNo_prac","","","","4","","","far gt","700","","","","","",""
"","","","","","html-keyboard-response","99","884098","0.0-13.1-7.1-0.5","605a2dbead400eae8de18f8c","6796e1c0ff24ca17c453c51c","67c70c4c57a6c80e7cd71ccf","passed","","","","","","","","","","","","","","","","","ballFalling_prac","441","500","317","6","fallScene","true","","","","","","","",""
"","","","","","html-keyboard-response","100","884813","0.0-13.1-7.1-1.5","605a2dbead400eae8de18f8c","6796e1c0ff24ca17c453c51c","67c70c4c57a6c80e7cd71ccf","passed","","682","","","","","","","","","","","","","","j","yesOrNo_prac","","","","6","","","close gt","700","","","","","",""
"","","","","","html-keyboard-response","101","885980","0.0-13.1-8.1","605a2dbead400eae8de18f8c","6796e1c0ff24ca17c453c51c","67c70c4c57a6c80e7cd71ccf","passed","","1166","","","","","","","","","","","","","<p><span style=""font-size:40px;"">Practice Test BLOCK 2</span></p><p><span style=""font-size:25px;"">You have <b style=""color: #FF644F;""><strong>3 second(s)</strong></b> to respond to the following trials.</span><br></p><p id=""blinking-text"" style=""font-weight; animation: blink 2s infinite;"">Press Space to continue</p><style>
                    @keyframes blink {
                        50% {
                            opacity: 0;
                        }
                    }
                </style>"," ","","","","","","","","","","","","","","",""
"","","","","","html-keyboard-response","102","887564","0.0-13.1-9.1-0.3","605a2dbead400eae8de18f8c","6796e1c0ff24ca17c453c51c","67c70c4c57a6c80e7cd71ccf","passed","","","","","","","","","","","","","","","","","ballFalling_prac","559","586","302","5","fallScene","false","","","","","","","",""
"","","","","","html-keyboard-response","103","890573","0.0-13.1-9.1-1.3","605a2dbead400eae8de18f8c","6796e1c0ff24ca17c453c51c","67c70c4c57a6c80e7cd71ccf","passed","","1177","","","","","","","","","","","","","","f","yesOrNo_prac","","","","5","","","far gt","3000","","","","","",""
"","","","","","html-keyboard-response","104","892149","0.0-13.1-9.1-0.4","605a2dbead400eae8de18f8c","6796e1c0ff24ca17c453c51c","67c70c4c57a6c80e7cd71ccf","passed","","","","","","","","","","","","","","","","","ballFalling_prac","416","365","249","2","fallScene","false","","","","","","","",""
"","","","","","html-keyboard-response","105","895152","0.0-13.1-9.1-1.4","605a2dbead400eae8de18f8c","6796e1c0ff24ca17c453c51c","67c70c4c57a6c80e7cd71ccf","passed","","1215","","","","","","","","","","","","","","f","yesOrNo_prac","","","","2","","","gt","3000","","","","","",""
"","","","","","html-keyboard-response","106","896748","0.0-13.1-9.1-0.5","605a2dbead400eae8de18f8c","6796e1c0ff24ca17c453c51c","67c70c4c57a6c80e7cd71ccf","passed","","","","","","","","","","","","","","","","","ballFalling_prac","340","390","263","4","fallScene","true","","","","","","","",""
"","","","","","html-keyboard-response","107","899751","0.0-13.1-9.1-1.5","605a2dbead400eae8de18f8c","6796e1c0ff24ca17c453c51c","67c70c4c57a6c80e7cd71ccf","passed","","745","","","","","","","","","","","","","","j","yesOrNo_prac","","","","4","","","close gt","3000","","","","","",""
"","","","","","instructions","108","903665","0.0-14.0","605a2dbead400eae8de18f8c","6796e1c0ff24ca17c453c51c","67c70c4c57a6c80e7cd71ccf","passed","[{""page_index"":0,""viewing_time"":3911}]","3912","","","","","","","","","","","","","","","","","","","","","","","","","","","","",""
"","","","","","html-keyboard-response","109","905488","0.0-15.0","605a2dbead400eae8de18f8c","6796e1c0ff24ca17c453c51c","67c70c4c57a6c80e7cd71ccf","passed","","1821","","","","","","","","","","","","","<p><span style=""font-size:40px;"">BLOCK 1</span></p><p><span style=""font-size:25px;"">You have <b style=""color: #FF644F;""><strong>0.7 second(s)</strong></b> to respond to the following trials.</span><br></p><p></p> <!-- Blank line -->
                <p id=""blinking-text"" style=""font-weight; animation: blink 2s infinite;"">Press Space to continue</p>
                <style>
                    @keyframes blink {
                        50% {
                            opacity: 0;
                        }
                    }
                </style></p>"," ","","","","","","","","","","","","","","",""
"","","","","","html-keyboard-response","110","907499","0.0-16.0-0.0","605a2dbead400eae8de18f8c","6796e1c0ff24ca17c453c51c","67c70c4c57a6c80e7cd71ccf","passed","","","","","","","","","","","","","","","","","ballFalling","500","510.8711431702997","369.03","8","fallScene","true","","","","","","1","",""
"","","","","","html-keyboard-response","111","908213","0.0-16.0-1.0","605a2dbead400eae8de18f8c","6796e1c0ff24ca17c453c51c","67c70c4c57a6c80e7cd71ccf","passed","","null","","","","","","","","","","","","","","null","yesOrNo","","","","8","","","mid","700","","","","1","501","300"
"","","","","","html-keyboard-response","112","910218","0.0-16.0-0.1","605a2dbead400eae8de18f8c","6796e1c0ff24ca17c453c51c","67c70c4c57a6c80e7cd71ccf","passed","","","","","","","","","","","","","","","","","ballFalling","604.4000000000001","596.8711431702998","394.5","10","fallScene","false","","","","","","2","",""
"","","","","","html-keyboard-response","113","910932","0.0-16.0-1.1","605a2dbead400eae8de18f8c","6796e1c0ff24ca17c453c51c","67c70c4c57a6c80e7cd71ccf","passed","","677","","","","","","","","","","","","","","j","yesOrNo","","","","10","","","gt","700","","","","2","596.8711431702998","394.5"
"","","","","","html-keyboard-response","114","912484","0.0-16.0-0.2","605a2dbead400eae8de18f8c","6796e1c0ff24ca17c453c51c","67c70c4c57a6c80e7cd71ccf","passed","","","","","","","","","","","","","","","","","ballFalling","500","553.4711431702997","282.51","7","fallScene","false","","","","","","3","",""
"","","","","","html-keyboard-response","115","913199","0.0-16.0-1.2","605a2dbead400eae8de18f8c","6796e1c0ff24ca17c453c51c","67c70c4c57a6c80e7cd71ccf","passed","","500","","","","","","","","","","","","","","j","yesOrNo","","","","7","","","gt","700","","","","3","553.4711431702997","282.51"
"","","","","","html-keyboard-response","116","914733","0.0-16.0-0.3","605a2dbead400eae8de18f8c","6796e1c0ff24ca17c453c51c","67c70c4c57a6c80e7cd71ccf","passed","","","","","","","","","","","","","","","","","ballFalling","322.3","379.3711431702997","245.25","1","fallScene","true","","","","","","4","",""
"","","","","","html-keyboard-response","117","915443","0.0-16.0-1.3","605a2dbead400eae8de18f8c","6796e1c0ff24ca17c453c51c","67c70c4c57a6c80e7cd71ccf","passed","","null","","","","","","","","","","","","","","null","yesOrNo","","","","1","","","lp","700","","","","4","323.3","217.74551669457017"
"","","","","","html-keyboard-response","118","916918","0.0-16.0-0.4","605a2dbead400eae8de18f8c","6796e1c0ff24ca17c453c51c","67c70c4c57a6c80e7cd71ccf","passed","","","","","","","","","","","","","","","","","ballFalling","604.4000000000001","667.6211431702998","201.78","9","fallScene","true","","","","","","5","",""
"","","","","","html-keyboard-response","119","917627","0.0-16.0-1.4","605a2dbead400eae8de18f8c","6796e1c0ff24ca17c453c51c","67c70c4c57a6c80e7cd71ccf","passed","","595","","","","","","","","","","","","","","f","yesOrNo","","","","9","","","mid","700","","","","5","605.4000000000001","300"
"","","","","","html-keyboard-response","120","919418","0.0-16.0-0.5","605a2dbead400eae8de18f8c","6796e1c0ff24ca17c453c51c","67c70c4c57a6c80e7cd71ccf","passed","","","","","","","","","","","","","","","","","ballFalling","322.3","308.07114317029976","253.89","2","fallScene","false","","","","","","6","",""
"","","","","","html-keyboard-response","121","920136","0.0-16.0-1.5","605a2dbead400eae8de18f8c","6796e1c0ff24ca17c453c51c","67c70c4c57a6c80e7cd71ccf","passed","","468","","","","","","","","","","","","","","j","yesOrNo","","","","2","","","mid","700","","","","6","321.3","300"
"","","","","","html-keyboard-response","122","921702","0.0-16.0-0.6","605a2dbead400eae8de18f8c","6796e1c0ff24ca17c453c51c","67c70c4c57a6c80e7cd71ccf","passed","","","","","","","","","","","","","","","","","ballFalling","500","453.67114317029973","210.33","5","fallScene","false","","","","","","7","",""
"","","","","","html-keyboard-response","123","922404","0.0-16.0-1.6","605a2dbead400eae8de18f8c","6796e1c0ff24ca17c453c51c","67c70c4c57a6c80e7cd71ccf","passed","","667","","","","","","","","","","","","","","j","yesOrNo","","","","5","","","gt","700","","","","7","453.6711431702998","210.33"
"","","","","","html-keyboard-response","124","924419","0.0-16.0-0.7","605a2dbead400eae8de18f8c","6796e1c0ff24ca17c453c51c","67c70c4c57a6c80e7cd71ccf","passed","","","","","","","","","","","","","","","","","ballFalling","604.4000000000001","596.8711431702998","394.5","10","fallScene","false","","","","","","8","",""
"","","","","","html-keyboard-response","125","925130","0.0-16.0-1.7","605a2dbead400eae8de18f8c","6796e1c0ff24ca17c453c51c","67c70c4c57a6c80e7cd71ccf","passed","","null","","","","","","","","","","","","","","null","yesOrNo","","","","10","","","gt","700","","","","8","596.8711431702998","394.5"
"","","","","","html-keyboard-response","126","926702","0.0-16.0-0.8","605a2dbead400eae8de18f8c","6796e1c0ff24ca17c453c51c","67c70c4c57a6c80e7cd71ccf","passed","","","","","","","","","","","","","","","","","ballFalling","500","553.4711431702997","282.51","7","fallScene","false","","","","","","9","",""
"","","","","","html-keyboard-response","127","927411","0.0-16.0-1.8","605a2dbead400eae8de18f8c","6796e1c0ff24ca17c453c51c","67c70c4c57a6c80e7cd71ccf","passed","","656","","","","","","","","","","","","","","j","yesOrNo","","","","7","","","lp","700","","","","9","501","227.2843295913261"
"","","","","","html-keyboard-response","128","928970","0.0-16.0-0.9","605a2dbead400eae8de18f8c","6796e1c0ff24ca17c453c51c","67c70c4c57a6c80e7cd71ccf","passed","","","","","","","","","","","","","","","","","ballFalling","322.3","379.3711431702997","245.25","1","fallScene","true","","","","","","10","",""
"","","","","","html-keyboard-response","129","929678","0.0-16.0-1.9","605a2dbead400eae8de18f8c","6796e1c0ff24ca17c453c51c","67c70c4c57a6c80e7cd71ccf","passed","","601","","","","","","","","","","","","","","j","yesOrNo","","","","1","","","mid","700","","","","10","390.27114317029975","300"
"","","","","","html-keyboard-response","130","931469","0.0-16.0-0.10","605a2dbead400eae8de18f8c","6796e1c0ff24ca17c453c51c","67c70c4c57a6c80e7cd71ccf","passed","","","","","","","","","","","","","","","","","ballFalling","322.3","308.07114317029976","253.89","2","fallScene","false","","","","","","11","",""
"","","","","","html-keyboard-response","131","932183","0.0-16.0-1.10","605a2dbead400eae8de18f8c","6796e1c0ff24ca17c453c51c","67c70c4c57a6c80e7cd71ccf","passed","","644","","","","","","","","","","","","","","f","yesOrNo","","","","2","","","lp","700","","","","11","321.3","151"
"","","","","","html-keyboard-response","132","933736","0.0-16.0-0.11","605a2dbead400eae8de18f8c","6796e1c0ff24ca17c453c51c","67c70c4c57a6c80e7cd71ccf","passed","","","","","","","","","","","","","","","","","ballFalling","322.3","296.07114317029976","371.46","3","fallScene","true","","","","","","12","",""
"","","","","","html-keyboard-response","133","934441","0.0-16.0-1.11","605a2dbead400eae8de18f8c","6796e1c0ff24ca17c453c51c","67c70c4c57a6c80e7cd71ccf","passed","","568","","","","","","","","","","","","","","j","yesOrNo","","","","3","","","lp","700","","","","12","321.3","287.3327096511259"
"","","","","","html-keyboard-response","134","935937","0.0-16.0-0.12","605a2dbead400eae8de18f8c","6796e1c0ff24ca17c453c51c","67c70c4c57a6c80e7cd71ccf","passed","","","","","","","","","","","","","","","","","ballFalling","604.4000000000001","667.6211431702998","201.78","9","fallScene","true","","","","","","13","",""
"","","","","","html-keyboard-response","135","936645","0.0-16.0-1.12","605a2dbead400eae8de18f8c","6796e1c0ff24ca17c453c51c","67c70c4c57a6c80e7cd71ccf","passed","","633","","","","","","","","","","","","","","j","yesOrNo","","","","9","","","lp","700","","","","13","605.4000000000001","151"
"","","","","","html-keyboard-response","136","938303","0.0-16.0-0.13","605a2dbead400eae8de18f8c","6796e1c0ff24ca17c453c51c","67c70c4c57a6c80e7cd71ccf","passed","","","","","","","","","","","","","","","","","ballFalling","500","479.92114317029973","330.87","6","fallScene","false","","","","","","14","",""
"","","","","","html-keyboard-response","137","939007","0.0-16.0-1.13","605a2dbead400eae8de18f8c","6796e1c0ff24ca17c453c51c","67c70c4c57a6c80e7cd71ccf","passed","","572","","","","","","","","","","","","","","j","yesOrNo","","","","6","","","gt","700","","","","14","479.9211431702998","330.87"
"","","","","","html-keyboard-response","138","940571","0.0-16.0-0.14","605a2dbead400eae8de18f8c","6796e1c0ff24ca17c453c51c","67c70c4c57a6c80e7cd71ccf","passed","","","","","","","","","","","","","","","","","ballFalling","322.3","356.42114317029973","357.87","4","fallScene","false","","","","","","15","",""
"","","","","","html-keyboard-response","139","941278","0.0-16.0-1.14","605a2dbead400eae8de18f8c","6796e1c0ff24ca17c453c51c","67c70c4c57a6c80e7cd71ccf","passed","","null","","","","","","","","","","","","","","null","yesOrNo","","","","4","","","gt","700","","","","15","356.42114317029973","357.87"
"","","","","","html-keyboard-response","140","942837","0.0-16.0-0.15","605a2dbead400eae8de18f8c","6796e1c0ff24ca17c453c51c","67c70c4c57a6c80e7cd71ccf","passed","","","","","","","","","","","","","","","","","ballFalling","322.3","296.07114317029976","371.46","3","fallScene","true","","","","","","16","",""
"","","","","","html-keyboard-response","141","943552","0.0-16.0-1.15","605a2dbead400eae8de18f8c","6796e1c0ff24ca17c453c51c","67c70c4c57a6c80e7cd71ccf","passed","","553","","","","","","","","","","","","","","j","yesOrNo","","","","3","","","mid","700","","","","16","321.3","300"
"","","","","","html-keyboard-response","142","945104","0.0-16.0-0.16","605a2dbead400eae8de18f8c","6796e1c0ff24ca17c453c51c","67c70c4c57a6c80e7cd71ccf","passed","","","","","","","","","","","","","","","","","ballFalling","604.4000000000001","575.4211431702997","266.76","12","fallScene","false","","","","","","17","",""
"","","","","","html-keyboard-response","143","945817","0.0-16.0-1.16","605a2dbead400eae8de18f8c","6796e1c0ff24ca17c453c51c","67c70c4c57a6c80e7cd71ccf","passed","","649","","","","","","","","","","","","","","f","yesOrNo","","","","12","","","lp","700","","","","17","603.4000000000001","151"
"","","","","","html-keyboard-response","144","947371","0.0-16.0-0.17","605a2dbead400eae8de18f8c","6796e1c0ff24ca17c453c51c","67c70c4c57a6c80e7cd71ccf","passed","","","","","","","","","","","","","","","","","ballFalling","604.4000000000001","650.0211431702996","404.58000000000004","11","fallScene","false","","","","","","18","",""
"","","","","","html-keyboard-response","145","948077","0.0-16.0-1.17","605a2dbead400eae8de18f8c","6796e1c0ff24ca17c453c51c","67c70c4c57a6c80e7cd71ccf","passed","","null","","","","","","","","","","","","","","null","yesOrNo","","","","11","","","lp","700","","","","18","605.4000000000001","372.6340973215488"
"","","","","","html-keyboard-response","146","949571","0.0-16.0-0.18","605a2dbead400eae8de18f8c","6796e1c0ff24ca17c453c51c","67c70c4c57a6c80e7cd71ccf","passed","","","","","","","","","","","","","","","","","ballFalling","604.4000000000001","667.6211431702998","201.78","9","fallScene","true","","","","","","19","",""
"","","","","","html-keyboard-response","147","950289","0.0-16.0-1.18","605a2dbead400eae8de18f8c","6796e1c0ff24ca17c453c51c","67c70c4c57a6c80e7cd71ccf","passed","","681","","","","","","","","","","","","","","j","yesOrNo","","","","9","","","gt","700","","","","19","667.6211431702998","201.78"
"","","","","","html-keyboard-response","148","951855","0.0-16.0-0.19","605a2dbead400eae8de18f8c","6796e1c0ff24ca17c453c51c","67c70c4c57a6c80e7cd71ccf","passed","","","","","","","","","","","","","","","","","ballFalling","322.3","379.3711431702997","245.25","1","fallScene","false","","","","","","20","",""
"","","","","","html-keyboard-response","149","952566","0.0-16.0-1.19","605a2dbead400eae8de18f8c","6796e1c0ff24ca17c453c51c","67c70c4c57a6c80e7cd71ccf","passed","","582","","","","","","","","","","","","","","j","yesOrNo","","","","1","","","gt","700","","","","20","379.3711431702997","245.25"
"","","","","","html-keyboard-response","150","954572","0.0-16.0-0.20","605a2dbead400eae8de18f8c","6796e1c0ff24ca17c453c51c","67c70c4c57a6c80e7cd71ccf","passed","","","","","","","","","","","","","","","","","ballFalling","500","510.8711431702997","369.03","8","fallScene","false","","","","","","21","",""
"","","","","","html-keyboard-response","151","955289","0.0-16.0-1.20","605a2dbead400eae8de18f8c","6796e1c0ff24ca17c453c51c","67c70c4c57a6c80e7cd71ccf","passed","","null","","","","","","","","","","","","","","null","yesOrNo","","","","8","","","gt","700","","","","21","510.8711431702997","369.03"
"","","","","","html-keyboard-response","152","956774","0.0-16.0-0.21","605a2dbead400eae8de18f8c","6796e1c0ff24ca17c453c51c","67c70c4c57a6c80e7cd71ccf","passed","","","","","","","","","","","","","","","","","ballFalling","604.4000000000001","667.6211431702998","201.78","9","fallScene","false","","","","","","22","",""
"","","","","","html-keyboard-response","153","957486","0.0-16.0-1.21","605a2dbead400eae8de18f8c","6796e1c0ff24ca17c453c51c","67c70c4c57a6c80e7cd71ccf","passed","","null","","","","","","","","","","","","","","null","yesOrNo","","","","9","","","gt","700","","","","22","667.6211431702998","201.78"
"","","","","","html-keyboard-response","154","959024","0.0-16.0-0.22","605a2dbead400eae8de18f8c","6796e1c0ff24ca17c453c51c","67c70c4c57a6c80e7cd71ccf","passed","","","","","","","","","","","","","","","","","ballFalling","604.4000000000001","575.4211431702997","266.76","12","fallScene","false","","","","","","23","",""
"","","","","","html-keyboard-response","155","959735","0.0-16.0-1.22","605a2dbead400eae8de18f8c","6796e1c0ff24ca17c453c51c","67c70c4c57a6c80e7cd71ccf","passed","","506","","","","","","","","","","","","","","f","yesOrNo","","","","12","","","lp","700","","","","23","603.4000000000001","151"
"","","","","","html-keyboard-response","156","961240","0.0-16.0-0.23","605a2dbead400eae8de18f8c","6796e1c0ff24ca17c453c51c","67c70c4c57a6c80e7cd71ccf","passed","","","","","","","","","","","","","","","","","ballFalling","322.3","356.42114317029973","357.87","4","fallScene","false","","","","","","24","",""
"","","","","","html-keyboard-response","157","961954","0.0-16.0-1.23","605a2dbead400eae8de18f8c","6796e1c0ff24ca17c453c51c","67c70c4c57a6c80e7cd71ccf","passed","","533","","","","","","","","","","","","","","j","yesOrNo","","","","4","","","mid","700","","","","24","390.27114317029975","300"
"","","","","","html-keyboard-response","158","986658","0.0-17.0","605a2dbead400eae8de18f8c","6796e1c0ff24ca17c453c51c","67c70c4c57a6c80e7cd71ccf","passed","","24703","","","","","","","","","","","","","<p><span style=""font-size:40px;"">BLOCK 2</span></p><p><span style=""font-size:25px;"">You have <b style=""color: #FF644F;""><strong>0.7 second(s)</strong></b> to respond to the following trials.</span><br></p><p></p> <!-- Blank line -->
                <p id=""blinking-text"" style=""font-weight; animation: blink 2s infinite;"">Press Space to continue</p>
                <style>
                    @keyframes blink {
                        50% {
                            opacity: 0;
                        }
                    }
                </style></p>"," ","","","","","","","","","","","","","","",""
"","","","","","html-keyboard-response","159","988660","0.0-18.0-0.0","605a2dbead400eae8de18f8c","6796e1c0ff24ca17c453c51c","67c70c4c57a6c80e7cd71ccf","passed","","","","","","","","","","","","","","","","","ballFalling","500","510.8711431702997","369.03","8","fallScene","true","","","","","","25","",""
"","","","","","html-keyboard-response","160","989368","0.0-18.0-1.0","605a2dbead400eae8de18f8c","6796e1c0ff24ca17c453c51c","67c70c4c57a6c80e7cd71ccf","passed","","null","","","","","","","","","","","","","","null","yesOrNo","","","","8","","","lp","700","","","","25","501","151"
"","","","","","html-keyboard-response","161","991159","0.0-18.0-0.1","605a2dbead400eae8de18f8c","6796e1c0ff24ca17c453c51c","67c70c4c57a6c80e7cd71ccf","passed","","","","","","","","","","","","","","","","","ballFalling","322.3","308.07114317029976","253.89","2","fallScene","true","","","","","","26","",""
"","","","","","html-keyboard-response","162","991863","0.0-18.0-1.1","605a2dbead400eae8de18f8c","6796e1c0ff24ca17c453c51c","67c70c4c57a6c80e7cd71ccf","passed","","558","","","","","","","","","","","","","","f","yesOrNo","","","","2","","","gt","700","","","","26","308.07114317029976","253.89"
"","","","","","html-keyboard-response","163","993426","0.0-18.0-0.2","605a2dbead400eae8de18f8c","6796e1c0ff24ca17c453c51c","67c70c4c57a6c80e7cd71ccf","passed","","","","","","","","","","","","","","","","","ballFalling","500","453.67114317029973","210.33","5","fallScene","true","","","","","","27","",""
"","","","","","html-keyboard-response","164","994135","0.0-18.0-1.2","605a2dbead400eae8de18f8c","6796e1c0ff24ca17c453c51c","67c70c4c57a6c80e7cd71ccf","passed","","null","","","","","","","","","","","","","","null","yesOrNo","","","","5","","","lp","700","","","","27","499","151"
"","","","","","html-keyboard-response","165","995927","0.0-18.0-0.3","605a2dbead400eae8de18f8c","6796e1c0ff24ca17c453c51c","67c70c4c57a6c80e7cd71ccf","passed","","","","","","","","","","","","","","","","","ballFalling","322.3","308.07114317029976","253.89","2","fallScene","true","","","","","","28","",""
"","","","","","html-keyboard-response","166","996636","0.0-18.0-1.3","605a2dbead400eae8de18f8c","6796e1c0ff24ca17c453c51c","67c70c4c57a6c80e7cd71ccf","passed","","514","","","","","","","","","","","","","","j","yesOrNo","","","","2","","","gt","700","","","","28","308.07114317029976","253.89"
"","","","","","html-keyboard-response","167","998175","0.0-18.0-0.4","605a2dbead400eae8de18f8c","6796e1c0ff24ca17c453c51c","67c70c4c57a6c80e7cd71ccf","passed","","","","","","","","","","","","","","","","","ballFalling","500","453.67114317029973","210.33","5","fallScene","true","","","","","","29","",""
"","","","","","html-keyboard-response","168","998892","0.0-18.0-1.4","605a2dbead400eae8de18f8c","6796e1c0ff24ca17c453c51c","67c70c4c57a6c80e7cd71ccf","passed","","387","","","","","","","","","","","","","","j","yesOrNo","","","","5","","","mid","700","","","","29","499","300"
"","","","","","html-keyboard-response","169","1000460","0.0-18.0-0.5","605a2dbead400eae8de18f8c","6796e1c0ff24ca17c453c51c","67c70c4c57a6c80e7cd71ccf","passed","","","","","","","","","","","","","","","","","ballFalling","500","553.4711431702997","282.51","7","fallScene","false","","","","","","30","",""
"","","","","","html-keyboard-response","170","1001163","0.0-18.0-1.5","605a2dbead400eae8de18f8c","6796e1c0ff24ca17c453c51c","67c70c4c57a6c80e7cd71ccf","passed","","489","","","","","","","","","","","","","","j","yesOrNo","","","","7","","","mid","700","","","","30","501","300"
"","","","","","html-keyboard-response","171","1002727","0.0-18.0-0.6","605a2dbead400eae8de18f8c","6796e1c0ff24ca17c453c51c","67c70c4c57a6c80e7cd71ccf","passed","","","","","","","","","","","","","","","","","ballFalling","322.3","379.3711431702997","245.25","1","fallScene","false","","","","","","31","",""
"","","","","","html-keyboard-response","172","1003440","0.0-18.0-1.6","605a2dbead400eae8de18f8c","6796e1c0ff24ca17c453c51c","67c70c4c57a6c80e7cd71ccf","passed","","651","","","","","","","","","","","","","","j","yesOrNo","","","","1","","","gt","700","","","","31","379.3711431702997","245.25"
"","","","","","html-keyboard-response","173","1004961","0.0-18.0-0.7","605a2dbead400eae8de18f8c","6796e1c0ff24ca17c453c51c","67c70c4c57a6c80e7cd71ccf","passed","","","","","","","","","","","","","","","","","ballFalling","500","553.4711431702997","282.51","7","fallScene","true","","","","","","32","",""
"","","","","","html-keyboard-response","174","1005665","0.0-18.0-1.7","605a2dbead400eae8de18f8c","6796e1c0ff24ca17c453c51c","67c70c4c57a6c80e7cd71ccf","passed","","null","","","","","","","","","","","","","","null","yesOrNo","","","","7","","","gt","700","","","","32","553.4711431702997","282.51"
"","","","","","html-keyboard-response","175","1007244","0.0-18.0-0.8","605a2dbead400eae8de18f8c","6796e1c0ff24ca17c453c51c","67c70c4c57a6c80e7cd71ccf","passed","","","","","","","","","","","","","","","","","ballFalling","500","553.4711431702997","282.51","7","fallScene","false","","","","","","33","",""
"","","","","","html-keyboard-response","176","1007950","0.0-18.0-1.8","605a2dbead400eae8de18f8c","6796e1c0ff24ca17c453c51c","67c70c4c57a6c80e7cd71ccf","passed","","440","","","","","","","","","","","","","","j","yesOrNo","","","","7","","","mid","700","","","","33","501","300"
"","","","","","html-keyboard-response","177","1009512","0.0-18.0-0.9","605a2dbead400eae8de18f8c","6796e1c0ff24ca17c453c51c","67c70c4c57a6c80e7cd71ccf","passed","","","","","","","","","","","","","","","","","ballFalling","500","453.67114317029973","210.33","5","fallScene","false","","","","","","34","",""
"","","","","","html-keyboard-response","178","1010215","0.0-18.0-1.9","605a2dbead400eae8de18f8c","6796e1c0ff24ca17c453c51c","67c70c4c57a6c80e7cd71ccf","passed","","424","","","","","","","","","","","","","","j","yesOrNo","","","","5","","","mid","700","","","","34","499","300"
"","","","","","html-keyboard-response","179","1011778","0.0-18.0-0.10","605a2dbead400eae8de18f8c","6796e1c0ff24ca17c453c51c","67c70c4c57a6c80e7cd71ccf","passed","","","","","","","","","","","","","","","","","ballFalling","322.3","379.3711431702997","245.25","1","fallScene","false","","","","","","35","",""
"","","","","","html-keyboard-response","180","1012493","0.0-18.0-1.10","605a2dbead400eae8de18f8c","6796e1c0ff24ca17c453c51c","67c70c4c57a6c80e7cd71ccf","passed","","null","","","","","","","","","","","","","","null","yesOrNo","","","","1","","","mid","700","","","","35","390.27114317029975","300"
"","","","","","html-keyboard-response","181","1014044","0.0-18.0-0.11","605a2dbead400eae8de18f8c","6796e1c0ff24ca17c453c51c","67c70c4c57a6c80e7cd71ccf","passed","","","","","","","","","","","","","","","","","ballFalling","322.3","379.3711431702997","245.25","1","fallScene","true","","","","","","36","",""
"","","","","","html-keyboard-response","182","1014756","0.0-18.0-1.11","605a2dbead400eae8de18f8c","6796e1c0ff24ca17c453c51c","67c70c4c57a6c80e7cd71ccf","passed","","null","","","","","","","","","","","","","","null","yesOrNo","","","","1","","","lp","700","","","","36","323.3","217.74551669457017"
"","","","","","html-keyboard-response","183","1016762","0.0-18.0-0.12","605a2dbead400eae8de18f8c","6796e1c0ff24ca17c453c51c","67c70c4c57a6c80e7cd71ccf","passed","","","","","","","","","","","","","","","","","ballFalling","604.4000000000001","596.8711431702998","394.5","10","fallScene","true","","","","","","37","",""
"","","","","","html-keyboard-response","184","1017473","0.0-18.0-1.12","605a2dbead400eae8de18f8c","6796e1c0ff24ca17c453c51c","67c70c4c57a6c80e7cd71ccf","passed","","618","","","","","","","","","","","","","","f","yesOrNo","","","","10","","","mid","700","","","","37","536.4288568297004","300"
"","","","","","html-keyboard-response","185","1019118","0.0-18.0-0.13","605a2dbead400eae8de18f8c","6796e1c0ff24ca17c453c51c","67c70c4c57a6c80e7cd71ccf","passed","","","","","","","","","","","","","","","","","ballFalling","500","479.92114317029973","330.87","6","fallScene","false","","","","","","38","",""
"","","","","","html-keyboard-response","186","1019825","0.0-18.0-1.13","605a2dbead400eae8de18f8c","6796e1c0ff24ca17c453c51c","67c70c4c57a6c80e7cd71ccf","passed","","429","","","","","","","","","","","","","","j","yesOrNo","","","","6","","","mid","700","","","","38","499","300"
"","","","","","html-keyboard-response","187","1021379","0.0-18.0-0.14","605a2dbead400eae8de18f8c","6796e1c0ff24ca17c453c51c","67c70c4c57a6c80e7cd71ccf","passed","","","","","","","","","","","","","","","","","ballFalling","604.4000000000001","650.0211431702996","404.58000000000004","11","fallScene","true","","","","","","39","",""
"","","","","","html-keyboard-response","188","1022086","0.0-18.0-1.14","605a2dbead400eae8de18f8c","6796e1c0ff24ca17c453c51c","67c70c4c57a6c80e7cd71ccf","passed","","476","","","","","","","","","","","","","","j","yesOrNo","","","","11","","","mid","700","","","","39","605.4000000000001","300"
"","","","","","html-keyboard-response","189","1023628","0.0-18.0-0.15","605a2dbead400eae8de18f8c","6796e1c0ff24ca17c453c51c","67c70c4c57a6c80e7cd71ccf","passed","","","","","","","","","","","","","","","","","ballFalling","604.4000000000001","575.4211431702997","266.76","12","fallScene","false","","","","","","40","",""
"","","","","","html-keyboard-response","190","1024344","0.0-18.0-1.15","605a2dbead400eae8de18f8c","6796e1c0ff24ca17c453c51c","67c70c4c57a6c80e7cd71ccf","passed","","null","","","","","","","","","","","","","","null","yesOrNo","","","","12","","","mid","700","","","","40","536.4288568297004","300"
"","","","","","html-keyboard-response","191","1026348","0.0-18.0-0.16","605a2dbead400eae8de18f8c","6796e1c0ff24ca17c453c51c","67c70c4c57a6c80e7cd71ccf","passed","","","","","","","","","","","","","","","","","ballFalling","500","510.8711431702997","369.03","8","fallScene","false","","","","","","41","",""
"","","","","","html-keyboard-response","192","1027052","0.0-18.0-1.16","605a2dbead400eae8de18f8c","6796e1c0ff24ca17c453c51c","67c70c4c57a6c80e7cd71ccf","passed","","642","","","","","","","","","","","","","","j","yesOrNo","","","","8","","","mid","700","","","","41","501","300"
"","","","","","html-keyboard-response","193","1028713","0.0-18.0-0.17","605a2dbead400eae8de18f8c","6796e1c0ff24ca17c453c51c","67c70c4c57a6c80e7cd71ccf","passed","","","","","","","","","","","","","","","","","ballFalling","500","479.92114317029973","330.87","6","fallScene","false","","","","","","42","",""
"","","","","","html-keyboard-response","194","1029428","0.0-18.0-1.17","605a2dbead400eae8de18f8c","6796e1c0ff24ca17c453c51c","67c70c4c57a6c80e7cd71ccf","passed","","null","","","","","","","","","","","","","","null","yesOrNo","","","","6","","","lp","700","","","","42","499","189.92909825697632"
"","","","","","html-keyboard-response","195","1030979","0.0-18.0-0.18","605a2dbead400eae8de18f8c","6796e1c0ff24ca17c453c51c","67c70c4c57a6c80e7cd71ccf","passed","","","","","","","","","","","","","","","","","ballFalling","604.4000000000001","650.0211431702996","404.58000000000004","11","fallScene","true","","","","","","43","",""
"","","","","","html-keyboard-response","196","1031685","0.0-18.0-1.18","605a2dbead400eae8de18f8c","6796e1c0ff24ca17c453c51c","67c70c4c57a6c80e7cd71ccf","passed","","615","","","","","","","","","","","","","","j","yesOrNo","","","","11","","","gt","700","","","","43","650.0211431702996","404.58"
"","","","","","html-keyboard-response","197","1033347","0.0-18.0-0.19","605a2dbead400eae8de18f8c","6796e1c0ff24ca17c453c51c","67c70c4c57a6c80e7cd71ccf","passed","","","","","","","","","","","","","","","","","ballFalling","500","479.92114317029973","330.87","6","fallScene","true","","","","","","44","",""
"","","","","","html-keyboard-response","198","1034054","0.0-18.0-1.19","605a2dbead400eae8de18f8c","6796e1c0ff24ca17c453c51c","67c70c4c57a6c80e7cd71ccf","passed","","633","","","","","","","","","","","","","","j","yesOrNo","","","","6","","","mid","700","","","","44","499","300"
"","","","","","html-keyboard-response","199","1036064","0.0-18.0-0.20","605a2dbead400eae8de18f8c","6796e1c0ff24ca17c453c51c","67c70c4c57a6c80e7cd71ccf","passed","","","","","","","","","","","","","","","","","ballFalling","500","510.8711431702997","369.03","8","fallScene","false","","","","","","45","",""
"","","","","","html-keyboard-response","200","1036776","0.0-18.0-1.20","605a2dbead400eae8de18f8c","6796e1c0ff24ca17c453c51c","67c70c4c57a6c80e7cd71ccf","passed","","521","","","","","","","","","","","","","","j","yesOrNo","","","","8","","","gt","700","","","","45","510.8711431702997","369.03"
"","","","","","html-keyboard-response","201","1038331","0.0-18.0-0.21","605a2dbead400eae8de18f8c","6796e1c0ff24ca17c453c51c","67c70c4c57a6c80e7cd71ccf","passed","","","","","","","","","","","","","","","","","ballFalling","604.4000000000001","650.0211431702996","404.58000000000004","11","fallScene","false","","","","","","46","",""
"","","","","","html-keyboard-response","202","1039048","0.0-18.0-1.21","605a2dbead400eae8de18f8c","6796e1c0ff24ca17c453c51c","67c70c4c57a6c80e7cd71ccf","passed","","null","","","","","","","","","","","","","","null","yesOrNo","","","","11","","","gt","700","","","","46","650.0211431702996","404.58"
"","","","","","html-keyboard-response","203","1040848","0.0-18.0-0.22","605a2dbead400eae8de18f8c","6796e1c0ff24ca17c453c51c","67c70c4c57a6c80e7cd71ccf","passed","","","","","","","","","","","","","","","","","ballFalling","322.3","308.07114317029976","253.89","2","fallScene","false","","","","","","47","",""
"","","","","","html-keyboard-response","204","1041558","0.0-18.0-1.22","605a2dbead400eae8de18f8c","6796e1c0ff24ca17c453c51c","67c70c4c57a6c80e7cd71ccf","passed","","null","","","","","","","","","","","","","","null","yesOrNo","","","","2","","","mid","700","","","","47","321.3","300"
"","","","","","html-keyboard-response","205","1043117","0.0-18.0-0.23","605a2dbead400eae8de18f8c","6796e1c0ff24ca17c453c51c","67c70c4c57a6c80e7cd71ccf","passed","","","","","","","","","","","","","","","","","ballFalling","322.3","356.42114317029973","357.87","4","fallScene","true","","","","","","48","",""
"","","","","","html-keyboard-response","206","1043822","0.0-18.0-1.23","605a2dbead400eae8de18f8c","6796e1c0ff24ca17c453c51c","67c70c4c57a6c80e7cd71ccf","passed","","580","","","","","","","","","","","","","","j","yesOrNo","","","","4","","","mid","700","","","","48","390.27114317029975","300"
"","","","","","html-keyboard-response","207","1046245","0.0-19.0","605a2dbead400eae8de18f8c","6796e1c0ff24ca17c453c51c","67c70c4c57a6c80e7cd71ccf","passed","","2422","","","","","","","","","","","","","<p><span style=""font-size:40px;"">BLOCK 3</span></p><p><span style=""font-size:25px;"">You have <b style=""color: #FF644F;""><strong>0.7 second(s)</strong></b> to respond to the following trials.</span><br></p><p></p> <!-- Blank line -->
                <p id=""blinking-text"" style=""font-weight; animation: blink 2s infinite;"">Press Space to continue</p>
                <style>
                    @keyframes blink {
                        50% {
                            opacity: 0;
                        }
                    }
                </style></p>"," ","","","","","","","","","","","","","","",""
"","","","","","html-keyboard-response","208","1047815","0.0-20.0-0.0","605a2dbead400eae8de18f8c","6796e1c0ff24ca17c453c51c","67c70c4c57a6c80e7cd71ccf","passed","","","","","","","","","","","","","","","","","ballFalling","500","553.4711431702997","282.51","7","fallScene","false","","","","","","49","",""
"","","","","","html-keyboard-response","209","1048526","0.0-20.0-1.0","605a2dbead400eae8de18f8c","6796e1c0ff24ca17c453c51c","67c70c4c57a6c80e7cd71ccf","passed","","452","","","","","","","","","","","","","","j","yesOrNo","","","","7","","","lp","700","","","","49","501","227.2843295913261"
"","","","","","html-keyboard-response","210","1050085","0.0-20.0-0.1","605a2dbead400eae8de18f8c","6796e1c0ff24ca17c453c51c","67c70c4c57a6c80e7cd71ccf","passed","","","","","","","","","","","","","","","","","ballFalling","500","453.67114317029973","210.33","5","fallScene","false","","","","","","50","",""
"","","","","","html-keyboard-response","211","1050793","0.0-20.0-1.1","605a2dbead400eae8de18f8c","6796e1c0ff24ca17c453c51c","67c70c4c57a6c80e7cd71ccf","passed","","675","","","","","","","","","","","","","","f","yesOrNo","","","","5","","","gt","700","","","","50","453.6711431702998","210.33"
"","","","","","html-keyboard-response","212","1052282","0.0-20.0-0.2","605a2dbead400eae8de18f8c","6796e1c0ff24ca17c453c51c","67c70c4c57a6c80e7cd71ccf","passed","","","","","","","","","","","","","","","","","ballFalling","604.4000000000001","667.6211431702998","201.78","9","fallScene","false","","","","","","51","",""
"","","","","","html-keyboard-response","213","1053001","0.0-20.0-1.2","605a2dbead400eae8de18f8c","6796e1c0ff24ca17c453c51c","67c70c4c57a6c80e7cd71ccf","passed","","null","","","","","","","","","","","","","","null","yesOrNo","","","","9","","","lp","700","","","","51","605.4000000000001","151"
"","","","","","html-keyboard-response","214","1055016","0.0-20.0-0.3","605a2dbead400eae8de18f8c","6796e1c0ff24ca17c453c51c","67c70c4c57a6c80e7cd71ccf","passed","","","","","","","","","","","","","","","","","ballFalling","604.4000000000001","596.8711431702998","394.5","10","fallScene","true","","","","","","52","",""
"","","","","","html-keyboard-response","215","1055731","0.0-20.0-1.3","605a2dbead400eae8de18f8c","6796e1c0ff24ca17c453c51c","67c70c4c57a6c80e7cd71ccf","passed","","null","","","","","","","","","","","","","","null","yesOrNo","","","","10","","","lp","700","","","","52","603.4000000000001","215.50214355555383"
"","","","","","html-keyboard-response","216","1057282","0.0-20.0-0.4","605a2dbead400eae8de18f8c","6796e1c0ff24ca17c453c51c","67c70c4c57a6c80e7cd71ccf","passed","","","","","","","","","","","","","","","","","ballFalling","322.3","296.07114317029976","371.46","3","fallScene","false","","","","","","53","",""
"","","","","","html-keyboard-response","217","1057988","0.0-20.0-1.4","605a2dbead400eae8de18f8c","6796e1c0ff24ca17c453c51c","67c70c4c57a6c80e7cd71ccf","passed","","635","","","","","","","","","","","","","","f","yesOrNo","","","","3","","","gt","700","","","","53","296.07114317029976","371.46"
"","","","","","html-keyboard-response","218","1059550","0.0-20.0-0.5","605a2dbead400eae8de18f8c","6796e1c0ff24ca17c453c51c","67c70c4c57a6c80e7cd71ccf","passed","","","","","","","","","","","","","","","","","ballFalling","322.3","356.42114317029973","357.87","4","fallScene","false","","","","","","54","",""
"","","","","","html-keyboard-response","219","1060265","0.0-20.0-1.5","605a2dbead400eae8de18f8c","6796e1c0ff24ca17c453c51c","67c70c4c57a6c80e7cd71ccf","passed","","659","","","","","","","","","","","","","","j","yesOrNo","","","","4","","","gt","700","","","","54","356.42114317029973","357.87"
"","","","","","html-keyboard-response","220","1061816","0.0-20.0-0.6","605a2dbead400eae8de18f8c","6796e1c0ff24ca17c453c51c","67c70c4c57a6c80e7cd71ccf","passed","","","","","","","","","","","","","","","","","ballFalling","322.3","296.07114317029976","371.46","3","fallScene","false","","","","","","55","",""
"","","","","","html-keyboard-response","221","1062520","0.0-20.0-1.6","605a2dbead400eae8de18f8c","6796e1c0ff24ca17c453c51c","67c70c4c57a6c80e7cd71ccf","passed","","602","","","","","","","","","","","","","","j","yesOrNo","","","","3","","","gt","700","","","","55","296.07114317029976","371.46"
"","","","","","html-keyboard-response","222","1064332","0.0-20.0-0.7","605a2dbead400eae8de18f8c","6796e1c0ff24ca17c453c51c","67c70c4c57a6c80e7cd71ccf","passed","","","","","","","","","","","","","","","","","ballFalling","322.3","308.07114317029976","253.89","2","fallScene","true","","","","","","56","",""
"","","","","","html-keyboard-response","223","1065035","0.0-20.0-1.7","605a2dbead400eae8de18f8c","6796e1c0ff24ca17c453c51c","67c70c4c57a6c80e7cd71ccf","passed","","553","","","","","","","","","","","","","","j","yesOrNo","","","","2","","","lp","700","","","","56","321.3","151"
"","","","","","html-keyboard-response","224","1066534","0.0-20.0-0.8","605a2dbead400eae8de18f8c","6796e1c0ff24ca17c453c51c","67c70c4c57a6c80e7cd71ccf","passed","","","","","","","","","","","","","","","","","ballFalling","604.4000000000001","667.6211431702998","201.78","9","fallScene","false","","","","","","57","",""
"","","","","","html-keyboard-response","225","1067248","0.0-20.0-1.8","605a2dbead400eae8de18f8c","6796e1c0ff24ca17c453c51c","67c70c4c57a6c80e7cd71ccf","passed","","528","","","","","","","","","","","","","","j","yesOrNo","","","","9","","","mid","700","","","","57","605.4000000000001","300"
"","","","","","html-keyboard-response","226","1068811","0.0-20.0-0.9","605a2dbead400eae8de18f8c","6796e1c0ff24ca17c453c51c","67c70c4c57a6c80e7cd71ccf","passed","","","","","","","","","","","","","","","","","ballFalling","500","453.67114317029973","210.33","5","fallScene","true","","","","","","58","",""
"","","","","","html-keyboard-response","227","1069520","0.0-20.0-1.9","605a2dbead400eae8de18f8c","6796e1c0ff24ca17c453c51c","67c70c4c57a6c80e7cd71ccf","passed","","542","","","","","","","","","","","","","","j","yesOrNo","","","","5","","","lp","700","","","","58","499","151"
"","","","","","html-keyboard-response","228","1071017","0.0-20.0-0.10","605a2dbead400eae8de18f8c","6796e1c0ff24ca17c453c51c","67c70c4c57a6c80e7cd71ccf","passed","","","","","","","","","","","","","","","","","ballFalling","604.4000000000001","575.4211431702997","266.76","12","fallScene","true","","","","","","59","",""
"","","","","","html-keyboard-response","229","1071735","0.0-20.0-1.10","605a2dbead400eae8de18f8c","6796e1c0ff24ca17c453c51c","67c70c4c57a6c80e7cd71ccf","passed","","452","","","","","","","","","","","","","","j","yesOrNo","","","","12","","","gt","700","","","","59","575.4211431702997","266.76"
"","","","","","html-keyboard-response","230","1073720","0.0-20.0-0.11","605a2dbead400eae8de18f8c","6796e1c0ff24ca17c453c51c","67c70c4c57a6c80e7cd71ccf","passed","","","","","","","","","","","","","","","","","ballFalling","604.4000000000001","650.0211431702996","404.58000000000004","11","fallScene","true","","","","","","60","",""
"","","","","","html-keyboard-response","231","1074437","0.0-20.0-1.11","605a2dbead400eae8de18f8c","6796e1c0ff24ca17c453c51c","67c70c4c57a6c80e7cd71ccf","passed","","621","","","","","","","","","","","","","","j","yesOrNo","","","","11","","","lp","700","","","","60","605.4000000000001","372.6340973215488"
"","","","","","html-keyboard-response","232","1076019","0.0-20.0-0.12","605a2dbead400eae8de18f8c","6796e1c0ff24ca17c453c51c","67c70c4c57a6c80e7cd71ccf","passed","","","","","","","","","","","","","","","","","ballFalling","500","479.92114317029973","330.87","6","fallScene","false","","","","","","61","",""
"","","","","","html-keyboard-response","233","1076733","0.0-20.0-1.12","605a2dbead400eae8de18f8c","6796e1c0ff24ca17c453c51c","67c70c4c57a6c80e7cd71ccf","passed","","508","","","","","","","","","","","","","","j","yesOrNo","","","","6","","","gt","700","","","","61","479.9211431702998","330.87"
"","","","","","html-keyboard-response","234","1078285","0.0-20.0-0.13","605a2dbead400eae8de18f8c","6796e1c0ff24ca17c453c51c","67c70c4c57a6c80e7cd71ccf","passed","","","","","","","","","","","","","","","","","ballFalling","604.4000000000001","650.0211431702996","404.58000000000004","11","fallScene","true","","","","","","62","",""
"","","","","","html-keyboard-response","235","1078991","0.0-20.0-1.13","605a2dbead400eae8de18f8c","6796e1c0ff24ca17c453c51c","67c70c4c57a6c80e7cd71ccf","passed","","533","","","","","","","","","","","","","","j","yesOrNo","","","","11","","","mid","700","","","","62","605.4000000000001","300"
"","","","","","html-keyboard-response","236","1080554","0.0-20.0-0.14","605a2dbead400eae8de18f8c","6796e1c0ff24ca17c453c51c","67c70c4c57a6c80e7cd71ccf","passed","","","","","","","","","","","","","","","","","ballFalling","322.3","356.42114317029973","357.87","4","fallScene","true","","","","","","63","",""
"","","","","","html-keyboard-response","237","1081265","0.0-20.0-1.14","605a2dbead400eae8de18f8c","6796e1c0ff24ca17c453c51c","67c70c4c57a6c80e7cd71ccf","passed","","461","","","","","","","","","","","","","","j","yesOrNo","","","","4","","","lp","700","","","","63","323.3","297.4070551689986"
"","","","","","html-keyboard-response","238","1082843","0.0-20.0-0.15","605a2dbead400eae8de18f8c","6796e1c0ff24ca17c453c51c","67c70c4c57a6c80e7cd71ccf","passed","","","","","","","","","","","","","","","","","ballFalling","322.3","296.07114317029976","371.46","3","fallScene","false","","","","","","64","",""
"","","","","","html-keyboard-response","239","1083546","0.0-20.0-1.15","605a2dbead400eae8de18f8c","6796e1c0ff24ca17c453c51c","67c70c4c57a6c80e7cd71ccf","passed","","665","","","","","","","","","","","","","","j","yesOrNo","","","","3","","","mid","700","","","","64","321.3","300"
"","","","","","html-keyboard-response","240","1085564","0.0-20.0-0.16","605a2dbead400eae8de18f8c","6796e1c0ff24ca17c453c51c","67c70c4c57a6c80e7cd71ccf","passed","","","","","","","","","","","","","","","","","ballFalling","604.4000000000001","596.8711431702998","394.5","10","fallScene","true","","","","","","65","",""
"","","","","","html-keyboard-response","241","1086272","0.0-20.0-1.16","605a2dbead400eae8de18f8c","6796e1c0ff24ca17c453c51c","67c70c4c57a6c80e7cd71ccf","passed","","671","","","","","","","","","","","","","","f","yesOrNo","","","","10","","","lp","700","","","","65","603.4000000000001","215.50214355555383"
"","","","","","html-keyboard-response","242","1087840","0.0-20.0-0.17","605a2dbead400eae8de18f8c","6796e1c0ff24ca17c453c51c","67c70c4c57a6c80e7cd71ccf","passed","","","","","","","","","","","","","","","","","ballFalling","322.3","356.42114317029973","357.87","4","fallScene","false","","","","","","66","",""
"","","","","","html-keyboard-response","243","1088550","0.0-20.0-1.17","605a2dbead400eae8de18f8c","6796e1c0ff24ca17c453c51c","67c70c4c57a6c80e7cd71ccf","passed","","535","","","","","","","","","","","","","","j","yesOrNo","","","","4","","","lp","700","","","","66","323.3","297.4070551689986"
"","","","","","html-keyboard-response","244","1090105","0.0-20.0-0.18","605a2dbead400eae8de18f8c","6796e1c0ff24ca17c453c51c","67c70c4c57a6c80e7cd71ccf","passed","","","","","","","","","","","","","","","","","ballFalling","604.4000000000001","575.4211431702997","266.76","12","fallScene","true","","","","","","67","",""
"","","","","","html-keyboard-response","245","1090821","0.0-20.0-1.18","605a2dbead400eae8de18f8c","6796e1c0ff24ca17c453c51c","67c70c4c57a6c80e7cd71ccf","passed","","null","","","","","","","","","","","","","","null","yesOrNo","","","","12","","","mid","700","","","","67","536.4288568297004","300"
"","","","","","html-keyboard-response","246","1092371","0.0-20.0-0.19","605a2dbead400eae8de18f8c","6796e1c0ff24ca17c453c51c","67c70c4c57a6c80e7cd71ccf","passed","","","","","","","","","","","","","","","","","ballFalling","322.3","296.07114317029976","371.46","3","fallScene","true","","","","","","68","",""
"","","","","","html-keyboard-response","247","1093081","0.0-20.0-1.19","605a2dbead400eae8de18f8c","6796e1c0ff24ca17c453c51c","67c70c4c57a6c80e7cd71ccf","passed","","507","","","","","","","","","","","","","","j","yesOrNo","","","","3","","","lp","700","","","","68","321.3","287.3327096511259"
"","","","","","html-keyboard-response","248","1095087","0.0-20.0-0.20","605a2dbead400eae8de18f8c","6796e1c0ff24ca17c453c51c","67c70c4c57a6c80e7cd71ccf","passed","","","","","","","","","","","","","","","","","ballFalling","500","510.8711431702997","369.03","8","fallScene","true","","","","","","69","",""
"","","","","","html-keyboard-response","249","1095801","0.0-20.0-1.20","605a2dbead400eae8de18f8c","6796e1c0ff24ca17c453c51c","67c70c4c57a6c80e7cd71ccf","passed","","533","","","","","","","","","","","","","","f","yesOrNo","","","","8","","","lp","700","","","","69","501","151"
"","","","","","html-keyboard-response","250","1097454","0.0-20.0-0.21","605a2dbead400eae8de18f8c","6796e1c0ff24ca17c453c51c","67c70c4c57a6c80e7cd71ccf","passed","","","","","","","","","","","","","","","","","ballFalling","500","479.92114317029973","330.87","6","fallScene","false","","","","","","70","",""
"","","","","","html-keyboard-response","251","1098167","0.0-20.0-1.21","605a2dbead400eae8de18f8c","6796e1c0ff24ca17c453c51c","67c70c4c57a6c80e7cd71ccf","passed","","668","","","","","","","","","","","","","","f","yesOrNo","","","","6","","","lp","700","","","","70","499","189.92909825697632"
"","","","","","html-keyboard-response","252","1100170","0.0-20.0-0.22","605a2dbead400eae8de18f8c","6796e1c0ff24ca17c453c51c","67c70c4c57a6c80e7cd71ccf","passed","","","","","","","","","","","","","","","","","ballFalling","604.4000000000001","596.8711431702998","394.5","10","fallScene","true","","","","","","71","",""
"","","","","","html-keyboard-response","253","1100880","0.0-20.0-1.22","605a2dbead400eae8de18f8c","6796e1c0ff24ca17c453c51c","67c70c4c57a6c80e7cd71ccf","passed","","574","","","","","","","","","","","","","","j","yesOrNo","","","","10","","","mid","700","","","","71","536.4288568297004","300"
"","","","","","html-keyboard-response","254","1102437","0.0-20.0-0.23","605a2dbead400eae8de18f8c","6796e1c0ff24ca17c453c51c","67c70c4c57a6c80e7cd71ccf","passed","","","","","","","","","","","","","","","","","ballFalling","604.4000000000001","575.4211431702997","266.76","12","fallScene","true","","","","","","72","",""
"","","","","","html-keyboard-response","255","1103147","0.0-20.0-1.23","605a2dbead400eae8de18f8c","6796e1c0ff24ca17c453c51c","67c70c4c57a6c80e7cd71ccf","passed","","486","","","","","","","","","","","","","","j","yesOrNo","","","","12","","","gt","700","","","","72","575.4211431702997","266.76"
"","","","","","html-keyboard-response","256","1109522","0.0-21.0","605a2dbead400eae8de18f8c","6796e1c0ff24ca17c453c51c","67c70c4c57a6c80e7cd71ccf","passed","","6374","","","","","","","","","","","","","<p><span style=""font-size:40px;"">BLOCK 4</span></p><p><span style=""font-size:25px;"">You have <b style=""color: #FF644F;""><strong>3 second(s)</strong></b> to respond to the following trials.</span><br></p><p></p> <!-- Blank line -->
                <p id=""blinking-text"" style=""font-weight; animation: blink 2s infinite;"">Press Space to continue</p>
                <style>
                    @keyframes blink {
                        50% {
                            opacity: 0;
                        }
                    }
                </style></p>"," ","","","","","","","","","","","","","","",""
"","","","","","html-keyboard-response","257","1111088","0.0-22.0-0.0","605a2dbead400eae8de18f8c","6796e1c0ff24ca17c453c51c","67c70c4c57a6c80e7cd71ccf","passed","","","","","","","","","","","","","","","","","ballFalling","604.4000000000001","575.4211431702997","266.76","12","fallScene","true","","","","","","73","",""
"","","","","","html-keyboard-response","258","1114103","0.0-22.0-1.0","605a2dbead400eae8de18f8c","6796e1c0ff24ca17c453c51c","67c70c4c57a6c80e7cd71ccf","passed","","458","","","","","","","","","","","","","","j","yesOrNo","","","","12","","","gt","3000","","","","73","575.4211431702997","266.76"
"","","","","","html-keyboard-response","259","1116106","0.0-22.0-0.1","605a2dbead400eae8de18f8c","6796e1c0ff24ca17c453c51c","67c70c4c57a6c80e7cd71ccf","passed","","","","","","","","","","","","","","","","","ballFalling","604.4000000000001","596.8711431702998","394.5","10","fallScene","true","","","","","","74","",""
"","","","","","html-keyboard-response","260","1119113","0.0-22.0-1.1","605a2dbead400eae8de18f8c","6796e1c0ff24ca17c453c51c","67c70c4c57a6c80e7cd71ccf","passed","","703","","","","","","","","","","","","","","f","yesOrNo","","","","10","","","gt","3000","","","","74","596.8711431702998","394.5"
"","","","","","html-keyboard-response","261","1121122","0.0-22.0-0.2","605a2dbead400eae8de18f8c","6796e1c0ff24ca17c453c51c","67c70c4c57a6c80e7cd71ccf","passed","","","","","","","","","","","","","","","","","ballFalling","500","510.8711431702997","369.03","8","fallScene","false","","","","","","75","",""
"","","","","","html-keyboard-response","262","1124138","0.0-22.0-1.2","605a2dbead400eae8de18f8c","6796e1c0ff24ca17c453c51c","67c70c4c57a6c80e7cd71ccf","passed","","820","","","","","","","","","","","","","","j","yesOrNo","","","","8","","","gt","3000","","","","75","510.8711431702997","369.03"
"","","","","","html-keyboard-response","263","1125689","0.0-22.0-0.3","605a2dbead400eae8de18f8c","6796e1c0ff24ca17c453c51c","67c70c4c57a6c80e7cd71ccf","passed","","","","","","","","","","","","","","","","","ballFalling","322.3","356.42114317029973","357.87","4","fallScene","true","","","","","","76","",""
"","","","","","html-keyboard-response","264","1128694","0.0-22.0-1.3","605a2dbead400eae8de18f8c","6796e1c0ff24ca17c453c51c","67c70c4c57a6c80e7cd71ccf","passed","","1302","","","","","","","","","","","","","","j","yesOrNo","","","","4","","","mid","3000","","","","76","390.27114317029975","300"
"","","","","","html-keyboard-response","265","1130256","0.0-22.0-0.4","605a2dbead400eae8de18f8c","6796e1c0ff24ca17c453c51c","67c70c4c57a6c80e7cd71ccf","passed","","","","","","","","","","","","","","","","","ballFalling","322.3","296.07114317029976","371.46","3","fallScene","true","","","","","","77","",""
"","","","","","html-keyboard-response","266","1133261","0.0-22.0-1.4","605a2dbead400eae8de18f8c","6796e1c0ff24ca17c453c51c","67c70c4c57a6c80e7cd71ccf","passed","","739","","","","","","","","","","","","","","j","yesOrNo","","","","3","","","mid","3000","","","","77","321.3","300"
"","","","","","html-keyboard-response","267","1135276","0.0-22.0-0.5","605a2dbead400eae8de18f8c","6796e1c0ff24ca17c453c51c","67c70c4c57a6c80e7cd71ccf","passed","","","","","","","","","","","","","","","","","ballFalling","604.4000000000001","596.8711431702998","394.5","10","fallScene","false","","","","","","78","",""
"","","","","","html-keyboard-response","268","1138285","0.0-22.0-1.5","605a2dbead400eae8de18f8c","6796e1c0ff24ca17c453c51c","67c70c4c57a6c80e7cd71ccf","passed","","1290","","","","","","","","","","","","","","j","yesOrNo","","","","10","","","mid","3000","","","","78","536.4288568297004","300"
"","","","","","html-keyboard-response","269","1139841","0.0-22.0-0.6","605a2dbead400eae8de18f8c","6796e1c0ff24ca17c453c51c","67c70c4c57a6c80e7cd71ccf","passed","","","","","","","","","","","","","","","","","ballFalling","500","453.67114317029973","210.33","5","fallScene","false","","","","","","79","",""
"","","","","","html-keyboard-response","270","1142845","0.0-22.0-1.6","605a2dbead400eae8de18f8c","6796e1c0ff24ca17c453c51c","67c70c4c57a6c80e7cd71ccf","passed","","1107","","","","","","","","","","","","","","j","yesOrNo","","","","5","","","lp","3000","","","","79","499","151"
"","","","","","html-keyboard-response","271","1144409","0.0-22.0-0.7","605a2dbead400eae8de18f8c","6796e1c0ff24ca17c453c51c","67c70c4c57a6c80e7cd71ccf","passed","","","","","","","","","","","","","","","","","ballFalling","322.3","356.42114317029973","357.87","4","fallScene","true","","","","","","80","",""
"","","","","","html-keyboard-response","272","1147411","0.0-22.0-1.7","605a2dbead400eae8de18f8c","6796e1c0ff24ca17c453c51c","67c70c4c57a6c80e7cd71ccf","passed","","738","","","","","","","","","","","","","","j","yesOrNo","","","","4","","","lp","3000","","","","80","323.3","297.4070551689986"
"","","","","","html-keyboard-response","273","1149426","0.0-22.0-0.8","605a2dbead400eae8de18f8c","6796e1c0ff24ca17c453c51c","67c70c4c57a6c80e7cd71ccf","passed","","","","","","","","","","","","","","","","","ballFalling","604.4000000000001","596.8711431702998","394.5","10","fallScene","true","","","","","","81","",""
"","","","","","html-keyboard-response","274","1152440","0.0-22.0-1.8","605a2dbead400eae8de18f8c","6796e1c0ff24ca17c453c51c","67c70c4c57a6c80e7cd71ccf","passed","","974","","","","","","","","","","","","","","j","yesOrNo","","","","10","","","gt","3000","","","","81","596.8711431702998","394.5"
"","","","","","html-keyboard-response","275","1154227","0.0-22.0-0.9","605a2dbead400eae8de18f8c","6796e1c0ff24ca17c453c51c","67c70c4c57a6c80e7cd71ccf","passed","","","","","","","","","","","","","","","","","ballFalling","322.3","308.07114317029976","253.89","2","fallScene","false","","","","","","82","",""
"","","","","","html-keyboard-response","276","1157229","0.0-22.0-1.9","605a2dbead400eae8de18f8c","6796e1c0ff24ca17c453c51c","67c70c4c57a6c80e7cd71ccf","passed","","841","","","","","","","","","","","","","","j","yesOrNo","","","","2","","","gt","3000","","","","82","308.07114317029976","253.89"
"","","","","","html-keyboard-response","277","1158877","0.0-22.0-0.10","605a2dbead400eae8de18f8c","6796e1c0ff24ca17c453c51c","67c70c4c57a6c80e7cd71ccf","passed","","","","","","","","","","","","","","","","","ballFalling","500","479.92114317029973","330.87","6","fallScene","false","","","","","","83","",""
"","","","","","html-keyboard-response","278","1161892","0.0-22.0-1.10","605a2dbead400eae8de18f8c","6796e1c0ff24ca17c453c51c","67c70c4c57a6c80e7cd71ccf","passed","","585","","","","","","","","","","","","","","j","yesOrNo","","","","6","","","gt","3000","","","","83","479.9211431702998","330.87"
"","","","","","html-keyboard-response","279","1163445","0.0-22.0-0.11","605a2dbead400eae8de18f8c","6796e1c0ff24ca17c453c51c","67c70c4c57a6c80e7cd71ccf","passed","","","","","","","","","","","","","","","","","ballFalling","322.3","356.42114317029973","357.87","4","fallScene","false","","","","","","84","",""
"","","","","","html-keyboard-response","280","1166450","0.0-22.0-1.11","605a2dbead400eae8de18f8c","6796e1c0ff24ca17c453c51c","67c70c4c57a6c80e7cd71ccf","passed","","497","","","","","","","","","","","","","","j","yesOrNo","","","","4","","","lp","3000","","","","84","323.3","297.4070551689986"
"","","","","","html-keyboard-response","281","1167944","0.0-22.0-0.12","605a2dbead400eae8de18f8c","6796e1c0ff24ca17c453c51c","67c70c4c57a6c80e7cd71ccf","passed","","","","","","","","","","","","","","","","","ballFalling","604.4000000000001","667.6211431702998","201.78","9","fallScene","true","","","","","","85","",""
"","","","","","html-keyboard-response","282","1170960","0.0-22.0-1.12","605a2dbead400eae8de18f8c","6796e1c0ff24ca17c453c51c","67c70c4c57a6c80e7cd71ccf","passed","","1017","","","","","","","","","","","","","","f","yesOrNo","","","","9","","","lp","3000","","","","85","605.4000000000001","151"
"","","","","","html-keyboard-response","283","1172511","0.0-22.0-0.13","605a2dbead400eae8de18f8c","6796e1c0ff24ca17c453c51c","67c70c4c57a6c80e7cd71ccf","passed","","","","","","","","","","","","","","","","","ballFalling","322.3","379.3711431702997","245.25","1","fallScene","false","","","","","","86","",""
"","","","","","html-keyboard-response","284","1175517","0.0-22.0-1.13","605a2dbead400eae8de18f8c","6796e1c0ff24ca17c453c51c","67c70c4c57a6c80e7cd71ccf","passed","","505","","","","","","","","","","","","","","j","yesOrNo","","","","1","","","mid","3000","","","","86","390.27114317029975","300"
"","","","","","html-keyboard-response","285","1177080","0.0-22.0-0.14","605a2dbead400eae8de18f8c","6796e1c0ff24ca17c453c51c","67c70c4c57a6c80e7cd71ccf","passed","","","","","","","","","","","","","","","","","ballFalling","604.4000000000001","575.4211431702997","266.76","12","fallScene","false","","","","","","87","",""
"","","","","","html-keyboard-response","286","1180089","0.0-22.0-1.14","605a2dbead400eae8de18f8c","6796e1c0ff24ca17c453c51c","67c70c4c57a6c80e7cd71ccf","passed","","995","","","","","","","","","","","","","","f","yesOrNo","","","","12","","","lp","3000","","","","87","603.4000000000001","151"
"","","","","","html-keyboard-response","287","1181879","0.0-22.0-0.15","605a2dbead400eae8de18f8c","6796e1c0ff24ca17c453c51c","67c70c4c57a6c80e7cd71ccf","passed","","","","","","","","","","","","","","","","","ballFalling","322.3","308.07114317029976","253.89","2","fallScene","false","","","","","","88","",""
"","","","","","html-keyboard-response","288","1184884","0.0-22.0-1.15","605a2dbead400eae8de18f8c","6796e1c0ff24ca17c453c51c","67c70c4c57a6c80e7cd71ccf","passed","","1259","","","","","","","","","","","","","","f","yesOrNo","","","","2","","","lp","3000","","","","88","321.3","151"
"","","","","","html-keyboard-response","289","1186897","0.0-22.0-0.16","605a2dbead400eae8de18f8c","6796e1c0ff24ca17c453c51c","67c70c4c57a6c80e7cd71ccf","passed","","","","","","","","","","","","","","","","","ballFalling","500","510.8711431702997","369.03","8","fallScene","false","","","","","","89","",""
"","","","","","html-keyboard-response","290","1189904","0.0-22.0-1.16","605a2dbead400eae8de18f8c","6796e1c0ff24ca17c453c51c","67c70c4c57a6c80e7cd71ccf","passed","","883","","","","","","","","","","","","","","j","yesOrNo","","","","8","","","gt","3000","","","","89","510.8711431702997","369.03"
"","","","","","html-keyboard-response","291","1191465","0.0-22.0-0.17","605a2dbead400eae8de18f8c","6796e1c0ff24ca17c453c51c","67c70c4c57a6c80e7cd71ccf","passed","","","","","","","","","","","","","","","","","ballFalling","322.3","379.3711431702997","245.25","1","fallScene","true","","","","","","90","",""
"","","","","","html-keyboard-response","292","1194475","0.0-22.0-1.17","605a2dbead400eae8de18f8c","6796e1c0ff24ca17c453c51c","67c70c4c57a6c80e7cd71ccf","passed","","659","","","","","","","","","","","","","","j","yesOrNo","","","","1","","","lp","3000","","","","90","323.3","217.74551669457017"
"","","","","","html-keyboard-response","293","1196031","0.0-22.0-0.18","605a2dbead400eae8de18f8c","6796e1c0ff24ca17c453c51c","67c70c4c57a6c80e7cd71ccf","passed","","","","","","","","","","","","","","","","","ballFalling","322.3","379.3711431702997","245.25","1","fallScene","false","","","","","","91","",""
