"success","timeout","failed_images","failed_audio","failed_video","trial_type","trial_index","time_elapsed","internal_node_id","subject_id","study_id","session_id","practiceTestResult","view_history","rt","width","height","webaudio","browser","browser_version","mobile","os","fullscreen","vsync_rate","webcam","microphone","url","stimulus","response","task","ball_X","obstacle_groundTruth_x","obstacle_groundTruth_y","stimulus_idx","trial_name","flipped","choice","timeLimit","question_order","comprehensionCheck","currentTrial","obstacle_choice_x","obstacle_choice_y"
"true","false","[]","[]","[]","preload","0","233","0.0-0.0","62a36469aa54a53fcfcc27d2","6796e1c0ff24ca17c453c51c","67c70c37ba4882acb9fcaeef","passed","","","","","","","","","","","","","","","","","","","","","","","","","","","","","",""
"","","","","","instructions","1","2177","0.0-1.0","62a36469aa54a53fcfcc27d2","6796e1c0ff24ca17c453c51c","67c70c37ba4882acb9fcaeef","passed","[{""page_index"":0,""viewing_time"":1943}]","1944","","","","","","","","","","","","","","","","","","","","","","","","","","","",""
"","","","","","browser-check","2","3163","0.0-2.0","62a36469aa54a53fcfcc27d2","6796e1c0ff24ca17c453c51c","67c70c37ba4882acb9fcaeef","passed","","","1358","642","true","edge-chromium","133.0.0","false","Windows 10","true","61.37","true","true","","","","","","","","","","","","","","","","",""
"","","","","","external-html","3","8205","0.0-3.0","62a36469aa54a53fcfcc27d2","6796e1c0ff24ca17c453c51c","67c70c37ba4882acb9fcaeef","passed","","5010","","","","","","","","","","","","consent.html","","","","","","","","","","","","","","","",""
"true","","","","","fullscreen","4","12204","0.0-4.0","62a36469aa54a53fcfcc27d2","6796e1c0ff24ca17c453c51c","67c70c37ba4882acb9fcaeef","passed","","3695","","","","","","","","","","","","","","","","","","","","","","","","","","","",""
"","","","","","browser-check","5","13191","0.0-5.0","62a36469aa54a53fcfcc27d2","6796e1c0ff24ca17c453c51c","67c70c37ba4882acb9fcaeef","passed","","","1366","768","true","edge-chromium","133.0.0","false","Windows 10","true","60.9","true","true","","","","","","","","","","","","","","","","",""
"","","","","","html-keyboard-response","6","16157","0.0-6.0","62a36469aa54a53fcfcc27d2","6796e1c0ff24ca17c453c51c","67c70c37ba4882acb9fcaeef","passed","","2964","","","","","","","","","","","","","<p><b>This experiment requires keyboard input.</b></p> 
        <p><b>To ensure your response will be recorded successfully, please press 'Space' to continue.</b></p>
        <p>If you can't proceed, you won't be able to complete this study.</p>
        <p></p> <!-- Blank line -->
        <p id=""blinking-text"" style=""font-weight; animation: blink 2s infinite;"">Press Space to continue</p>
        <style>
            @keyframes blink {
                50% {
                    opacity: 0;
                }
            }
        </style>"," ","","","","","","","","","","","","","",""
"","","","","","html-keyboard-response","7","20973","0.0-7.0","62a36469aa54a53fcfcc27d2","6796e1c0ff24ca17c453c51c","67c70c37ba4882acb9fcaeef","passed","","4814","","","","","","","","","","","","","<p><b>This experiment requires keyboard input.</b></p> 
        <p><b>To ensure your response will be recorded successfully, please press the 'f' key to continue.</b></p>
        <p>If you can't proceed, you won't be able to complete this study.</p>
        <p></p> <!-- Blank line -->
        <p id=""blinking-text"" style=""font-weight; animation: blink 2s infinite;"">Press f to continue</p>
        <style>
            @keyframes blink {
                50% {
                    opacity: 0;
                }
            }
        </style>","f","","","","","","","","","","","","","",""
"","","","","","html-keyboard-response","8","22436","0.0-8.0","62a36469aa54a53fcfcc27d2","6796e1c0ff24ca17c453c51c","67c70c37ba4882acb9fcaeef","passed","","1462","","","","","","","","","","","","","<p><b>This experiment requires keyboard input.</b></p> 
        <p><b>To ensure your response will be recorded successfully, please press the 'j' key to continue.</b></p>
        <p>If you can't proceed, you won't be able to complete this study.</p>
        <p></p> <!-- Blank line -->
        <p id=""blinking-text"" style=""font-weight; animation: blink 2s infinite;"">Press j to continue</p>
        <style>
            @keyframes blink {
                50% {
                    opacity: 0;
                }
            }
        </style>","j","","","","","","","","","","","","","",""
"","","","","","browser-check","9","23437","0.0-9.0","62a36469aa54a53fcfcc27d2","6796e1c0ff24ca17c453c51c","67c70c37ba4882acb9fcaeef","passed","","","1366","768","true","edge-chromium","133.0.0","false","Windows 10","true","60.19","true","true","","","","","","","","","","","","","","","","",""
"","","","","","survey-text","10","49276","0.0-10.0","62a36469aa54a53fcfcc27d2","6796e1c0ff24ca17c453c51c","67c70c37ba4882acb9fcaeef","passed","","25834","","","","","","","","","","","","","","{""prolificID"":""62a36469aa54a53fcfcc27d2""}","","","","","","","","","","","","","",""
"","","","","","instructions","11","137493","0.0-11.0-0.0-0.0","62a36469aa54a53fcfcc27d2","6796e1c0ff24ca17c453c51c","67c70c37ba4882acb9fcaeef","passed","[{""page_index"":0,""viewing_time"":51724},{""page_index"":1,""viewing_time"":8580},{""page_index"":2,""viewing_time"":13116},{""page_index"":3,""viewing_time"":14803}]","88224","","","","","","","","","","","","","","","","","","","","","","","","","","","",""
"","","","","","html-keyboard-response","12","159324","0.0-11.0-0.0-1.0","62a36469aa54a53fcfcc27d2","6796e1c0ff24ca17c453c51c","67c70c37ba4882acb9fcaeef","passed","","21311","","","","","","","","","","","","","<br>Remember! After a ball falls, the screen will disappear, and you'll decide if the proposed position is where the hidden triangle was. <br>You will now practice this by watching a few videos and making decisions.<p>To respond:<br style=""margin-bottom: 5px; text-indent: -20px; padding-left: 20px;"">- Press <b style=""color: #12AD2B;"">J for Yes</b>, if you think the triangle is in the correct position.<br style=""margin-top: 0; text-indent: -20px; padding-left: 20px;"">- Press <b style=""color: orange;"">F for No</b>, if you think the triangle is not in the correct position.</p><p>In this practice round, there is no time limit. Focus on getting comfortable with the task first.<br>Press either J or F to begin your practice trials.</p><img src = ""YesOrNo_instruction.png"" style=""width: 65%;""></img>","f","","","","","","","","","","","","","",""
"","","","","","html-keyboard-response","13","160881","0.0-11.0-0.0-2.0-0.0","62a36469aa54a53fcfcc27d2","6796e1c0ff24ca17c453c51c","67c70c37ba4882acb9fcaeef","passed","","","","","","","","","","","","","","","","","ballFalling_prac","441","414","302","5","fallScene","true","","","","","","",""
"","","","","","html-keyboard-response","14","163666","0.0-11.0-0.0-2.0-1.0","62a36469aa54a53fcfcc27d2","6796e1c0ff24ca17c453c51c","67c70c37ba4882acb9fcaeef","passed","","2763","","","","","","","","","","","","","","j","yesOrNo_prac_noTimed","","","","5","","","close gt","NA","","","","",""
"","","","","","html-keyboard-response","15","165228","0.0-11.0-0.0-2.0-0.1","62a36469aa54a53fcfcc27d2","6796e1c0ff24ca17c453c51c","67c70c37ba4882acb9fcaeef","passed","","","","","","","","","","","","","","","","","ballFalling_prac","416","464","296","1","fallScene","false","","","","","","",""
"","","","","","html-keyboard-response","16","166652","0.0-11.0-0.0-2.0-1.1","62a36469aa54a53fcfcc27d2","6796e1c0ff24ca17c453c51c","67c70c37ba4882acb9fcaeef","passed","","1419","","","","","","","","","","","","","","j","yesOrNo_prac_noTimed","","","","1","","","gt","NA","","","","",""
"","","","","","html-keyboard-response","17","168760","0.0-11.0-0.0-2.0-0.2","62a36469aa54a53fcfcc27d2","6796e1c0ff24ca17c453c51c","67c70c37ba4882acb9fcaeef","passed","","","","","","","","","","","","","","","","","ballFalling_prac","660","666","350","3","fallScene","false","","","","","","",""
"","","","","","html-keyboard-response","18","171053","0.0-11.0-0.0-2.0-1.2","62a36469aa54a53fcfcc27d2","6796e1c0ff24ca17c453c51c","67c70c37ba4882acb9fcaeef","passed","","2287","","","","","","","","","","","","","","f","yesOrNo_prac_noTimed","","","","3","","","wrong direction","NA","","","","",""
"","","","","","instructions","19","225274","0.0-11.0-0.0-3.0","62a36469aa54a53fcfcc27d2","6796e1c0ff24ca17c453c51c","67c70c37ba4882acb9fcaeef","passed","[{""page_index"":0,""viewing_time"":50531},{""page_index"":1,""viewing_time"":3697}]","54228","","","","","","","","","","","","","","","","","","","","","","","","","","","",""
"","","","","","html-button-response","20","231324","0.0-11.0-0.0-4.0","62a36469aa54a53fcfcc27d2","6796e1c0ff24ca17c453c51c","67c70c37ba4882acb9fcaeef","passed","","5532","","","","","","","","","","","","","<p>To make sure you understood the task, we just have a <b>brief quiz</b> here.</p><p>If you need to review the instructions, click 'Previous'.</p><p>It's important to understand the task to do the study, so you have to pass the quiz to move to the study.</p>","1","","","","","","","","","","","","","",""
"","","","","","survey-multi-choice","21","242590","0.0-11.0-1.0-0.0","62a36469aa54a53fcfcc27d2","6796e1c0ff24ca17c453c51c","67c70c37ba4882acb9fcaeef","passed","","11264","","","","","","","","","","","","","","{""generalProcedure"":""Watch a video of a ball falling, some of it behind a gray screen. After each video, decide if the triangle is at the spot where the ball hit the triangle behind the screen. There is time limit for the response.""}","","","","","","","","","","[0]","","","",""
"","","","","","survey-multi-choice","22","250514","0.0-11.0-1.0-1.0","62a36469aa54a53fcfcc27d2","6796e1c0ff24ca17c453c51c","67c70c37ba4882acb9fcaeef","passed","","7921","","","","","","","","","","","","","","{""checkBallHitObstacle"":""No.""}","","","","","","","","","","[0]","","","",""
"","","","","","survey-multi-choice","23","256060","0.0-11.0-1.0-2.0","62a36469aa54a53fcfcc27d2","6796e1c0ff24ca17c453c51c","67c70c37ba4882acb9fcaeef","passed","","5543","","","","","","","","","","","","","","{""checkTriangleVisibility"":""No, the triangle is hidden behind the gray screen.""}","","","","","","","","","","[0]","","","",""
"","","","","","survey-multi-choice","24","263329","0.0-11.0-1.0-3.0","62a36469aa54a53fcfcc27d2","6796e1c0ff24ca17c453c51c","67c70c37ba4882acb9fcaeef","passed","","7267","","","","","","","","","","","","","","{""checkTimedResponse"":""Your response will not be recorded, and the trial will move to the next one.""}","","","","","","","","","","[0]","","","",""
"","","","","","survey-multi-choice","25","272136","0.0-11.0-1.0-4.0","62a36469aa54a53fcfcc27d2","6796e1c0ff24ca17c453c51c","67c70c37ba4882acb9fcaeef","passed","","8806","","","","","","","","","","","","","","{""checkTimeBlockNotice"":""At the beginning of each block.""}","","","","","","","","","","[0]","","","",""
"","","","","","survey-multi-choice","26","280317","0.0-11.0-1.0-5.0","62a36469aa54a53fcfcc27d2","6796e1c0ff24ca17c453c51c","67c70c37ba4882acb9fcaeef","passed","","8178","","","","","","","","","","","","","","{""checkTimeBlockSameness"":""Yes, the time limit is the same for all trials within a block.""}","","","","","","","","","","[0]","","","",""
"","","","","","survey-multi-choice","27","315128","0.0-11.0-1.0-6.0","62a36469aa54a53fcfcc27d2","6796e1c0ff24ca17c453c51c","67c70c37ba4882acb9fcaeef","passed","","34812","","","","","","","","","","","","","","{""checkTrianglePrecision"":""No. The proposed purple triangle is not in the correct position because it doesn't match the location of the white triangle exactly.""}","","","","","","","","","","[0]","","","",""
"","","","","","html-button-response","28","318028","0.0-11.0-2.0-0.0","62a36469aa54a53fcfcc27d2","6796e1c0ff24ca17c453c51c","67c70c37ba4882acb9fcaeef","passed","","2896","","","","","","","","","","","","","<p>Oops! You did not pass the quiz.</p><p>You will now repeat the instructions and practice.</p>","0","","","","","","","","","","","failed","","",""
"","","","","","instructions","29","330433","0.0-11.1-0.1-0.1","62a36469aa54a53fcfcc27d2","6796e1c0ff24ca17c453c51c","67c70c37ba4882acb9fcaeef","passed","[{""page_index"":0,""viewing_time"":3271},{""page_index"":1,""viewing_time"":2159},{""page_index"":2,""viewing_time"":2078},{""page_index"":3,""viewing_time"":4894}]","12405","","","","","","","","","","","","","","","","","","","","","","","","","","","",""
"","","","","","html-keyboard-response","30","338700","0.0-11.1-0.1-1.1","62a36469aa54a53fcfcc27d2","6796e1c0ff24ca17c453c51c","67c70c37ba4882acb9fcaeef","passed","","7760","","","","","","","","","","","","","<br>Remember! After a ball falls, the screen will disappear, and you'll decide if the proposed position is where the hidden triangle was. <br>You will now practice this by watching a few videos and making decisions.<p>To respond:<br style=""margin-bottom: 5px; text-indent: -20px; padding-left: 20px;"">- Press <b style=""color: #12AD2B;"">J for Yes</b>, if you think the triangle is in the correct position.<br style=""margin-top: 0; text-indent: -20px; padding-left: 20px;"">- Press <b style=""color: orange;"">F for No</b>, if you think the triangle is not in the correct position.</p><p>In this practice round, there is no time limit. Focus on getting comfortable with the task first.<br>Press either J or F to begin your practice trials.</p><img src = ""YesOrNo_instruction.png"" style=""width: 65%;""></img>","j","","","","","","","","","","","","","",""
"","","","","","html-keyboard-response","31","340267","0.0-11.1-0.1-2.1-0.3","62a36469aa54a53fcfcc27d2","6796e1c0ff24ca17c453c51c","67c70c37ba4882acb9fcaeef","passed","","","","","","","","","","","","","","","","","ballFalling_prac","441","414","302","5","fallScene","true","","","","","","",""
"","","","","","html-keyboard-response","32","342600","0.0-11.1-0.1-2.1-1.3","62a36469aa54a53fcfcc27d2","6796e1c0ff24ca17c453c51c","67c70c37ba4882acb9fcaeef","passed","","2332","","","","","","","","","","","","","","j","yesOrNo_prac_noTimed","","","","5","","","close gt","NA","","","","",""
"","","","","","html-keyboard-response","33","344163","0.0-11.1-0.1-2.1-0.4","62a36469aa54a53fcfcc27d2","6796e1c0ff24ca17c453c51c","67c70c37ba4882acb9fcaeef","passed","","","","","","","","","","","","","","","","","ballFalling_prac","416","464","296","1","fallScene","false","","","","","","",""
"","","","","","html-keyboard-response","34","346025","0.0-11.1-0.1-2.1-1.4","62a36469aa54a53fcfcc27d2","6796e1c0ff24ca17c453c51c","67c70c37ba4882acb9fcaeef","passed","","1857","","","","","","","","","","","","","","j","yesOrNo_prac_noTimed","","","","1","","","gt","NA","","","","",""
"","","","","","html-keyboard-response","35","348128","0.0-11.1-0.1-2.1-0.5","62a36469aa54a53fcfcc27d2","6796e1c0ff24ca17c453c51c","67c70c37ba4882acb9fcaeef","passed","","","","","","","","","","","","","","","","","ballFalling_prac","660","666","350","3","fallScene","false","","","","","","",""
"","","","","","html-keyboard-response","36","349615","0.0-11.1-0.1-2.1-1.5","62a36469aa54a53fcfcc27d2","6796e1c0ff24ca17c453c51c","67c70c37ba4882acb9fcaeef","passed","","1482","","","","","","","","","","","","","","f","yesOrNo_prac_noTimed","","","","3","","","wrong direction","NA","","","","",""
"","","","","","instructions","37","372009","0.0-11.1-0.1-3.1","62a36469aa54a53fcfcc27d2","6796e1c0ff24ca17c453c51c","67c70c37ba4882acb9fcaeef","passed","[{""page_index"":0,""viewing_time"":14668},{""page_index"":1,""viewing_time"":7724}]","22393","","","","","","","","","","","","","","","","","","","","","","","","","","","",""
"","","","","","html-button-response","38","374346","0.0-11.1-0.1-4.1","62a36469aa54a53fcfcc27d2","6796e1c0ff24ca17c453c51c","67c70c37ba4882acb9fcaeef","passed","","1831","","","","","","","","","","","","","<p>To make sure you understood the task, we just have a <b>brief quiz</b> here.</p><p>If you need to review the instructions, click 'Previous'.</p><p>It's important to understand the task to do the study, so you have to pass the quiz to move to the study.</p>","1","","","","","","","","","","","","","",""
"","","","","","survey-multi-choice","39","382783","0.0-11.1-1.1-0.1","62a36469aa54a53fcfcc27d2","6796e1c0ff24ca17c453c51c","67c70c37ba4882acb9fcaeef","passed","","8434","","","","","","","","","","","","","","{""generalProcedure"":""Watch a video of a ball falling, some of it behind a gray screen. After each video, decide if the triangle is at the spot where the ball hit the triangle behind the screen. There is time limit for the response.""}","","","","","","","","","","[0]","","","",""
"","","","","","survey-multi-choice","40","397300","0.0-11.1-1.1-1.1","62a36469aa54a53fcfcc27d2","6796e1c0ff24ca17c453c51c","67c70c37ba4882acb9fcaeef","passed","","14515","","","","","","","","","","","","","","{""checkBallHitObstacle"":""I am not sure.""}","","","","","","","","","","[0]","","","",""
"","","","","","survey-multi-choice","41","402153","0.0-11.1-1.1-2.1","62a36469aa54a53fcfcc27d2","6796e1c0ff24ca17c453c51c","67c70c37ba4882acb9fcaeef","passed","","4855","","","","","","","","","","","","","","{""checkTriangleVisibility"":""No, the triangle is hidden behind the gray screen.""}","","","","","","","","","","[0]","","","",""
"","","","","","survey-multi-choice","42","406554","0.0-11.1-1.1-3.1","62a36469aa54a53fcfcc27d2","6796e1c0ff24ca17c453c51c","67c70c37ba4882acb9fcaeef","passed","","4398","","","","","","","","","","","","","","{""checkTimedResponse"":""Your response will not be recorded, and the trial will move to the next one.""}","","","","","","","","","","[0]","","","",""
"","","","","","survey-multi-choice","43","410137","0.0-11.1-1.1-4.1","62a36469aa54a53fcfcc27d2","6796e1c0ff24ca17c453c51c","67c70c37ba4882acb9fcaeef","passed","","3581","","","","","","","","","","","","","","{""checkTimeBlockNotice"":""At the beginning of each block.""}","","","","","","","","","","[0]","","","",""
"","","","","","survey-multi-choice","44","414504","0.0-11.1-1.1-5.1","62a36469aa54a53fcfcc27d2","6796e1c0ff24ca17c453c51c","67c70c37ba4882acb9fcaeef","passed","","4365","","","","","","","","","","","","","","{""checkTimeBlockSameness"":""Yes, the time limit is the same for all trials within a block.""}","","","","","","","","","","[0]","","","",""
"","","","","","survey-multi-choice","45","432286","0.0-11.1-1.1-6.1","62a36469aa54a53fcfcc27d2","6796e1c0ff24ca17c453c51c","67c70c37ba4882acb9fcaeef","passed","","17779","","","","","","","","","","","","","","{""checkTrianglePrecision"":""No. The proposed purple triangle is not in the correct position because it doesn't match the location of the white triangle exactly.""}","","","","","","","","","","[0]","","","",""
"","","","","","html-button-response","46","434707","0.0-11.1-2.1-0.1","62a36469aa54a53fcfcc27d2","6796e1c0ff24ca17c453c51c","67c70c37ba4882acb9fcaeef","passed","","2419","","","","","","","","","","","","","<p>Oops! You did not pass the quiz.</p><p>You will now repeat the instructions and practice.</p>","0","","","","","","","","","","","failed","","",""
"","","","","","instructions","47","458343","0.0-11.2-0.2-0.2","62a36469aa54a53fcfcc27d2","6796e1c0ff24ca17c453c51c","67c70c37ba4882acb9fcaeef","passed","[{""page_index"":0,""viewing_time"":14246},{""page_index"":1,""viewing_time"":1147},{""page_index"":2,""viewing_time"":2995},{""page_index"":3,""viewing_time"":5245}]","23634","","","","","","","","","","","","","","","","","","","","","","","","","","","",""
"","","","","","html-keyboard-response","48","463079","0.0-11.2-0.2-1.2","62a36469aa54a53fcfcc27d2","6796e1c0ff24ca17c453c51c","67c70c37ba4882acb9fcaeef","passed","","4227","","","","","","","","","","","","","<br>Remember! After a ball falls, the screen will disappear, and you'll decide if the proposed position is where the hidden triangle was. <br>You will now practice this by watching a few videos and making decisions.<p>To respond:<br style=""margin-bottom: 5px; text-indent: -20px; padding-left: 20px;"">- Press <b style=""color: #12AD2B;"">J for Yes</b>, if you think the triangle is in the correct position.<br style=""margin-top: 0; text-indent: -20px; padding-left: 20px;"">- Press <b style=""color: orange;"">F for No</b>, if you think the triangle is not in the correct position.</p><p>In this practice round, there is no time limit. Focus on getting comfortable with the task first.<br>Press either J or F to begin your practice trials.</p><img src = ""YesOrNo_instruction.png"" style=""width: 65%;""></img>","j","","","","","","","","","","","","","",""
"","","","","","html-keyboard-response","49","464650","0.0-11.2-0.2-2.2-0.6","62a36469aa54a53fcfcc27d2","6796e1c0ff24ca17c453c51c","67c70c37ba4882acb9fcaeef","passed","","","","","","","","","","","","","","","","","ballFalling_prac","441","414","302","5","fallScene","true","","","","","","",""
"","","","","","html-keyboard-response","50","465115","0.0-11.2-0.2-2.2-1.6","62a36469aa54a53fcfcc27d2","6796e1c0ff24ca17c453c51c","67c70c37ba4882acb9fcaeef","passed","","461","","","","","","","","","","","","","","j","yesOrNo_prac_noTimed","","","","5","","","close gt","NA","","","","",""
"","","","","","html-keyboard-response","51","466695","0.0-11.2-0.2-2.2-0.7","62a36469aa54a53fcfcc27d2","6796e1c0ff24ca17c453c51c","67c70c37ba4882acb9fcaeef","passed","","","","","","","","","","","","","","","","","ballFalling_prac","416","464","296","1","fallScene","false","","","","","","",""
"","","","","","html-keyboard-response","52","468057","0.0-11.2-0.2-2.2-1.7","62a36469aa54a53fcfcc27d2","6796e1c0ff24ca17c453c51c","67c70c37ba4882acb9fcaeef","passed","","1358","","","","","","","","","","","","","","j","yesOrNo_prac_noTimed","","","","1","","","gt","NA","","","","",""
"","","","","","html-keyboard-response","53","470163","0.0-11.2-0.2-2.2-0.8","62a36469aa54a53fcfcc27d2","6796e1c0ff24ca17c453c51c","67c70c37ba4882acb9fcaeef","passed","","","","","","","","","","","","","","","","","ballFalling_prac","660","666","350","3","fallScene","false","","","","","","",""
"","","","","","html-keyboard-response","54","473500","0.0-11.2-0.2-2.2-1.8","62a36469aa54a53fcfcc27d2","6796e1c0ff24ca17c453c51c","67c70c37ba4882acb9fcaeef","passed","","3332","","","","","","","","","","","","","","f","yesOrNo_prac_noTimed","","","","3","","","wrong direction","NA","","","","",""
"","","","","","instructions","55","478118","0.0-11.2-0.2-3.2","62a36469aa54a53fcfcc27d2","6796e1c0ff24ca17c453c51c","67c70c37ba4882acb9fcaeef","passed","[{""page_index"":0,""viewing_time"":2428},{""page_index"":1,""viewing_time"":2189}]","4618","","","","","","","","","","","","","","","","","","","","","","","","","","","",""
"","","","","","html-button-response","56","480256","0.0-11.2-0.2-4.2","62a36469aa54a53fcfcc27d2","6796e1c0ff24ca17c453c51c","67c70c37ba4882acb9fcaeef","passed","","1630","","","","","","","","","","","","","<p>To make sure you understood the task, we just have a <b>brief quiz</b> here.</p><p>If you need to review the instructions, click 'Previous'.</p><p>It's important to understand the task to do the study, so you have to pass the quiz to move to the study.</p>","1","","","","","","","","","","","","","",""
"","","","","","survey-multi-choice","57","488948","0.0-11.2-1.2-0.2","62a36469aa54a53fcfcc27d2","6796e1c0ff24ca17c453c51c","67c70c37ba4882acb9fcaeef","passed","","8689","","","","","","","","","","","","","","{""generalProcedure"":""Watch a video of a ball falling, some of it behind a gray screen. After each video, decide if the triangle is at the spot where the ball hit the triangle behind the screen. There is time limit for the response.""}","","","","","","","","","","[0]","","","",""
"","","","","","survey-multi-choice","58","493915","0.0-11.2-1.2-1.2","62a36469aa54a53fcfcc27d2","6796e1c0ff24ca17c453c51c","67c70c37ba4882acb9fcaeef","passed","","4964","","","","","","","","","","","","","","{""checkBallHitObstacle"":""Yes.""}","","","","","","","","","","[0]","","","",""
"","","","","","survey-multi-choice","59","497763","0.0-11.2-1.2-2.2","62a36469aa54a53fcfcc27d2","6796e1c0ff24ca17c453c51c","67c70c37ba4882acb9fcaeef","passed","","3845","","","","","","","","","","","","","","{""checkTriangleVisibility"":""No, the triangle is hidden behind the gray screen.""}","","","","","","","","","","[0]","","","",""
"","","","","","survey-multi-choice","60","500857","0.0-11.2-1.2-3.2","62a36469aa54a53fcfcc27d2","6796e1c0ff24ca17c453c51c","67c70c37ba4882acb9fcaeef","passed","","3091","","","","","","","","","","","","","","{""checkTimedResponse"":""Your response will not be recorded, and the trial will move to the next one.""}","","","","","","","","","","[0]","","","",""
"","","","","","survey-multi-choice","61","504856","0.0-11.2-1.2-4.2","62a36469aa54a53fcfcc27d2","6796e1c0ff24ca17c453c51c","67c70c37ba4882acb9fcaeef","passed","","3997","","","","","","","","","","","","","","{""checkTimeBlockNotice"":""At the beginning of each block.""}","","","","","","","","","","[0]","","","",""
"","","","","","survey-multi-choice","62","508392","0.0-11.2-1.2-5.2","62a36469aa54a53fcfcc27d2","6796e1c0ff24ca17c453c51c","67c70c37ba4882acb9fcaeef","passed","","3533","","","","","","","","","","","","","","{""checkTimeBlockSameness"":""Yes, the time limit is the same for all trials within a block.""}","","","","","","","","","","[0]","","","",""
"","","","","","survey-multi-choice","63","517009","0.0-11.2-1.2-6.2","62a36469aa54a53fcfcc27d2","6796e1c0ff24ca17c453c51c","67c70c37ba4882acb9fcaeef","passed","","8614","","","","","","","","","","","","","","{""checkTrianglePrecision"":""No. The proposed purple triangle is not in the correct position because it doesn't match the location of the white triangle exactly.""}","","","","","","","","","","[0]","","","",""
"","","","","","instructions","64","536917","0.0-12.0","62a36469aa54a53fcfcc27d2","6796e1c0ff24ca17c453c51c","67c70c37ba4882acb9fcaeef","passed","[{""page_index"":0,""viewing_time"":3144},{""page_index"":1,""viewing_time"":2958},{""page_index"":2,""viewing_time"":7996},{""page_index"":3,""viewing_time"":5812}]","19911","","","","","","","","","","","","","","","","","","","","","","","","","","","",""
"","","","","","instructions","65","543177","0.0-13.0-0.0","62a36469aa54a53fcfcc27d2","6796e1c0ff24ca17c453c51c","67c70c37ba4882acb9fcaeef","passed","[{""page_index"":0,""viewing_time"":6258}]","6259","","","","","","","","","","","","","","","","","","","","","","","","","","","",""
"","","","","","html-keyboard-response","66","546651","0.0-13.0-1.0","62a36469aa54a53fcfcc27d2","6796e1c0ff24ca17c453c51c","67c70c37ba4882acb9fcaeef","passed","","3472","","","","","","","","","","","","","<p><span style=""font-size:40px;"">Practice BLOCK 1</span></p><p><span style=""font-size:25px;"">You have <b style=""color: #FF644F;""><strong>3 second(s)</strong></b> to respond to the following trials.</span><br></p><p id=""blinking-text"" style=""font-weight; animation: blink 2s infinite;"">Press Space to continue</p><style>
                    @keyframes blink {
                        50% {
                            opacity: 0;
                        }
                    }
                </style>"," ","","","","","","","","","","","","","",""
"","","","","","html-keyboard-response","67","548206","0.0-13.0-2.0-0.0","62a36469aa54a53fcfcc27d2","6796e1c0ff24ca17c453c51c","67c70c37ba4882acb9fcaeef","passed","","","","","","","","","","","","","","","","","ballFalling_prac","416","464","296","1","fallScene","false","","","","","","",""
"","","","","","html-keyboard-response","68","551228","0.0-13.0-2.0-1.0","62a36469aa54a53fcfcc27d2","6796e1c0ff24ca17c453c51c","67c70c37ba4882acb9fcaeef","passed","","1693","","","","","","","","","","","","","","j","yesOrNo_prac","","","","1","","","far gt","3000","","","","",""
"","","","","","html-keyboard-response","69","552800","0.0-13.0-2.0-0.1","62a36469aa54a53fcfcc27d2","6796e1c0ff24ca17c453c51c","67c70c37ba4882acb9fcaeef","passed","","","","","","","","","","","","","","","","","ballFalling_prac","584","536","296","1","fallScene","true","","","","","","",""
"","","","","","html-keyboard-response","70","555805","0.0-13.0-2.0-1.1","62a36469aa54a53fcfcc27d2","6796e1c0ff24ca17c453c51c","67c70c37ba4882acb9fcaeef","passed","","973","","","","","","","","","","","","","","j","yesOrNo_prac","","","","1","","","close gt","3000","","","","",""
"","","","","","html-keyboard-response","71","557388","0.0-13.0-2.0-0.2","62a36469aa54a53fcfcc27d2","6796e1c0ff24ca17c453c51c","67c70c37ba4882acb9fcaeef","passed","","","","","","","","","","","","","","","","","ballFalling_prac","660","610","263","4","fallScene","false","","","","","","",""
"","","","","","html-keyboard-response","72","560405","0.0-13.0-2.0-1.2","62a36469aa54a53fcfcc27d2","6796e1c0ff24ca17c453c51c","67c70c37ba4882acb9fcaeef","passed","","917","","","","","","","","","","","","","","j","yesOrNo_prac","","","","4","","","gt","3000","","","","",""
"","","","","","html-keyboard-response","73","562969","0.0-13.0-3.0","62a36469aa54a53fcfcc27d2","6796e1c0ff24ca17c453c51c","67c70c37ba4882acb9fcaeef","passed","","2562","","","","","","","","","","","","","<p><span style=""font-size:40px;"">Practice BLOCK 2</span></p><p><span style=""font-size:25px;"">You have <b style=""color: #FF644F;""><strong>0.7 second(s)</strong></b> to respond to the following trials.</span><br></p><p id=""blinking-text"" style=""font-weight; animation: blink 2s infinite;"">Press Space to continue</p><style>
                    @keyframes blink {
                        50% {
                            opacity: 0;
                        }
                    }
                </style>"," ","","","","","","","","","","","","","",""
"","","","","","html-keyboard-response","74","565085","0.0-13.0-4.0-0.0","62a36469aa54a53fcfcc27d2","6796e1c0ff24ca17c453c51c","67c70c37ba4882acb9fcaeef","passed","","","","","","","","","","","","","","","","","ballFalling_prac","340","334","350","3","fallScene","true","","","","","","",""
"","","","","","html-keyboard-response","75","565797","0.0-13.0-4.0-1.0","62a36469aa54a53fcfcc27d2","6796e1c0ff24ca17c453c51c","67c70c37ba4882acb9fcaeef","passed","","null","","","","","","","","","","","","","","null","yesOrNo_prac","","","","3","","","close gt","700","","","","",""
"","","","","","html-keyboard-response","76","567366","0.0-13.0-4.0-0.1","62a36469aa54a53fcfcc27d2","6796e1c0ff24ca17c453c51c","67c70c37ba4882acb9fcaeef","passed","","","","","","","","","","","","","","","","","ballFalling_prac","660","610","263","4","fallScene","false","","","","","","",""
"","","","","","html-keyboard-response","77","568079","0.0-13.0-4.0-1.1","62a36469aa54a53fcfcc27d2","6796e1c0ff24ca17c453c51c","67c70c37ba4882acb9fcaeef","passed","","431","","","","","","","","","","","","","","j","yesOrNo_prac","","","","4","","","far gt","700","","","","",""
"","","","","","html-keyboard-response","78","569645","0.0-13.0-4.0-0.2","62a36469aa54a53fcfcc27d2","6796e1c0ff24ca17c453c51c","67c70c37ba4882acb9fcaeef","passed","","","","","","","","","","","","","","","","","ballFalling_prac","441","500","317","6","fallScene","true","","","","","","",""
"","","","","","html-keyboard-response","79","570361","0.0-13.0-4.0-1.2","62a36469aa54a53fcfcc27d2","6796e1c0ff24ca17c453c51c","67c70c37ba4882acb9fcaeef","passed","","468","","","","","","","","","","","","","","j","yesOrNo_prac","","","","6","","","gt","700","","","","",""
"","","","","","instructions","80","573396","0.0-13.0-5.0","62a36469aa54a53fcfcc27d2","6796e1c0ff24ca17c453c51c","67c70c37ba4882acb9fcaeef","passed","[{""page_index"":0,""viewing_time"":3032}]","3033","","","","","","","","","","","","","","","","","","","","","","","","","","","",""
"","","","","","html-keyboard-response","81","576127","0.0-13.0-6.0","62a36469aa54a53fcfcc27d2","6796e1c0ff24ca17c453c51c","67c70c37ba4882acb9fcaeef","passed","","2729","","","","","","","","","","","","","<p><span style=""font-size:40px;"">Practice Test BLOCK 1</span></p><p><span style=""font-size:25px;"">You have <b style=""color: #FF644F;""><strong>0.7 second(s)</strong></b> to respond to the following trials.</span><br></p><p id=""blinking-text"" style=""font-weight; animation: blink 2s infinite;"">Press Space to continue</p><style>
                    @keyframes blink {
                        50% {
                            opacity: 0;
                        }
                    }
                </style>"," ","","","","","","","","","","","","","",""
"","","","","","html-keyboard-response","82","577710","0.0-13.0-7.0-0.0","62a36469aa54a53fcfcc27d2","6796e1c0ff24ca17c453c51c","67c70c37ba4882acb9fcaeef","passed","","","","","","","","","","","","","","","","","ballFalling_prac","340","390","263","4","fallScene","true","","","","","","",""
"","","","","","html-keyboard-response","83","578424","0.0-13.0-7.0-1.0","62a36469aa54a53fcfcc27d2","6796e1c0ff24ca17c453c51c","67c70c37ba4882acb9fcaeef","passed","","581","","","","","","","","","","","","","","j","yesOrNo_prac","","","","4","","","far gt","700","","","","",""
"","","","","","html-keyboard-response","84","579992","0.0-13.0-7.0-0.1","62a36469aa54a53fcfcc27d2","6796e1c0ff24ca17c453c51c","67c70c37ba4882acb9fcaeef","passed","","","","","","","","","","","","","","","","","ballFalling_prac","559","586","302","5","fallScene","false","","","","","","",""
"","","","","","html-keyboard-response","85","580707","0.0-13.0-7.0-1.1","62a36469aa54a53fcfcc27d2","6796e1c0ff24ca17c453c51c","67c70c37ba4882acb9fcaeef","passed","","null","","","","","","","","","","","","","","null","yesOrNo_prac","","","","5","","","gt","700","","","","",""
"","","","","","html-keyboard-response","86","582258","0.0-13.0-7.0-0.2","62a36469aa54a53fcfcc27d2","6796e1c0ff24ca17c453c51c","67c70c37ba4882acb9fcaeef","passed","","","","","","","","","","","","","","","","","ballFalling_prac","441","500","317","6","fallScene","true","","","","","","",""
"","","","","","html-keyboard-response","87","582972","0.0-13.0-7.0-1.2","62a36469aa54a53fcfcc27d2","6796e1c0ff24ca17c453c51c","67c70c37ba4882acb9fcaeef","passed","","401","","","","","","","","","","","","","","f","yesOrNo_prac","","","","6","","","close gt","700","","","","",""
"","","","","","html-keyboard-response","88","585570","0.0-13.0-8.0","62a36469aa54a53fcfcc27d2","6796e1c0ff24ca17c453c51c","67c70c37ba4882acb9fcaeef","passed","","2599","","","","","","","","","","","","","<p><span style=""font-size:40px;"">Practice Test BLOCK 2</span></p><p><span style=""font-size:25px;"">You have <b style=""color: #FF644F;""><strong>3 second(s)</strong></b> to respond to the following trials.</span><br></p><p id=""blinking-text"" style=""font-weight; animation: blink 2s infinite;"">Press Space to continue</p><style>
                    @keyframes blink {
                        50% {
                            opacity: 0;
                        }
                    }
                </style>"," ","","","","","","","","","","","","","",""
"","","","","","html-keyboard-response","89","587151","0.0-13.0-9.0-0.0","62a36469aa54a53fcfcc27d2","6796e1c0ff24ca17c453c51c","67c70c37ba4882acb9fcaeef","passed","","","","","","","","","","","","","","","","","ballFalling_prac","416","365","249","2","fallScene","false","","","","","","",""
"","","","","","html-keyboard-response","90","590165","0.0-13.0-9.0-1.0","62a36469aa54a53fcfcc27d2","6796e1c0ff24ca17c453c51c","67c70c37ba4882acb9fcaeef","passed","","1035","","","","","","","","","","","","","","j","yesOrNo_prac","","","","2","","","gt","3000","","","","",""
"","","","","","html-keyboard-response","91","591732","0.0-13.0-9.0-0.1","62a36469aa54a53fcfcc27d2","6796e1c0ff24ca17c453c51c","67c70c37ba4882acb9fcaeef","passed","","","","","","","","","","","","","","","","","ballFalling_prac","340","390","263","4","fallScene","true","","","","","","",""
"","","","","","html-keyboard-response","92","594746","0.0-13.0-9.0-1.1","62a36469aa54a53fcfcc27d2","6796e1c0ff24ca17c453c51c","67c70c37ba4882acb9fcaeef","passed","","1033","","","","","","","","","","","","","","j","yesOrNo_prac","","","","4","","","close gt","3000","","","","",""
"","","","","","html-keyboard-response","93","596314","0.0-13.0-9.0-0.2","62a36469aa54a53fcfcc27d2","6796e1c0ff24ca17c453c51c","67c70c37ba4882acb9fcaeef","passed","","","","","","","","","","","","","","","","","ballFalling_prac","559","586","302","5","fallScene","false","","","","","","",""
"","","","","","html-keyboard-response","94","599327","0.0-13.0-9.0-1.2","62a36469aa54a53fcfcc27d2","6796e1c0ff24ca17c453c51c","67c70c37ba4882acb9fcaeef","passed","","1512","","","","","","","","","","","","","","f","yesOrNo_prac","","","","5","","","far gt","3000","","","","",""
"","","","","","instructions","95","602455","0.0-14.0","62a36469aa54a53fcfcc27d2","6796e1c0ff24ca17c453c51c","67c70c37ba4882acb9fcaeef","passed","[{""page_index"":0,""viewing_time"":3122}]","3123","","","","","","","","","","","","","","","","","","","","","","","","","","","",""
"","","","","","html-keyboard-response","96","608470","0.0-15.0","62a36469aa54a53fcfcc27d2","6796e1c0ff24ca17c453c51c","67c70c37ba4882acb9fcaeef","passed","","6012","","","","","","","","","","","","","<p><span style=""font-size:40px;"">BLOCK 1</span></p><p><span style=""font-size:25px;"">You have <b style=""color: #FF644F;""><strong>0.7 second(s)</strong></b> to respond to the following trials.</span><br></p><p></p> <!-- Blank line -->
                <p id=""blinking-text"" style=""font-weight; animation: blink 2s infinite;"">Press Space to continue</p>
                <style>
                    @keyframes blink {
                        50% {
                            opacity: 0;
                        }
                    }
                </style></p>"," ","","","","","","","","","","","","","",""
"","","","","","html-keyboard-response","97","610125","0.0-16.0-0.0","62a36469aa54a53fcfcc27d2","6796e1c0ff24ca17c453c51c","67c70c37ba4882acb9fcaeef","passed","","","","","","","","","","","","","","","","","ballFalling","500","479.92114317029973","330.87","6","fallScene","true","","","","","1","",""
"","","","","","html-keyboard-response","98","610838","0.0-16.0-1.0","62a36469aa54a53fcfcc27d2","6796e1c0ff24ca17c453c51c","67c70c37ba4882acb9fcaeef","passed","","573","","","","","","","","","","","","","","f","yesOrNo","","","","6","","","lp","700","","","1","499","189.92909825697632"
"","","","","","html-keyboard-response","99","612390","0.0-16.0-0.1","62a36469aa54a53fcfcc27d2","6796e1c0ff24ca17c453c51c","67c70c37ba4882acb9fcaeef","passed","","","","","","","","","","","","","","","","","ballFalling","500","453.67114317029973","210.33","5","fallScene","true","","","","","2","",""
"","","","","","html-keyboard-response","100","613104","0.0-16.0-1.1","62a36469aa54a53fcfcc27d2","6796e1c0ff24ca17c453c51c","67c70c37ba4882acb9fcaeef","passed","","null","","","","","","","","","","","","","","null","yesOrNo","","","","5","","","gt","700","","","2","453.6711431702998","210.33"
"","","","","","html-keyboard-response","101","614890","0.0-16.0-0.2","62a36469aa54a53fcfcc27d2","6796e1c0ff24ca17c453c51c","67c70c37ba4882acb9fcaeef","passed","","","","","","","","","","","","","","","","","ballFalling","322.3","308.07114317029976","253.89","2","fallScene","true","","","","","3","",""
"","","","","","html-keyboard-response","102","615603","0.0-16.0-1.2","62a36469aa54a53fcfcc27d2","6796e1c0ff24ca17c453c51c","67c70c37ba4882acb9fcaeef","passed","","null","","","","","","","","","","","","","","null","yesOrNo","","","","2","","","lp","700","","","3","321.3","151"
"","","","","","html-keyboard-response","103","617388","0.0-16.0-0.3","62a36469aa54a53fcfcc27d2","6796e1c0ff24ca17c453c51c","67c70c37ba4882acb9fcaeef","passed","","","","","","","","","","","","","","","","","ballFalling","322.3","308.07114317029976","253.89","2","fallScene","false","","","","","4","",""
"","","","","","html-keyboard-response","104","618102","0.0-16.0-1.3","62a36469aa54a53fcfcc27d2","6796e1c0ff24ca17c453c51c","67c70c37ba4882acb9fcaeef","passed","","450","","","","","","","","","","","","","","f","yesOrNo","","","","2","","","lp","700","","","4","321.3","151"
"","","","","","html-keyboard-response","105","619653","0.0-16.0-0.4","62a36469aa54a53fcfcc27d2","6796e1c0ff24ca17c453c51c","67c70c37ba4882acb9fcaeef","passed","","","","","","","","","","","","","","","","","ballFalling","604.4000000000001","575.4211431702997","266.76","12","fallScene","true","","","","","5","",""
"","","","","","html-keyboard-response","106","620368","0.0-16.0-1.4","62a36469aa54a53fcfcc27d2","6796e1c0ff24ca17c453c51c","67c70c37ba4882acb9fcaeef","passed","","373","","","","","","","","","","","","","","f","yesOrNo","","","","12","","","gt","700","","","5","575.4211431702997","266.76"
"","","","","","html-keyboard-response","107","622370","0.0-16.0-0.5","62a36469aa54a53fcfcc27d2","6796e1c0ff24ca17c453c51c","67c70c37ba4882acb9fcaeef","passed","","","","","","","","","","","","","","","","","ballFalling","604.4000000000001","596.8711431702998","394.5","10","fallScene","false","","","","","6","",""
"","","","","","html-keyboard-response","108","623083","0.0-16.0-1.5","62a36469aa54a53fcfcc27d2","6796e1c0ff24ca17c453c51c","67c70c37ba4882acb9fcaeef","passed","","420","","","","","","","","","","","","","","j","yesOrNo","","","","10","","","mid","700","","","6","536.4288568297004","300"
"","","","","","html-keyboard-response","109","624634","0.0-16.0-0.6","62a36469aa54a53fcfcc27d2","6796e1c0ff24ca17c453c51c","67c70c37ba4882acb9fcaeef","passed","","","","","","","","","","","","","","","","","ballFalling","322.3","356.42114317029973","357.87","4","fallScene","false","","","","","7","",""
"","","","","","html-keyboard-response","110","625349","0.0-16.0-1.6","62a36469aa54a53fcfcc27d2","6796e1c0ff24ca17c453c51c","67c70c37ba4882acb9fcaeef","passed","","null","","","","","","","","","","","","","","null","yesOrNo","","","","4","","","lp","700","","","7","323.3","297.4070551689986"
"","","","","","html-keyboard-response","111","626899","0.0-16.0-0.7","62a36469aa54a53fcfcc27d2","6796e1c0ff24ca17c453c51c","67c70c37ba4882acb9fcaeef","passed","","","","","","","","","","","","","","","","","ballFalling","322.3","356.42114317029973","357.87","4","fallScene","true","","","","","8","",""
"","","","","","html-keyboard-response","112","627602","0.0-16.0-1.7","62a36469aa54a53fcfcc27d2","6796e1c0ff24ca17c453c51c","67c70c37ba4882acb9fcaeef","passed","","404","","","","","","","","","","","","","","j","yesOrNo","","","","4","","","gt","700","","","8","356.42114317029973","357.87"
"","","","","","html-keyboard-response","113","629112","0.0-16.0-0.8","62a36469aa54a53fcfcc27d2","6796e1c0ff24ca17c453c51c","67c70c37ba4882acb9fcaeef","passed","","","","","","","","","","","","","","","","","ballFalling","604.4000000000001","667.6211431702998","201.78","9","fallScene","true","","","","","9","",""
"","","","","","html-keyboard-response","114","629817","0.0-16.0-1.8","62a36469aa54a53fcfcc27d2","6796e1c0ff24ca17c453c51c","67c70c37ba4882acb9fcaeef","passed","","null","","","","","","","","","","","","","","null","yesOrNo","","","","9","","","mid","700","","","9","605.4000000000001","300"
"","","","","","html-keyboard-response","115","631314","0.0-16.0-0.9","62a36469aa54a53fcfcc27d2","6796e1c0ff24ca17c453c51c","67c70c37ba4882acb9fcaeef","passed","","","","","","","","","","","","","","","","","ballFalling","604.4000000000001","667.6211431702998","201.78","9","fallScene","true","","","","","10","",""
"","","","","","html-keyboard-response","116","632029","0.0-16.0-1.9","62a36469aa54a53fcfcc27d2","6796e1c0ff24ca17c453c51c","67c70c37ba4882acb9fcaeef","passed","","622","","","","","","","","","","","","","","j","yesOrNo","","","","9","","","mid","700","","","10","605.4000000000001","300"
"","","","","","html-keyboard-response","117","633680","0.0-16.0-0.10","62a36469aa54a53fcfcc27d2","6796e1c0ff24ca17c453c51c","67c70c37ba4882acb9fcaeef","passed","","","","","","","","","","","","","","","","","ballFalling","500","479.92114317029973","330.87","6","fallScene","true","","","","","11","",""
"","","","","","html-keyboard-response","118","634394","0.0-16.0-1.10","62a36469aa54a53fcfcc27d2","6796e1c0ff24ca17c453c51c","67c70c37ba4882acb9fcaeef","passed","","633","","","","","","","","","","","","","","f","yesOrNo","","","","6","","","mid","700","","","11","499","300"
"","","","","","html-keyboard-response","119","635946","0.0-16.0-0.11","62a36469aa54a53fcfcc27d2","6796e1c0ff24ca17c453c51c","67c70c37ba4882acb9fcaeef","passed","","","","","","","","","","","","","","","","","ballFalling","322.3","356.42114317029973","357.87","4","fallScene","false","","","","","12","",""
"","","","","","html-keyboard-response","120","636660","0.0-16.0-1.11","62a36469aa54a53fcfcc27d2","6796e1c0ff24ca17c453c51c","67c70c37ba4882acb9fcaeef","passed","","null","","","","","","","","","","","","","","null","yesOrNo","","","","4","","","mid","700","","","12","390.27114317029975","300"
"","","","","","html-keyboard-response","121","638212","0.0-16.0-0.12","62a36469aa54a53fcfcc27d2","6796e1c0ff24ca17c453c51c","67c70c37ba4882acb9fcaeef","passed","","","","","","","","","","","","","","","","","ballFalling","500","453.67114317029973","210.33","5","fallScene","true","","","","","13","",""
"","","","","","html-keyboard-response","122","638926","0.0-16.0-1.12","62a36469aa54a53fcfcc27d2","6796e1c0ff24ca17c453c51c","67c70c37ba4882acb9fcaeef","passed","","null","","","","","","","","","","","","","","null","yesOrNo","","","","5","","","mid","700","","","13","499","300"
"","","","","","html-keyboard-response","123","640477","0.0-16.0-0.13","62a36469aa54a53fcfcc27d2","6796e1c0ff24ca17c453c51c","67c70c37ba4882acb9fcaeef","passed","","","","","","","","","","","","","","","","","ballFalling","322.3","379.3711431702997","245.25","1","fallScene","false","","","","","14","",""
"","","","","","html-keyboard-response","124","641192","0.0-16.0-1.13","62a36469aa54a53fcfcc27d2","6796e1c0ff24ca17c453c51c","67c70c37ba4882acb9fcaeef","passed","","471","","","","","","","","","","","","","","f","yesOrNo","","","","1","","","lp","700","","","14","323.3","217.74551669457017"
"","","","","","html-keyboard-response","125","642743","0.0-16.0-0.14","62a36469aa54a53fcfcc27d2","6796e1c0ff24ca17c453c51c","67c70c37ba4882acb9fcaeef","passed","","","","","","","","","","","","","","","","","ballFalling","322.3","379.3711431702997","245.25","1","fallScene","false","","","","","15","",""
"","","","","","html-keyboard-response","126","643453","0.0-16.0-1.14","62a36469aa54a53fcfcc27d2","6796e1c0ff24ca17c453c51c","67c70c37ba4882acb9fcaeef","passed","","null","","","","","","","","","","","","","","null","yesOrNo","","","","1","","","gt","700","","","15","379.3711431702997","245.25"
"","","","","","html-keyboard-response","127","645021","0.0-16.0-0.15","62a36469aa54a53fcfcc27d2","6796e1c0ff24ca17c453c51c","67c70c37ba4882acb9fcaeef","passed","","","","","","","","","","","","","","","","","ballFalling","500","553.4711431702997","282.51","7","fallScene","true","","","","","16","",""
"","","","","","html-keyboard-response","128","645735","0.0-16.0-1.15","62a36469aa54a53fcfcc27d2","6796e1c0ff24ca17c453c51c","67c70c37ba4882acb9fcaeef","passed","","null","","","","","","","","","","","","","","null","yesOrNo","","","","7","","","gt","700","","","16","553.4711431702997","282.51"
"","","","","","html-keyboard-response","129","647288","0.0-16.0-0.16","62a36469aa54a53fcfcc27d2","6796e1c0ff24ca17c453c51c","67c70c37ba4882acb9fcaeef","passed","","","","","","","","","","","","","","","","","ballFalling","604.4000000000001","575.4211431702997","266.76","12","fallScene","false","","","","","17","",""
"","","","","","html-keyboard-response","130","648000","0.0-16.0-1.16","62a36469aa54a53fcfcc27d2","6796e1c0ff24ca17c453c51c","67c70c37ba4882acb9fcaeef","passed","","390","","","","","","","","","","","","","","j","yesOrNo","","","","12","","","gt","700","","","17","575.4211431702997","266.76"
"","","","","","html-keyboard-response","131","649551","0.0-16.0-0.17","62a36469aa54a53fcfcc27d2","6796e1c0ff24ca17c453c51c","67c70c37ba4882acb9fcaeef","passed","","","","","","","","","","","","","","","","","ballFalling","322.3","296.07114317029976","371.46","3","fallScene","true","","","","","18","",""
"","","","","","html-keyboard-response","132","650268","0.0-16.0-1.17","62a36469aa54a53fcfcc27d2","6796e1c0ff24ca17c453c51c","67c70c37ba4882acb9fcaeef","passed","","null","","","","","","","","","","","","","","null","yesOrNo","","","","3","","","gt","700","","","18","296.07114317029976","371.46"
"","","","","","html-keyboard-response","133","652068","0.0-16.0-0.18","62a36469aa54a53fcfcc27d2","6796e1c0ff24ca17c453c51c","67c70c37ba4882acb9fcaeef","passed","","","","","","","","","","","","","","","","","ballFalling","322.3","308.07114317029976","253.89","2","fallScene","false","","","","","19","",""
"","","","","","html-keyboard-response","134","652785","0.0-16.0-1.18","62a36469aa54a53fcfcc27d2","6796e1c0ff24ca17c453c51c","67c70c37ba4882acb9fcaeef","passed","","null","","","","","","","","","","","","","","null","yesOrNo","","","","2","","","mid","700","","","19","321.3","300"
"","","","","","html-keyboard-response","135","654318","0.0-16.0-0.19","62a36469aa54a53fcfcc27d2","6796e1c0ff24ca17c453c51c","67c70c37ba4882acb9fcaeef","passed","","","","","","","","","","","","","","","","","ballFalling","604.4000000000001","650.0211431702996","404.58000000000004","11","fallScene","true","","","","","20","",""
"","","","","","html-keyboard-response","136","655031","0.0-16.0-1.19","62a36469aa54a53fcfcc27d2","6796e1c0ff24ca17c453c51c","67c70c37ba4882acb9fcaeef","passed","","273","","","","","","","","","","","","","","j","yesOrNo","","","","11","","","gt","700","","","20","650.0211431702996","404.58"
"","","","","","html-keyboard-response","137","656582","0.0-16.0-0.20","62a36469aa54a53fcfcc27d2","6796e1c0ff24ca17c453c51c","67c70c37ba4882acb9fcaeef","passed","","","","","","","","","","","","","","","","","ballFalling","322.3","296.07114317029976","371.46","3","fallScene","true","","","","","21","",""
"","","","","","html-keyboard-response","138","657297","0.0-16.0-1.20","62a36469aa54a53fcfcc27d2","6796e1c0ff24ca17c453c51c","67c70c37ba4882acb9fcaeef","passed","","null","","","","","","","","","","","","","","null","yesOrNo","","","","3","","","mid","700","","","21","321.3","300"
"","","","","","html-keyboard-response","139","658783","0.0-16.0-0.21","62a36469aa54a53fcfcc27d2","6796e1c0ff24ca17c453c51c","67c70c37ba4882acb9fcaeef","passed","","","","","","","","","","","","","","","","","ballFalling","604.4000000000001","667.6211431702998","201.78","9","fallScene","true","","","","","22","",""
"","","","","","html-keyboard-response","140","659496","0.0-16.0-1.21","62a36469aa54a53fcfcc27d2","6796e1c0ff24ca17c453c51c","67c70c37ba4882acb9fcaeef","passed","","519","","","","","","","","","","","","","","j","yesOrNo","","","","9","","","gt","700","","","22","667.6211431702998","201.78"
"","","","","","html-keyboard-response","141","661047","0.0-16.0-0.22","62a36469aa54a53fcfcc27d2","6796e1c0ff24ca17c453c51c","67c70c37ba4882acb9fcaeef","passed","","","","","","","","","","","","","","","","","ballFalling","322.3","379.3711431702997","245.25","1","fallScene","false","","","","","23","",""
"","","","","","html-keyboard-response","142","661761","0.0-16.0-1.22","62a36469aa54a53fcfcc27d2","6796e1c0ff24ca17c453c51c","67c70c37ba4882acb9fcaeef","passed","","null","","","","","","","","","","","","","","null","yesOrNo","","","","1","","","gt","700","","","23","379.3711431702997","245.25"
"","","","","","html-keyboard-response","143","663312","0.0-16.0-0.23","62a36469aa54a53fcfcc27d2","6796e1c0ff24ca17c453c51c","67c70c37ba4882acb9fcaeef","passed","","","","","","","","","","","","","","","","","ballFalling","604.4000000000001","650.0211431702996","404.58000000000004","11","fallScene","true","","","","","24","",""
"","","","","","html-keyboard-response","144","664017","0.0-16.0-1.23","62a36469aa54a53fcfcc27d2","6796e1c0ff24ca17c453c51c","67c70c37ba4882acb9fcaeef","passed","","493","","","","","","","","","","","","","","f","yesOrNo","","","","11","","","lp","700","","","24","605.4000000000001","372.6340973215488"
"","","","","","html-keyboard-response","145","666229","0.0-17.0","62a36469aa54a53fcfcc27d2","6796e1c0ff24ca17c453c51c","67c70c37ba4882acb9fcaeef","passed","","2209","","","","","","","","","","","","","<p><span style=""font-size:40px;"">BLOCK 2</span></p><p><span style=""font-size:25px;"">You have <b style=""color: #FF644F;""><strong>0.7 second(s)</strong></b> to respond to the following trials.</span><br></p><p></p> <!-- Blank line -->
                <p id=""blinking-text"" style=""font-weight; animation: blink 2s infinite;"">Press Space to continue</p>
                <style>
                    @keyframes blink {
                        50% {
                            opacity: 0;
                        }
                    }
                </style></p>"," ","","","","","","","","","","","","","",""
"","","","","","html-keyboard-response","146","667795","0.0-18.0-0.0","62a36469aa54a53fcfcc27d2","6796e1c0ff24ca17c453c51c","67c70c37ba4882acb9fcaeef","passed","","","","","","","","","","","","","","","","","ballFalling","604.4000000000001","650.0211431702996","404.58000000000004","11","fallScene","true","","","","","25","",""
"","","","","","html-keyboard-response","147","668507","0.0-18.0-1.0","62a36469aa54a53fcfcc27d2","6796e1c0ff24ca17c453c51c","67c70c37ba4882acb9fcaeef","passed","","384","","","","","","","","","","","","","","j","yesOrNo","","","","11","","","mid","700","","","25","605.4000000000001","300"
"","","","","","html-keyboard-response","148","670160","0.0-18.0-0.1","62a36469aa54a53fcfcc27d2","6796e1c0ff24ca17c453c51c","67c70c37ba4882acb9fcaeef","passed","","","","","","","","","","","","","","","","","ballFalling","500","479.92114317029973","330.87","6","fallScene","false","","","","","26","",""
"","","","","","html-keyboard-response","149","670873","0.0-18.0-1.1","62a36469aa54a53fcfcc27d2","6796e1c0ff24ca17c453c51c","67c70c37ba4882acb9fcaeef","passed","","null","","","","","","","","","","","","","","null","yesOrNo","","","","6","","","lp","700","","","26","499","189.92909825697632"
"","","","","","html-keyboard-response","150","672442","0.0-18.0-0.2","62a36469aa54a53fcfcc27d2","6796e1c0ff24ca17c453c51c","67c70c37ba4882acb9fcaeef","passed","","","","","","","","","","","","","","","","","ballFalling","500","553.4711431702997","282.51","7","fallScene","false","","","","","27","",""
"","","","","","html-keyboard-response","151","673156","0.0-18.0-1.2","62a36469aa54a53fcfcc27d2","6796e1c0ff24ca17c453c51c","67c70c37ba4882acb9fcaeef","passed","","365","","","","","","","","","","","","","","f","yesOrNo","","","","7","","","lp","700","","","27","501","227.2843295913261"
"","","","","","html-keyboard-response","152","674709","0.0-18.0-0.3","62a36469aa54a53fcfcc27d2","6796e1c0ff24ca17c453c51c","67c70c37ba4882acb9fcaeef","passed","","","","","","","","","","","","","","","","","ballFalling","322.3","379.3711431702997","245.25","1","fallScene","false","","","","","28","",""
"","","","","","html-keyboard-response","153","675421","0.0-18.0-1.3","62a36469aa54a53fcfcc27d2","6796e1c0ff24ca17c453c51c","67c70c37ba4882acb9fcaeef","passed","","587","","","","","","","","","","","","","","f","yesOrNo","","","","1","","","mid","700","","","28","390.27114317029975","300"
"","","","","","html-keyboard-response","154","676972","0.0-18.0-0.4","62a36469aa54a53fcfcc27d2","6796e1c0ff24ca17c453c51c","67c70c37ba4882acb9fcaeef","passed","","","","","","","","","","","","","","","","","ballFalling","604.4000000000001","650.0211431702996","404.58000000000004","11","fallScene","false","","","","","29","",""
"","","","","","html-keyboard-response","155","677687","0.0-18.0-1.4","62a36469aa54a53fcfcc27d2","6796e1c0ff24ca17c453c51c","67c70c37ba4882acb9fcaeef","passed","","653","","","","","","","","","","","","","","j","yesOrNo","","","","11","","","lp","700","","","29","605.4000000000001","372.6340973215488"
"","","","","","html-keyboard-response","156","679472","0.0-18.0-0.5","62a36469aa54a53fcfcc27d2","6796e1c0ff24ca17c453c51c","67c70c37ba4882acb9fcaeef","passed","","","","","","","","","","","","","","","","","ballFalling","322.3","308.07114317029976","253.89","2","fallScene","false","","","","","30","",""
"","","","","","html-keyboard-response","157","680186","0.0-18.0-1.5","62a36469aa54a53fcfcc27d2","6796e1c0ff24ca17c453c51c","67c70c37ba4882acb9fcaeef","passed","","null","","","","","","","","","","","","","","null","yesOrNo","","","","2","","","gt","700","","","30","308.07114317029976","253.89"
"","","","","","html-keyboard-response","158","682200","0.0-18.0-0.6","62a36469aa54a53fcfcc27d2","6796e1c0ff24ca17c453c51c","67c70c37ba4882acb9fcaeef","passed","","","","","","","","","","","","","","","","","ballFalling","500","510.8711431702997","369.03","8","fallScene","false","","","","","31","",""
"","","","","","html-keyboard-response","159","682906","0.0-18.0-1.6","62a36469aa54a53fcfcc27d2","6796e1c0ff24ca17c453c51c","67c70c37ba4882acb9fcaeef","passed","","376","","","","","","","","","","","","","","f","yesOrNo","","","","8","","","gt","700","","","31","510.8711431702997","369.03"
"","","","","","html-keyboard-response","160","684919","0.0-18.0-0.7","62a36469aa54a53fcfcc27d2","6796e1c0ff24ca17c453c51c","67c70c37ba4882acb9fcaeef","passed","","","","","","","","","","","","","","","","","ballFalling","500","510.8711431702997","369.03","8","fallScene","true","","","","","32","",""
"","","","","","html-keyboard-response","161","685633","0.0-18.0-1.7","62a36469aa54a53fcfcc27d2","6796e1c0ff24ca17c453c51c","67c70c37ba4882acb9fcaeef","passed","","484","","","","","","","","","","","","","","j","yesOrNo","","","","8","","","mid","700","","","32","501","300"
"","","","","","html-keyboard-response","162","687186","0.0-18.0-0.8","62a36469aa54a53fcfcc27d2","6796e1c0ff24ca17c453c51c","67c70c37ba4882acb9fcaeef","passed","","","","","","","","","","","","","","","","","ballFalling","322.3","296.07114317029976","371.46","3","fallScene","true","","","","","33","",""
"","","","","","html-keyboard-response","163","687899","0.0-18.0-1.8","62a36469aa54a53fcfcc27d2","6796e1c0ff24ca17c453c51c","67c70c37ba4882acb9fcaeef","passed","","585","","","","","","","","","","","","","","j","yesOrNo","","","","3","","","lp","700","","","33","321.3","287.3327096511259"
"","","","","","html-keyboard-response","164","689684","0.0-18.0-0.9","62a36469aa54a53fcfcc27d2","6796e1c0ff24ca17c453c51c","67c70c37ba4882acb9fcaeef","passed","","","","","","","","","","","","","","","","","ballFalling","322.3","308.07114317029976","253.89","2","fallScene","false","","","","","34","",""
"","","","","","html-keyboard-response","165","690398","0.0-18.0-1.9","62a36469aa54a53fcfcc27d2","6796e1c0ff24ca17c453c51c","67c70c37ba4882acb9fcaeef","passed","","442","","","","","","","","","","","","","","f","yesOrNo","","","","2","","","mid","700","","","34","321.3","300"
"","","","","","html-keyboard-response","166","692400","0.0-18.0-0.10","62a36469aa54a53fcfcc27d2","6796e1c0ff24ca17c453c51c","67c70c37ba4882acb9fcaeef","passed","","","","","","","","","","","","","","","","","ballFalling","500","510.8711431702997","369.03","8","fallScene","false","","","","","35","",""
"","","","","","html-keyboard-response","167","693114","0.0-18.0-1.10","62a36469aa54a53fcfcc27d2","6796e1c0ff24ca17c453c51c","67c70c37ba4882acb9fcaeef","passed","","null","","","","","","","","","","","","","","null","yesOrNo","","","","8","","","mid","700","","","35","501","300"
"","","","","","html-keyboard-response","168","694649","0.0-18.0-0.11","62a36469aa54a53fcfcc27d2","6796e1c0ff24ca17c453c51c","67c70c37ba4882acb9fcaeef","passed","","","","","","","","","","","","","","","","","ballFalling","322.3","296.07114317029976","371.46","3","fallScene","false","","","","","36","",""
"","","","","","html-keyboard-response","169","695363","0.0-18.0-1.11","62a36469aa54a53fcfcc27d2","6796e1c0ff24ca17c453c51c","67c70c37ba4882acb9fcaeef","passed","","null","","","","","","","","","","","","","","null","yesOrNo","","","","3","","","gt","700","","","36","296.07114317029976","371.46"
"","","","","","html-keyboard-response","170","696860","0.0-18.0-0.12","62a36469aa54a53fcfcc27d2","6796e1c0ff24ca17c453c51c","67c70c37ba4882acb9fcaeef","passed","","","","","","","","","","","","","","","","","ballFalling","604.4000000000001","667.6211431702998","201.78","9","fallScene","true","","","","","37","",""
"","","","","","html-keyboard-response","171","697566","0.0-18.0-1.12","62a36469aa54a53fcfcc27d2","6796e1c0ff24ca17c453c51c","67c70c37ba4882acb9fcaeef","passed","","null","","","","","","","","","","","","","","null","yesOrNo","","","","9","","","lp","700","","","37","605.4000000000001","151"
"","","","","","html-keyboard-response","172","699130","0.0-18.0-0.13","62a36469aa54a53fcfcc27d2","6796e1c0ff24ca17c453c51c","67c70c37ba4882acb9fcaeef","passed","","","","","","","","","","","","","","","","","ballFalling","604.4000000000001","575.4211431702997","266.76","12","fallScene","false","","","","","38","",""
"","","","","","html-keyboard-response","173","699843","0.0-18.0-1.13","62a36469aa54a53fcfcc27d2","6796e1c0ff24ca17c453c51c","67c70c37ba4882acb9fcaeef","passed","","null","","","","","","","","","","","","","","null","yesOrNo","","","","12","","","lp","700","","","38","603.4000000000001","151"
"","","","","","html-keyboard-response","174","701846","0.0-18.0-0.14","62a36469aa54a53fcfcc27d2","6796e1c0ff24ca17c453c51c","67c70c37ba4882acb9fcaeef","passed","","","","","","","","","","","","","","","","","ballFalling","604.4000000000001","596.8711431702998","394.5","10","fallScene","false","","","","","39","",""
"","","","","","html-keyboard-response","175","702559","0.0-18.0-1.14","62a36469aa54a53fcfcc27d2","6796e1c0ff24ca17c453c51c","67c70c37ba4882acb9fcaeef","passed","","3","","","","","","","","","","","","","","f","yesOrNo","","","","10","","","gt","700","","","39","596.8711431702998","394.5"
"","","","","","html-keyboard-response","176","704120","0.0-18.0-0.15","62a36469aa54a53fcfcc27d2","6796e1c0ff24ca17c453c51c","67c70c37ba4882acb9fcaeef","passed","","","","","","","","","","","","","","","","","ballFalling","322.3","296.07114317029976","371.46","3","fallScene","false","","","","","40","",""
"","","","","","html-keyboard-response","177","704826","0.0-18.0-1.15","62a36469aa54a53fcfcc27d2","6796e1c0ff24ca17c453c51c","67c70c37ba4882acb9fcaeef","passed","","509","","","","","","","","","","","","","","f","yesOrNo","","","","3","","","lp","700","","","40","321.3","287.3327096511259"
"","","","","","html-keyboard-response","178","706839","0.0-18.0-0.16","62a36469aa54a53fcfcc27d2","6796e1c0ff24ca17c453c51c","67c70c37ba4882acb9fcaeef","passed","","","","","","","","","","","","","","","","","ballFalling","604.4000000000001","596.8711431702998","394.5","10","fallScene","true","","","","","41","",""
"","","","","","html-keyboard-response","179","707553","0.0-18.0-1.16","62a36469aa54a53fcfcc27d2","6796e1c0ff24ca17c453c51c","67c70c37ba4882acb9fcaeef","passed","","null","","","","","","","","","","","","","","null","yesOrNo","","","","10","","","mid","700","","","41","536.4288568297004","300"
"","","","","","html-keyboard-response","180","709567","0.0-18.0-0.17","62a36469aa54a53fcfcc27d2","6796e1c0ff24ca17c453c51c","67c70c37ba4882acb9fcaeef","passed","","","","","","","","","","","","","","","","","ballFalling","604.4000000000001","596.8711431702998","394.5","10","fallScene","false","","","","","42","",""
"","","","","","html-keyboard-response","181","710273","0.0-18.0-1.17","62a36469aa54a53fcfcc27d2","6796e1c0ff24ca17c453c51c","67c70c37ba4882acb9fcaeef","passed","","614","","","","","","","","","","","","","","j","yesOrNo","","","","10","","","lp","700","","","42","603.4000000000001","215.50214355555383"
"","","","","","html-keyboard-response","182","711836","0.0-18.0-0.18","62a36469aa54a53fcfcc27d2","6796e1c0ff24ca17c453c51c","67c70c37ba4882acb9fcaeef","passed","","","","","","","","","","","","","","","","","ballFalling","500","453.67114317029973","210.33","5","fallScene","false","","","","","43","",""
"","","","","","html-keyboard-response","183","712551","0.0-18.0-1.18","62a36469aa54a53fcfcc27d2","6796e1c0ff24ca17c453c51c","67c70c37ba4882acb9fcaeef","passed","","699","","","","","","","","","","","","","","j","yesOrNo","","","","5","","","lp","700","","","43","499","151"
"","","","","","html-keyboard-response","184","714115","0.0-18.0-0.19","62a36469aa54a53fcfcc27d2","6796e1c0ff24ca17c453c51c","67c70c37ba4882acb9fcaeef","passed","","","","","","","","","","","","","","","","","ballFalling","322.3","379.3711431702997","245.25","1","fallScene","false","","","","","44","",""
"","","","","","html-keyboard-response","185","714820","0.0-18.0-1.19","62a36469aa54a53fcfcc27d2","6796e1c0ff24ca17c453c51c","67c70c37ba4882acb9fcaeef","passed","","null","","","","","","","","","","","","","","null","yesOrNo","","","","1","","","mid","700","","","44","390.27114317029975","300"
"","","","","","html-keyboard-response","186","716382","0.0-18.0-0.20","62a36469aa54a53fcfcc27d2","6796e1c0ff24ca17c453c51c","67c70c37ba4882acb9fcaeef","passed","","","","","","","","","","","","","","","","","ballFalling","604.4000000000001","650.0211431702996","404.58000000000004","11","fallScene","true","","","","","45","",""
"","","","","","html-keyboard-response","187","717098","0.0-18.0-1.20","62a36469aa54a53fcfcc27d2","6796e1c0ff24ca17c453c51c","67c70c37ba4882acb9fcaeef","passed","","305","","","","","","","","","","","","","","f","yesOrNo","","","","11","","","mid","700","","","45","605.4000000000001","300"
"","","","","","html-keyboard-response","188","718667","0.0-18.0-0.21","62a36469aa54a53fcfcc27d2","6796e1c0ff24ca17c453c51c","67c70c37ba4882acb9fcaeef","passed","","","","","","","","","","","","","","","","","ballFalling","500","553.4711431702997","282.51","7","fallScene","true","","","","","46","",""
"","","","","","html-keyboard-response","189","719381","0.0-18.0-1.21","62a36469aa54a53fcfcc27d2","6796e1c0ff24ca17c453c51c","67c70c37ba4882acb9fcaeef","passed","","null","","","","","","","","","","","","","","null","yesOrNo","","","","7","","","gt","700","","","46","553.4711431702997","282.51"
"","","","","","html-keyboard-response","190","720949","0.0-18.0-0.22","62a36469aa54a53fcfcc27d2","6796e1c0ff24ca17c453c51c","67c70c37ba4882acb9fcaeef","passed","","","","","","","","","","","","","","","","","ballFalling","500","553.4711431702997","282.51","7","fallScene","true","","","","","47","",""
"","","","","","html-keyboard-response","191","721666","0.0-18.0-1.22","62a36469aa54a53fcfcc27d2","6796e1c0ff24ca17c453c51c","67c70c37ba4882acb9fcaeef","passed","","447","","","","","","","","","","","","","","f","yesOrNo","","","","7","","","mid","700","","","47","501","300"
"","","","","","html-keyboard-response","192","723466","0.0-18.0-0.23","62a36469aa54a53fcfcc27d2","6796e1c0ff24ca17c453c51c","67c70c37ba4882acb9fcaeef","passed","","","","","","","","","","","","","","","","","ballFalling","322.3","308.07114317029976","253.89","2","fallScene","true","","","","","48","",""
"","","","","","html-keyboard-response","193","724173","0.0-18.0-1.23","62a36469aa54a53fcfcc27d2","6796e1c0ff24ca17c453c51c","67c70c37ba4882acb9fcaeef","passed","","550","","","","","","","","","","","","","","j","yesOrNo","","","","2","","","gt","700","","","48","308.07114317029976","253.89"
"","","","","","html-keyboard-response","194","726131","0.0-19.0","62a36469aa54a53fcfcc27d2","6796e1c0ff24ca17c453c51c","67c70c37ba4882acb9fcaeef","passed","","1956","","","","","","","","","","","","","<p><span style=""font-size:40px;"">BLOCK 3</span></p><p><span style=""font-size:25px;"">You have <b style=""color: #FF644F;""><strong>3 second(s)</strong></b> to respond to the following trials.</span><br></p><p></p> <!-- Blank line -->
                <p id=""blinking-text"" style=""font-weight; animation: blink 2s infinite;"">Press Space to continue</p>
                <style>
                    @keyframes blink {
                        50% {
                            opacity: 0;
                        }
                    }
                </style></p>"," ","","","","","","","","","","","","","",""
"","","","","","html-keyboard-response","195","728146","0.0-20.0-0.0","62a36469aa54a53fcfcc27d2","6796e1c0ff24ca17c453c51c","67c70c37ba4882acb9fcaeef","passed","","","","","","","","","","","","","","","","","ballFalling","500","510.8711431702997","369.03","8","fallScene","false","","","","","49","",""
"","","","","","html-keyboard-response","196","731159","0.0-20.0-1.0","62a36469aa54a53fcfcc27d2","6796e1c0ff24ca17c453c51c","67c70c37ba4882acb9fcaeef","passed","","1902","","","","","","","","","","","","","","j","yesOrNo","","","","8","","","mid","3000","","","49","501","300"
"","","","","","html-keyboard-response","197","732944","0.0-20.0-0.1","62a36469aa54a53fcfcc27d2","6796e1c0ff24ca17c453c51c","67c70c37ba4882acb9fcaeef","passed","","","","","","","","","","","","","","","","","ballFalling","322.3","308.07114317029976","253.89","2","fallScene","false","","","","","50","",""
"","","","","","html-keyboard-response","198","735957","0.0-20.0-1.1","62a36469aa54a53fcfcc27d2","6796e1c0ff24ca17c453c51c","67c70c37ba4882acb9fcaeef","passed","","1270","","","","","","","","","","","","","","j","yesOrNo","","","","2","","","gt","3000","","","50","308.07114317029976","253.89"
"","","","","","html-keyboard-response","199","737973","0.0-20.0-0.2","62a36469aa54a53fcfcc27d2","6796e1c0ff24ca17c453c51c","67c70c37ba4882acb9fcaeef","passed","","","","","","","","","","","","","","","","","ballFalling","604.4000000000001","596.8711431702998","394.5","10","fallScene","true","","","","","51","",""
"","","","","","html-keyboard-response","200","740986","0.0-20.0-1.2","62a36469aa54a53fcfcc27d2","6796e1c0ff24ca17c453c51c","67c70c37ba4882acb9fcaeef","passed","","1341","","","","","","","","","","","","","","f","yesOrNo","","","","10","","","lp","3000","","","51","603.4000000000001","215.50214355555383"
"","","","","","html-keyboard-response","201","742774","0.0-20.0-0.3","62a36469aa54a53fcfcc27d2","6796e1c0ff24ca17c453c51c","67c70c37ba4882acb9fcaeef","passed","","","","","","","","","","","","","","","","","ballFalling","322.3","308.07114317029976","253.89","2","fallScene","true","","","","","52","",""
"","","","","","html-keyboard-response","202","745784","0.0-20.0-1.3","62a36469aa54a53fcfcc27d2","6796e1c0ff24ca17c453c51c","67c70c37ba4882acb9fcaeef","passed","","1248","","","","","","","","","","","","","","f","yesOrNo","","","","2","","","lp","3000","","","52","321.3","151"
"","","","","","html-keyboard-response","203","747787","0.0-20.0-0.4","62a36469aa54a53fcfcc27d2","6796e1c0ff24ca17c453c51c","67c70c37ba4882acb9fcaeef","passed","","","","","","","","","","","","","","","","","ballFalling","500","510.8711431702997","369.03","8","fallScene","false","","","","","53","",""
"","","","","","html-keyboard-response","204","750799","0.0-20.0-1.4","62a36469aa54a53fcfcc27d2","6796e1c0ff24ca17c453c51c","67c70c37ba4882acb9fcaeef","passed","","1350","","","","","","","","","","","","","","f","yesOrNo","","","","8","","","lp","3000","","","53","501","151"
"","","","","","html-keyboard-response","205","752335","0.0-20.0-0.5","62a36469aa54a53fcfcc27d2","6796e1c0ff24ca17c453c51c","67c70c37ba4882acb9fcaeef","passed","","","","","","","","","","","","","","","","","ballFalling","322.3","296.07114317029976","371.46","3","fallScene","false","","","","","54","",""
"","","","","","html-keyboard-response","206","755348","0.0-20.0-1.5","62a36469aa54a53fcfcc27d2","6796e1c0ff24ca17c453c51c","67c70c37ba4882acb9fcaeef","passed","","1970","","","","","","","","","","","","","","j","yesOrNo","","","","3","","","mid","3000","","","54","321.3","300"
"","","","","","html-keyboard-response","207","757132","0.0-20.0-0.6","62a36469aa54a53fcfcc27d2","6796e1c0ff24ca17c453c51c","67c70c37ba4882acb9fcaeef","passed","","","","","","","","","","","","","","","","","ballFalling","322.3","308.07114317029976","253.89","2","fallScene","false","","","","","55","",""
"","","","","","html-keyboard-response","208","760146","0.0-20.0-1.6","62a36469aa54a53fcfcc27d2","6796e1c0ff24ca17c453c51c","67c70c37ba4882acb9fcaeef","passed","","932","","","","","","","","","","","","","","j","yesOrNo","","","","2","","","gt","3000","","","55","308.07114317029976","253.89"
"","","","","","html-keyboard-response","209","761698","0.0-20.0-0.7","62a36469aa54a53fcfcc27d2","6796e1c0ff24ca17c453c51c","67c70c37ba4882acb9fcaeef","passed","","","","","","","","","","","","","","","","","ballFalling","322.3","356.42114317029973","357.87","4","fallScene","true","","","","","56","",""
"","","","","","html-keyboard-response","210","764705","0.0-20.0-1.7","62a36469aa54a53fcfcc27d2","6796e1c0ff24ca17c453c51c","67c70c37ba4882acb9fcaeef","passed","","2203","","","","","","","","","","","","","","f","yesOrNo","","","","4","","","lp","3000","","","56","323.3","297.4070551689986"
"","","","","","html-keyboard-response","211","766257","0.0-20.0-0.8","62a36469aa54a53fcfcc27d2","6796e1c0ff24ca17c453c51c","67c70c37ba4882acb9fcaeef","passed","","","","","","","","","","","","","","","","","ballFalling","500","453.67114317029973","210.33","5","fallScene","true","","","","","57","",""
"","","","","","html-keyboard-response","212","769262","0.0-20.0-1.8","62a36469aa54a53fcfcc27d2","6796e1c0ff24ca17c453c51c","67c70c37ba4882acb9fcaeef","passed","","2848","","","","","","","","","","","","","","f","yesOrNo","","","","5","","","lp","3000","","","57","499","151"
"","","","","","html-keyboard-response","213","770756","0.0-20.0-0.9","62a36469aa54a53fcfcc27d2","6796e1c0ff24ca17c453c51c","67c70c37ba4882acb9fcaeef","passed","","","","","","","","","","","","","","","","","ballFalling","604.4000000000001","667.6211431702998","201.78","9","fallScene","true","","","","","58","",""
"","","","","","html-keyboard-response","214","773768","0.0-20.0-1.9","62a36469aa54a53fcfcc27d2","6796e1c0ff24ca17c453c51c","67c70c37ba4882acb9fcaeef","passed","","1304","","","","","","","","","","","","","","f","yesOrNo","","","","9","","","lp","3000","","","58","605.4000000000001","151"
"","","","","","html-keyboard-response","215","775266","0.0-20.0-0.10","62a36469aa54a53fcfcc27d2","6796e1c0ff24ca17c453c51c","67c70c37ba4882acb9fcaeef","passed","","","","","","","","","","","","","","","","","ballFalling","604.4000000000001","667.6211431702998","201.78","9","fallScene","true","","","","","59","",""
"","","","","","html-keyboard-response","216","778272","0.0-20.0-1.10","62a36469aa54a53fcfcc27d2","6796e1c0ff24ca17c453c51c","67c70c37ba4882acb9fcaeef","passed","","1872","","","","","","","","","","","","","","j","yesOrNo","","","","9","","","mid","3000","","","59","605.4000000000001","300"
"","","","","","html-keyboard-response","217","779835","0.0-20.0-0.11","62a36469aa54a53fcfcc27d2","6796e1c0ff24ca17c453c51c","67c70c37ba4882acb9fcaeef","passed","","","","","","","","","","","","","","","","","ballFalling","322.3","296.07114317029976","371.46","3","fallScene","false","","","","","60","",""
"","","","","","html-keyboard-response","218","782848","0.0-20.0-1.11","62a36469aa54a53fcfcc27d2","6796e1c0ff24ca17c453c51c","67c70c37ba4882acb9fcaeef","passed","","885","","","","","","","","","","","","","","f","yesOrNo","","","","3","","","mid","3000","","","60","321.3","300"
"","","","","","html-keyboard-response","219","784416","0.0-20.0-0.12","62a36469aa54a53fcfcc27d2","6796e1c0ff24ca17c453c51c","67c70c37ba4882acb9fcaeef","passed","","","","","","","","","","","","","","","","","ballFalling","500","553.4711431702997","282.51","7","fallScene","true","","","","","61","",""
"","","","","","html-keyboard-response","220","787429","0.0-20.0-1.12","62a36469aa54a53fcfcc27d2","6796e1c0ff24ca17c453c51c","67c70c37ba4882acb9fcaeef","passed","","1040","","","","","","","","","","","","","","f","yesOrNo","","","","7","","","mid","3000","","","61","501","300"
"","","","","","html-keyboard-response","221","789081","0.0-20.0-0.13","62a36469aa54a53fcfcc27d2","6796e1c0ff24ca17c453c51c","67c70c37ba4882acb9fcaeef","passed","","","","","","","","","","","","","","","","","ballFalling","500","479.92114317029973","330.87","6","fallScene","true","","","","","62","",""
"","","","","","html-keyboard-response","222","792099","0.0-20.0-1.13","62a36469aa54a53fcfcc27d2","6796e1c0ff24ca17c453c51c","67c70c37ba4882acb9fcaeef","passed","","1769","","","","","","","","","","","","","","f","yesOrNo","","","","6","","","lp","3000","","","62","499","189.92909825697632"
"","","","","","html-keyboard-response","223","793662","0.0-20.0-0.14","62a36469aa54a53fcfcc27d2","6796e1c0ff24ca17c453c51c","67c70c37ba4882acb9fcaeef","passed","","","","","","","","","","","","","","","","","ballFalling","604.4000000000001","650.0211431702996","404.58000000000004","11","fallScene","true","","","","","63","",""
"","","","","","html-keyboard-response","224","796674","0.0-20.0-1.14","62a36469aa54a53fcfcc27d2","6796e1c0ff24ca17c453c51c","67c70c37ba4882acb9fcaeef","passed","","1534","","","","","","","","","","","","","","j","yesOrNo","","","","11","","","lp","3000","","","63","605.4000000000001","372.6340973215488"
"","","","","","html-keyboard-response","225","798229","0.0-20.0-0.15","62a36469aa54a53fcfcc27d2","6796e1c0ff24ca17c453c51c","67c70c37ba4882acb9fcaeef","passed","","","","","","","","","","","","","","","","","ballFalling","322.3","296.07114317029976","371.46","3","fallScene","false","","","","","64","",""
"","","","","","html-keyboard-response","226","801249","0.0-20.0-1.15","62a36469aa54a53fcfcc27d2","6796e1c0ff24ca17c453c51c","67c70c37ba4882acb9fcaeef","passed","","1424","","","","","","","","","","","","","","j","yesOrNo","","","","3","","","lp","3000","","","64","321.3","287.3327096511259"
"","","","","","html-keyboard-response","227","802908","0.0-20.0-0.16","62a36469aa54a53fcfcc27d2","6796e1c0ff24ca17c453c51c","67c70c37ba4882acb9fcaeef","passed","","","","","","","","","","","","","","","","","ballFalling","500","479.92114317029973","330.87","6","fallScene","false","","","","","65","",""
"","","","","","html-keyboard-response","228","805913","0.0-20.0-1.16","62a36469aa54a53fcfcc27d2","6796e1c0ff24ca17c453c51c","67c70c37ba4882acb9fcaeef","passed","","1068","","","","","","","","","","","","","","f","yesOrNo","","","","6","","","lp","3000","","","65","499","189.92909825697632"
"","","","","","html-keyboard-response","229","807473","0.0-20.0-0.17","62a36469aa54a53fcfcc27d2","6796e1c0ff24ca17c453c51c","67c70c37ba4882acb9fcaeef","passed","","","","","","","","","","","","","","","","","ballFalling","500","453.67114317029973","210.33","5","fallScene","false","","","","","66","",""
"","","","","","html-keyboard-response","230","810485","0.0-20.0-1.17","62a36469aa54a53fcfcc27d2","6796e1c0ff24ca17c453c51c","67c70c37ba4882acb9fcaeef","passed","","2370","","","","","","","","","","","","","","j","yesOrNo","","","","5","","","gt","3000","","","66","453.6711431702998","210.33"
"","","","","","html-keyboard-response","231","812038","0.0-20.0-0.18","62a36469aa54a53fcfcc27d2","6796e1c0ff24ca17c453c51c","67c70c37ba4882acb9fcaeef","passed","","","","","","","","","","","","","","","","","ballFalling","322.3","356.42114317029973","357.87","4","fallScene","false","","","","","67","",""
"","","","","","html-keyboard-response","232","815056","0.0-20.0-1.18","62a36469aa54a53fcfcc27d2","6796e1c0ff24ca17c453c51c","67c70c37ba4882acb9fcaeef","passed","","938","","","","","","","","","","","","","","j","yesOrNo","","","","4","","","gt","3000","","","67","356.42114317029973","357.87"
"","","","","","html-keyboard-response","233","816618","0.0-20.0-0.19","62a36469aa54a53fcfcc27d2","6796e1c0ff24ca17c453c51c","67c70c37ba4882acb9fcaeef","passed","","","","","","","","","","","","","","","","","ballFalling","500","453.67114317029973","210.33","5","fallScene","true","","","","","68","",""
"","","","","","html-keyboard-response","234","819631","0.0-20.0-1.19","62a36469aa54a53fcfcc27d2","6796e1c0ff24ca17c453c51c","67c70c37ba4882acb9fcaeef","passed","","1312","","","","","","","","","","","","","","f","yesOrNo","","","","5","","","lp","3000","","","68","499","151"
"","","","","","html-keyboard-response","235","821183","0.0-20.0-0.20","62a36469aa54a53fcfcc27d2","6796e1c0ff24ca17c453c51c","67c70c37ba4882acb9fcaeef","passed","","","","","","","","","","","","","","","","","ballFalling","322.3","379.3711431702997","245.25","1","fallScene","false","","","","","69","",""
"","","","","","html-keyboard-response","236","824186","0.0-20.0-1.20","62a36469aa54a53fcfcc27d2","6796e1c0ff24ca17c453c51c","67c70c37ba4882acb9fcaeef","passed","","988","","","","","","","","","","","","","","f","yesOrNo","","","","1","","","gt","3000","","","69","379.3711431702997","245.25"
"","","","","","html-keyboard-response","237","825676","0.0-20.0-0.21","62a36469aa54a53fcfcc27d2","6796e1c0ff24ca17c453c51c","67c70c37ba4882acb9fcaeef","passed","","","","","","","","","","","","","","","","","ballFalling","604.4000000000001","667.6211431702998","201.78","9","fallScene","false","","","","","70","",""
"","","","","","html-keyboard-response","238","828689","0.0-20.0-1.21","62a36469aa54a53fcfcc27d2","6796e1c0ff24ca17c453c51c","67c70c37ba4882acb9fcaeef","passed","","836","","","","","","","","","","","","","","f","yesOrNo","","","","9","","","gt","3000","","","70","667.6211431702998","201.78"
"","","","","","html-keyboard-response","239","830259","0.0-20.0-0.22","62a36469aa54a53fcfcc27d2","6796e1c0ff24ca17c453c51c","67c70c37ba4882acb9fcaeef","passed","","","","","","","","","","","","","","","","","ballFalling","500","553.4711431702997","282.51","7","fallScene","false","","","","","71","",""
"","","","","","html-keyboard-response","240","833271","0.0-20.0-1.22","62a36469aa54a53fcfcc27d2","6796e1c0ff24ca17c453c51c","67c70c37ba4882acb9fcaeef","passed","","1549","","","","","","","","","","","","","","f","yesOrNo","","","","7","","","gt","3000","","","71","553.4711431702997","282.51"
"","","","","","html-keyboard-response","241","835055","0.0-20.0-0.23","62a36469aa54a53fcfcc27d2","6796e1c0ff24ca17c453c51c","67c70c37ba4882acb9fcaeef","passed","","","","","","","","","","","","","","","","","ballFalling","322.3","308.07114317029976","253.89","2","fallScene","true","","","","","72","",""
"","","","","","html-keyboard-response","242","838058","0.0-20.0-1.23","62a36469aa54a53fcfcc27d2","6796e1c0ff24ca17c453c51c","67c70c37ba4882acb9fcaeef","passed","","1158","","","","","","","","","","","","","","j","yesOrNo","","","","2","","","mid","3000","","","72","321.3","300"
"","","","","","html-keyboard-response","243","839224","0.0-21.0","62a36469aa54a53fcfcc27d2","6796e1c0ff24ca17c453c51c","67c70c37ba4882acb9fcaeef","passed","","1164","","","","","","","","","","","","","<p><span style=""font-size:40px;"">BLOCK 4</span></p><p><span style=""font-size:25px;"">You have <b style=""color: #FF644F;""><strong>3 second(s)</strong></b> to respond to the following trials.</span><br></p><p></p> <!-- Blank line -->
                <p id=""blinking-text"" style=""font-weight; animation: blink 2s infinite;"">Press Space to continue</p>
                <style>
                    @keyframes blink {
                        50% {
                            opacity: 0;
                        }
                    }
                </style></p>"," ","","","","","","","","","","","","","",""
"","","","","","html-keyboard-response","244","840786","0.0-22.0-0.0","62a36469aa54a53fcfcc27d2","6796e1c0ff24ca17c453c51c","67c70c37ba4882acb9fcaeef","passed","","","","","","","","","","","","","","","","","ballFalling","322.3","356.42114317029973","357.87","4","fallScene","false","","","","","73","",""
"","","","","","html-keyboard-response","245","843799","0.0-22.0-1.0","62a36469aa54a53fcfcc27d2","6796e1c0ff24ca17c453c51c","67c70c37ba4882acb9fcaeef","passed","","2187","","","","","","","","","","","","","","j","yesOrNo","","","","4","","","mid","3000","","","73","390.27114317029975","300"
"","","","","","html-keyboard-response","246","845367","0.0-22.0-0.1","62a36469aa54a53fcfcc27d2","6796e1c0ff24ca17c453c51c","67c70c37ba4882acb9fcaeef","passed","","","","","","","","","","","","","","","","","ballFalling","500","553.4711431702997","282.51","7","fallScene","false","","","","","74","",""
"","","","","","html-keyboard-response","247","848381","0.0-22.0-1.1","62a36469aa54a53fcfcc27d2","6796e1c0ff24ca17c453c51c","67c70c37ba4882acb9fcaeef","passed","","1585","","","","","","","","","","","","","","j","yesOrNo","","","","7","","","gt","3000","","","74","553.4711431702997","282.51"
"","","","","","html-keyboard-response","248","849865","0.0-22.0-0.2","62a36469aa54a53fcfcc27d2","6796e1c0ff24ca17c453c51c","67c70c37ba4882acb9fcaeef","passed","","","","","","","","","","","","","","","","","ballFalling","604.4000000000001","667.6211431702998","201.78","9","fallScene","true","","","","","75","",""
"","","","","","html-keyboard-response","249","852878","0.0-22.0-1.2","62a36469aa54a53fcfcc27d2","6796e1c0ff24ca17c453c51c","67c70c37ba4882acb9fcaeef","passed","","2102","","","","","","","","","","","","","","j","yesOrNo","","","","9","","","gt","3000","","","75","667.6211431702998","201.78"
"","","","","","html-keyboard-response","250","854880","0.0-22.0-0.3","62a36469aa54a53fcfcc27d2","6796e1c0ff24ca17c453c51c","67c70c37ba4882acb9fcaeef","passed","","","","","","","","","","","","","","","","","ballFalling","500","510.8711431702997","369.03","8","fallScene","true","","","","","76","",""
"","","","","","html-keyboard-response","251","857891","0.0-22.0-1.3","62a36469aa54a53fcfcc27d2","6796e1c0ff24ca17c453c51c","67c70c37ba4882acb9fcaeef","passed","","2284","","","","","","","","","","","","","","f","yesOrNo","","","","8","","","mid","3000","","","76","501","300"
"","","","","","html-keyboard-response","252","859462","0.0-22.0-0.4","62a36469aa54a53fcfcc27d2","6796e1c0ff24ca17c453c51c","67c70c37ba4882acb9fcaeef","passed","","","","","","","","","","","","","","","","","ballFalling","604.4000000000001","575.4211431702997","266.76","12","fallScene","true","","","","","77","",""
"","","","","","html-keyboard-response","253","862474","0.0-22.0-1.4","62a36469aa54a53fcfcc27d2","6796e1c0ff24ca17c453c51c","67c70c37ba4882acb9fcaeef","passed","","2216","","","","","","","","","","","","","","j","yesOrNo","","","","12","","","gt","3000","","","77","575.4211431702997","266.76"
"","","","","","html-keyboard-response","254","864041","0.0-22.0-0.5","62a36469aa54a53fcfcc27d2","6796e1c0ff24ca17c453c51c","67c70c37ba4882acb9fcaeef","passed","","","","","","","","","","","","","","","","","ballFalling","500","553.4711431702997","282.51","7","fallScene","true","","","","","78","",""
"","","","","","html-keyboard-response","255","867055","0.0-22.0-1.5","62a36469aa54a53fcfcc27d2","6796e1c0ff24ca17c453c51c","67c70c37ba4882acb9fcaeef","passed","","1089","","","","","","","","","","","","","","j","yesOrNo","","","","7","","","mid","3000","","","78","501","300"
"","","","","","html-keyboard-response","256","868840","0.0-22.0-0.6","62a36469aa54a53fcfcc27d2","6796e1c0ff24ca17c453c51c","67c70c37ba4882acb9fcaeef","passed","","","","","","","","","","","","","","","","","ballFalling","322.3","308.07114317029976","253.89","2","fallScene","false","","","","","79","",""
"","","","","","html-keyboard-response","257","871853","0.0-22.0-1.6","62a36469aa54a53fcfcc27d2","6796e1c0ff24ca17c453c51c","67c70c37ba4882acb9fcaeef","passed","","1329","","","","","","","","","","","","","","j","yesOrNo","","","","2","","","lp","3000","","","79","321.3","151"
"","","","","","html-keyboard-response","258","873854","0.0-22.0-0.7","62a36469aa54a53fcfcc27d2","6796e1c0ff24ca17c453c51c","67c70c37ba4882acb9fcaeef","passed","","","","","","","","","","","","","","","","","ballFalling","500","510.8711431702997","369.03","8","fallScene","false","","","","","80","",""
"","","","","","html-keyboard-response","259","876868","0.0-22.0-1.7","62a36469aa54a53fcfcc27d2","6796e1c0ff24ca17c453c51c","67c70c37ba4882acb9fcaeef","passed","","2682","","","","","","","","","","","","","","f","yesOrNo","","","","8","","","gt","3000","","","80","510.8711431702997","369.03"
"","","","","","html-keyboard-response","260","878436","0.0-22.0-0.8","62a36469aa54a53fcfcc27d2","6796e1c0ff24ca17c453c51c","67c70c37ba4882acb9fcaeef","passed","","","","","","","","","","","","","","","","","ballFalling","500","553.4711431702997","282.51","7","fallScene","true","","","","","81","",""
"","","","","","html-keyboard-response","261","881449","0.0-22.0-1.8","62a36469aa54a53fcfcc27d2","6796e1c0ff24ca17c453c51c","67c70c37ba4882acb9fcaeef","passed","","1473","","","","","","","","","","","","","","j","yesOrNo","","","","7","","","lp","3000","","","81","501","227.2843295913261"
"","","","","","html-keyboard-response","262","883001","0.0-22.0-0.9","62a36469aa54a53fcfcc27d2","6796e1c0ff24ca17c453c51c","67c70c37ba4882acb9fcaeef","passed","","","","","","","","","","","","","","","","","ballFalling","604.4000000000001","575.4211431702997","266.76","12","fallScene","true","","","","","82","",""
"","","","","","html-keyboard-response","263","886009","0.0-22.0-1.9","62a36469aa54a53fcfcc27d2","6796e1c0ff24ca17c453c51c","67c70c37ba4882acb9fcaeef","passed","","1532","","","","","","","","","","","","","","j","yesOrNo","","","","12","","","mid","3000","","","82","536.4288568297004","300"
"","","","","","html-keyboard-response","264","887560","0.0-22.0-0.10","62a36469aa54a53fcfcc27d2","6796e1c0ff24ca17c453c51c","67c70c37ba4882acb9fcaeef","passed","","","","","","","","","","","","","","","","","ballFalling","322.3","296.07114317029976","371.46","3","fallScene","true","","","","","83","",""
"","","","","","html-keyboard-response","265","890574","0.0-22.0-1.10","62a36469aa54a53fcfcc27d2","6796e1c0ff24ca17c453c51c","67c70c37ba4882acb9fcaeef","passed","","1502","","","","","","","","","","","","","","f","yesOrNo","","","","3","","","lp","3000","","","83","321.3","287.3327096511259"
"","","","","","html-keyboard-response","266","892139","0.0-22.0-0.11","62a36469aa54a53fcfcc27d2","6796e1c0ff24ca17c453c51c","67c70c37ba4882acb9fcaeef","passed","","","","","","","","","","","","","","","","","ballFalling","322.3","296.07114317029976","371.46","3","fallScene","true","","","","","84","",""
"","","","","","html-keyboard-response","267","895144","0.0-22.0-1.11","62a36469aa54a53fcfcc27d2","6796e1c0ff24ca17c453c51c","67c70c37ba4882acb9fcaeef","passed","","1452","","","","","","","","","","","","","","j","yesOrNo","","","","3","","","gt","3000","","","84","296.07114317029976","371.46"
"","","","","","html-keyboard-response","268","896708","0.0-22.0-0.12","62a36469aa54a53fcfcc27d2","6796e1c0ff24ca17c453c51c","67c70c37ba4882acb9fcaeef","passed","","","","","","","","","","","","","","","","","ballFalling","604.4000000000001","575.4211431702997","266.76","12","fallScene","false","","","","","85","",""
"","","","","","html-keyboard-response","269","899719","0.0-22.0-1.12","62a36469aa54a53fcfcc27d2","6796e1c0ff24ca17c453c51c","67c70c37ba4882acb9fcaeef","passed","","1546","","","","","","","","","","","","","","f","yesOrNo","","","","12","","","lp","3000","","","85","603.4000000000001","151"
"","","","","","html-keyboard-response","270","901271","0.0-22.0-0.13","62a36469aa54a53fcfcc27d2","6796e1c0ff24ca17c453c51c","67c70c37ba4882acb9fcaeef","passed","","","","","","","","","","","","","","","","","ballFalling","322.3","379.3711431702997","245.25","1","fallScene","false","","","","","86","",""
"","","","","","html-keyboard-response","271","904284","0.0-22.0-1.13","62a36469aa54a53fcfcc27d2","6796e1c0ff24ca17c453c51c","67c70c37ba4882acb9fcaeef","passed","","1365","","","","","","","","","","","","","","f","yesOrNo","","","","1","","","lp","3000","","","86","323.3","217.74551669457017"
"","","","","","html-keyboard-response","272","905936","0.0-22.0-0.14","62a36469aa54a53fcfcc27d2","6796e1c0ff24ca17c453c51c","67c70c37ba4882acb9fcaeef","passed","","","","","","","","","","","","","","","","","ballFalling","500","479.92114317029973","330.87","6","fallScene","true","","","","","87","",""
"","","","","","html-keyboard-response","273","908955","0.0-22.0-1.14","62a36469aa54a53fcfcc27d2","6796e1c0ff24ca17c453c51c","67c70c37ba4882acb9fcaeef","passed","","983","","","","","","","","","","","","","","j","yesOrNo","","","","6","","","mid","3000","","","87","499","300"
"","","","","","html-keyboard-response","274","910751","0.0-22.0-0.15","62a36469aa54a53fcfcc27d2","6796e1c0ff24ca17c453c51c","67c70c37ba4882acb9fcaeef","passed","","","","","","","","","","","","","","","","","ballFalling","322.3","308.07114317029976","253.89","2","fallScene","true","","","","","88","",""
"","","","","","html-keyboard-response","275","913763","0.0-22.0-1.15","62a36469aa54a53fcfcc27d2","6796e1c0ff24ca17c453c51c","67c70c37ba4882acb9fcaeef","passed","","414","","","","","","","","","","","","","","j","yesOrNo","","","","2","","","mid","3000","","","88","321.3","300"
"","","","","","html-keyboard-response","276","915414","0.0-22.0-0.16","62a36469aa54a53fcfcc27d2","6796e1c0ff24ca17c453c51c","67c70c37ba4882acb9fcaeef","passed","","","","","","","","","","","","","","","","","ballFalling","500","479.92114317029973","330.87","6","fallScene","false","","","","","89","",""
"","","","","","html-keyboard-response","277","918428","0.0-22.0-1.16","62a36469aa54a53fcfcc27d2","6796e1c0ff24ca17c453c51c","67c70c37ba4882acb9fcaeef","passed","","881","","","","","","","","","","","","","","j","yesOrNo","","","","6","","","mid","3000","","","89","499","300"
"","","","","","html-keyboard-response","278","919979","0.0-22.0-0.17","62a36469aa54a53fcfcc27d2","6796e1c0ff24ca17c453c51c","67c70c37ba4882acb9fcaeef","passed","","","","","","","","","","","","","","","","","ballFalling","322.3","296.07114317029976","371.46","3","fallScene","false","","","","","90","",""
"","","","","","html-keyboard-response","279","922993","0.0-22.0-1.17","62a36469aa54a53fcfcc27d2","6796e1c0ff24ca17c453c51c","67c70c37ba4882acb9fcaeef","passed","","1837","","","","","","","","","","","","","","j","yesOrNo","","","","3","","","gt","3000","","","90","296.07114317029976","371.46"
"","","","","","html-keyboard-response","280","924544","0.0-22.0-0.18","62a36469aa54a53fcfcc27d2","6796e1c0ff24ca17c453c51c","67c70c37ba4882acb9fcaeef","passed","","","","","","","","","","","","","","","","","ballFalling","604.4000000000001","575.4211431702997","266.76","12","fallScene","false","","","","","91","",""
"","","","","","html-keyboard-response","281","927557","0.0-22.0-1.18","62a36469aa54a53fcfcc27d2","6796e1c0ff24ca17c453c51c","67c70c37ba4882acb9fcaeef","passed","","1651","","","","","","","","","","","","","","f","yesOrNo","","","","12","","","lp","3000","","","91","603.4000000000001","151"
"","","","","","html-keyboard-response","282","929111","0.0-22.0-0.19","62a36469aa54a53fcfcc27d2","6796e1c0ff24ca17c453c51c","67c70c37ba4882acb9fcaeef","passed","","","","","","","","","","","","","","","","","ballFalling","604.4000000000001","650.0211431702996","404.58000000000004","11","fallScene","false","","","","","92","",""
"","","","","","html-keyboard-response","283","932122","0.0-22.0-1.19","62a36469aa54a53fcfcc27d2","6796e1c0ff24ca17c453c51c","67c70c37ba4882acb9fcaeef","passed","","2371","","","","","","","","","","","","","","j","yesOrNo","","","","11","","","gt","3000","","","92","650.0211431702996","404.58"
"","","","","","html-keyboard-response","284","933675","0.0-22.0-0.20","62a36469aa54a53fcfcc27d2","6796e1c0ff24ca17c453c51c","67c70c37ba4882acb9fcaeef","passed","","","","","","","","","","","","","","","","","ballFalling","322.3","379.3711431702997","245.25","1","fallScene","false","","","","","93","",""
"","","","","","html-keyboard-response","285","936686","0.0-22.0-1.20","62a36469aa54a53fcfcc27d2","6796e1c0ff24ca17c453c51c","67c70c37ba4882acb9fcaeef","passed","","1439","","","","","","","","","","","","","","f","yesOrNo","","","","1","","","gt","3000","","","93","379.3711431702997","245.25"
"","","","","","html-keyboard-response","286","938237","0.0-22.0-0.21","62a36469aa54a53fcfcc27d2","6796e1c0ff24ca17c453c51c","67c70c37ba4882acb9fcaeef","passed","","","","","","","","","","","","","","","","","ballFalling","322.3","379.3711431702997","245.25","1","fallScene","true","","","","","94","",""
"","","","","","html-keyboard-response","287","941251","0.0-22.0-1.21","62a36469aa54a53fcfcc27d2","6796e1c0ff24ca17c453c51c","67c70c37ba4882acb9fcaeef","passed","","1249","","","","","","","","","","","","","","f","yesOrNo","","","","1","","","lp","3000","","","94","323.3","217.74551669457017"
"","","","","","html-keyboard-response","288","942803","0.0-22.0-0.22","62a36469aa54a53fcfcc27d2","6796e1c0ff24ca17c453c51c","67c70c37ba4882acb9fcaeef","passed","","","","","","","","","","","","","","","","","ballFalling","322.3","356.42114317029973","357.87","4","fallScene","true","","","","","95","",""
"","","","","","html-keyboard-response","289","945811","0.0-22.0-1.22","62a36469aa54a53fcfcc27d2","6796e1c0ff24ca17c453c51c","67c70c37ba4882acb9fcaeef","passed","","2451","","","","","","","","","","","","","","f","yesOrNo","","","","4","","","lp","3000","","","95","323.3","297.4070551689986"
"","","","","","html-keyboard-response","290","947364","0.0-22.0-0.23","62a36469aa54a53fcfcc27d2","6796e1c0ff24ca17c453c51c","67c70c37ba4882acb9fcaeef","passed","","","","","","","","","","","","","","","","","ballFalling","322.3","379.3711431702997","245.25","1","fallScene","false","","","","","96","",""
"","","","","","html-keyboard-response","291","950376","0.0-22.0-1.23","62a36469aa54a53fcfcc27d2","6796e1c0ff24ca17c453c51c","67c70c37ba4882acb9fcaeef","passed","","1648","","","","","","","","","","","","","","f","yesOrNo","","","","1","","","mid","3000","","","96","390.27114317029975","300"
"","","","","","html-keyboard-response","292","963293","0.0-23.0","62a36469aa54a53fcfcc27d2","6796e1c0ff24ca17c453c51c","67c70c37ba4882acb9fcaeef","passed","","12915","","","","","","","","","","","","","<p><span style=""font-size:40px;"">BLOCK 5</span></p><p><span style=""font-size:25px;"">You have <b style=""color: #FF644F;""><strong>0.7 second(s)</strong></b> to respond to the following trials.</span><br></p><p></p> <!-- Blank line -->
                <p id=""blinking-text"" style=""font-weight; animation: blink 2s infinite;"">Press Space to continue</p>
                <style>
                    @keyframes blink {
                        50% {
                            opacity: 0;
                        }
                    }
                </style></p>"," ","","","","","","","","","","","","","",""
"","","","","","html-keyboard-response","293","964872","0.0-24.0-0.0","62a36469aa54a53fcfcc27d2","6796e1c0ff24ca17c453c51c","67c70c37ba4882acb9fcaeef","passed","","","","","","","","","","","","","","","","","ballFalling","500","553.4711431702997","282.51","7","fallScene","false","","","","","97","",""
"","","","","","html-keyboard-response","294","965586","0.0-24.0-1.0","62a36469aa54a53fcfcc27d2","6796e1c0ff24ca17c453c51c","67c70c37ba4882acb9fcaeef","passed","","682","","","","","","","","","","","","","","f","yesOrNo","","","","7","","","mid","700","","","97","501","300"
