"success","timeout","failed_images","failed_audio","failed_video","trial_type","trial_index","time_elapsed","internal_node_id","subject_id","study_id","session_id","practiceTestResult","view_history","rt","width","height","webaudio","browser","browser_version","mobile","os","fullscreen","vsync_rate","webcam","microphone","url","stimulus","response","task","ball_X","obstacle_groundTruth_x","obstacle_groundTruth_y","stimulus_idx","trial_name","flipped","choice","timeLimit","question_order","comprehensionCheck","currentTrial","obstacle_choice_x","obstacle_choice_y"
"true","false","[]","[]","[]","preload","0","13195","0.0-0.0","6400e3697879c55c323f34d0","6796e1c0ff24ca17c453c51c","67c7245cb00787c48a2edaec","passed","","","","","","","","","","","","","","","","","","","","","","","","","","","","","",""
"","","","","","instructions","1","54043","0.0-1.0","6400e3697879c55c323f34d0","6796e1c0ff24ca17c453c51c","67c7245cb00787c48a2edaec","passed","[{""page_index"":0,""viewing_time"":40846}]","40847","","","","","","","","","","","","","","","","","","","","","","","","","","","",""
"","","","","","browser-check","2","55029","0.0-2.0","6400e3697879c55c323f34d0","6796e1c0ff24ca17c453c51c","67c7245cb00787c48a2edaec","passed","","","1920","919","true","chrome","133.0.0","false","Windows 10","true","61.34","true","true","","","","","","","","","","","","","","","","",""
"","","","","","external-html","3","68893","0.0-3.0","6400e3697879c55c323f34d0","6796e1c0ff24ca17c453c51c","67c7245cb00787c48a2edaec","passed","","13660","","","","","","","","","","","","consent.html","","","","","","","","","","","","","","","",""
"true","","","","","fullscreen","4","81965","0.0-4.0","6400e3697879c55c323f34d0","6796e1c0ff24ca17c453c51c","67c7245cb00787c48a2edaec","passed","","12756","","","","","","","","","","","","","","","","","","","","","","","","","","","",""
"","","","","","browser-check","5","87425","0.0-5.0","6400e3697879c55c323f34d0","6796e1c0ff24ca17c453c51c","67c7245cb00787c48a2edaec","passed","","","1920","919","true","chrome","133.0.0","false","Windows 10","true","60.7","true","true","","","","","","","","","","","","","","","","",""
"","","","","","html-keyboard-response","6","91774","0.0-6.0","6400e3697879c55c323f34d0","6796e1c0ff24ca17c453c51c","67c7245cb00787c48a2edaec","passed","","4343","","","","","","","","","","","","","<p><b>This experiment requires keyboard input.</b></p> 
        <p><b>To ensure your response will be recorded successfully, please press 'Space' to continue.</b></p>
        <p>If you can't proceed, you won't be able to complete this study.</p>
        <p></p> <!-- Blank line -->
        <p id=""blinking-text"" style=""font-weight; animation: blink 2s infinite;"">Press Space to continue</p>
        <style>
            @keyframes blink {
                50% {
                    opacity: 0;
                }
            }
        </style>"," ","","","","","","","","","","","","","",""
"","","","","","html-keyboard-response","7","95286","0.0-7.0","6400e3697879c55c323f34d0","6796e1c0ff24ca17c453c51c","67c7245cb00787c48a2edaec","passed","","3511","","","","","","","","","","","","","<p><b>This experiment requires keyboard input.</b></p> 
        <p><b>To ensure your response will be recorded successfully, please press the 'f' key to continue.</b></p>
        <p>If you can't proceed, you won't be able to complete this study.</p>
        <p></p> <!-- Blank line -->
        <p id=""blinking-text"" style=""font-weight; animation: blink 2s infinite;"">Press f to continue</p>
        <style>
            @keyframes blink {
                50% {
                    opacity: 0;
                }
            }
        </style>","f","","","","","","","","","","","","","",""
"","","","","","html-keyboard-response","8","97861","0.0-8.0","6400e3697879c55c323f34d0","6796e1c0ff24ca17c453c51c","67c7245cb00787c48a2edaec","passed","","2574","","","","","","","","","","","","","<p><b>This experiment requires keyboard input.</b></p> 
        <p><b>To ensure your response will be recorded successfully, please press the 'j' key to continue.</b></p>
        <p>If you can't proceed, you won't be able to complete this study.</p>
        <p></p> <!-- Blank line -->
        <p id=""blinking-text"" style=""font-weight; animation: blink 2s infinite;"">Press j to continue</p>
        <style>
            @keyframes blink {
                50% {
                    opacity: 0;
                }
            }
        </style>","j","","","","","","","","","","","","","",""
"","","","","","browser-check","9","98872","0.0-9.0","6400e3697879c55c323f34d0","6796e1c0ff24ca17c453c51c","67c7245cb00787c48a2edaec","passed","","","1920","1080","true","chrome","133.0.0","false","Windows 10","true","59.97","true","true","","","","","","","","","","","","","","","","",""
"","","","","","survey-text","10","103663","0.0-10.0","6400e3697879c55c323f34d0","6796e1c0ff24ca17c453c51c","67c7245cb00787c48a2edaec","passed","","4785","","","","","","","","","","","","","","{""prolificID"":""6400e3697879c55c323f34d0""}","","","","","","","","","","","","","",""
"","","","","","instructions","11","172881","0.0-11.0-0.0-0.0","6400e3697879c55c323f34d0","6796e1c0ff24ca17c453c51c","67c7245cb00787c48a2edaec","passed","[{""page_index"":0,""viewing_time"":16790},{""page_index"":1,""viewing_time"":25501},{""page_index"":2,""viewing_time"":10672},{""page_index"":3,""viewing_time"":16255}]","69218","","","","","","","","","","","","","","","","","","","","","","","","","","","",""
"","","","","","html-keyboard-response","12","179545","0.0-11.0-0.0-1.0","6400e3697879c55c323f34d0","6796e1c0ff24ca17c453c51c","67c7245cb00787c48a2edaec","passed","","6147","","","","","","","","","","","","","<br>Remember! After a ball falls, the screen will disappear, and you'll decide if the proposed position is where the hidden triangle was. <br>You will now practice this by watching a few videos and making decisions.<p>To respond:<br style=""margin-bottom: 5px; text-indent: -20px; padding-left: 20px;"">- Press <b style=""color: #12AD2B;"">J for Yes</b>, if you think the triangle is in the correct position.<br style=""margin-top: 0; text-indent: -20px; padding-left: 20px;"">- Press <b style=""color: orange;"">F for No</b>, if you think the triangle is not in the correct position.</p><p>In this practice round, there is no time limit. Focus on getting comfortable with the task first.<br>Press either J or F to begin your practice trials.</p><img src = ""YesOrNo_instruction.png"" style=""width: 65%;""></img>","f","","","","","","","","","","","","","",""
"","","","","","html-keyboard-response","13","181631","0.0-11.0-0.0-2.0-0.0","6400e3697879c55c323f34d0","6796e1c0ff24ca17c453c51c","67c7245cb00787c48a2edaec","passed","","","","","","","","","","","","","","","","","ballFalling_prac","660","666","350","3","fallScene","false","","","","","","",""
"","","","","","html-keyboard-response","14","190877","0.0-11.0-0.0-2.0-1.0","6400e3697879c55c323f34d0","6796e1c0ff24ca17c453c51c","67c7245cb00787c48a2edaec","passed","","9234","","","","","","","","","","","","","","j","yesOrNo_prac_noTimed","","","","3","","","wrong direction","NA","","","","",""
"","","","","","html-keyboard-response","15","192433","0.0-11.0-0.0-2.0-0.1","6400e3697879c55c323f34d0","6796e1c0ff24ca17c453c51c","67c7245cb00787c48a2edaec","passed","","","","","","","","","","","","","","","","","ballFalling_prac","416","464","296","1","fallScene","false","","","","","","",""
"","","","","","html-keyboard-response","16","194013","0.0-11.0-0.0-2.0-1.1","6400e3697879c55c323f34d0","6796e1c0ff24ca17c453c51c","67c7245cb00787c48a2edaec","passed","","1574","","","","","","","","","","","","","","j","yesOrNo_prac_noTimed","","","","1","","","gt","NA","","","","",""
"","","","","","html-keyboard-response","17","195595","0.0-11.0-0.0-2.0-0.2","6400e3697879c55c323f34d0","6796e1c0ff24ca17c453c51c","67c7245cb00787c48a2edaec","passed","","","","","","","","","","","","","","","","","ballFalling_prac","441","414","302","5","fallScene","true","","","","","","",""
"","","","","","html-keyboard-response","18","197282","0.0-11.0-0.0-2.0-1.2","6400e3697879c55c323f34d0","6796e1c0ff24ca17c453c51c","67c7245cb00787c48a2edaec","passed","","1679","","","","","","","","","","","","","","j","yesOrNo_prac_noTimed","","","","5","","","close gt","NA","","","","",""
"","","","","","instructions","19","258206","0.0-11.0-0.0-3.0","6400e3697879c55c323f34d0","6796e1c0ff24ca17c453c51c","67c7245cb00787c48a2edaec","passed","[{""page_index"":0,""viewing_time"":37105},{""page_index"":1,""viewing_time"":23819}]","60924","","","","","","","","","","","","","","","","","","","","","","","","","","","",""
"","","","","","html-button-response","20","267167","0.0-11.0-0.0-4.0","6400e3697879c55c323f34d0","6796e1c0ff24ca17c453c51c","67c7245cb00787c48a2edaec","passed","","8454","","","","","","","","","","","","","<p>To make sure you understood the task, we just have a <b>brief quiz</b> here.</p><p>If you need to review the instructions, click 'Previous'.</p><p>It's important to understand the task to do the study, so you have to pass the quiz to move to the study.</p>","1","","","","","","","","","","","","","",""
"","","","","","survey-multi-choice","21","282056","0.0-11.0-1.0-0.0","6400e3697879c55c323f34d0","6796e1c0ff24ca17c453c51c","67c7245cb00787c48a2edaec","passed","","14886","","","","","","","","","","","","","","{""generalProcedure"":""Watch a video of a ball falling, some of it behind a gray screen. After each video, decide if the triangle is at the spot where the ball hit the triangle behind the screen. There is time limit for the response.""}","","","","","","","","","","[0]","","","",""
"","","","","","survey-multi-choice","22","292131","0.0-11.0-1.0-1.0","6400e3697879c55c323f34d0","6796e1c0ff24ca17c453c51c","67c7245cb00787c48a2edaec","passed","","10074","","","","","","","","","","","","","","{""checkBallHitObstacle"":""Yes.""}","","","","","","","","","","[0]","","","",""
"","","","","","survey-multi-choice","23","296449","0.0-11.0-1.0-2.0","6400e3697879c55c323f34d0","6796e1c0ff24ca17c453c51c","67c7245cb00787c48a2edaec","passed","","4315","","","","","","","","","","","","","","{""checkTriangleVisibility"":""No, the triangle is hidden behind the gray screen.""}","","","","","","","","","","[0]","","","",""
"","","","","","survey-multi-choice","24","300511","0.0-11.0-1.0-3.0","6400e3697879c55c323f34d0","6796e1c0ff24ca17c453c51c","67c7245cb00787c48a2edaec","passed","","4061","","","","","","","","","","","","","","{""checkTimedResponse"":""Your response will not be recorded, and the trial will move to the next one.""}","","","","","","","","","","[0]","","","",""
"","","","","","survey-multi-choice","25","309550","0.0-11.0-1.0-4.0","6400e3697879c55c323f34d0","6796e1c0ff24ca17c453c51c","67c7245cb00787c48a2edaec","passed","","9037","","","","","","","","","","","","","","{""checkTimeBlockNotice"":""Before every individual trial.""}","","","","","","","","","","[0]","","","",""
"","","","","","survey-multi-choice","26","316055","0.0-11.0-1.0-5.0","6400e3697879c55c323f34d0","6796e1c0ff24ca17c453c51c","67c7245cb00787c48a2edaec","passed","","6504","","","","","","","","","","","","","","{""checkTimeBlockSameness"":""No, the time limit changes for each trial within a block.""}","","","","","","","","","","[0]","","","",""
"","","","","","survey-multi-choice","27","327581","0.0-11.0-1.0-6.0","6400e3697879c55c323f34d0","6796e1c0ff24ca17c453c51c","67c7245cb00787c48a2edaec","passed","","11523","","","","","","","","","","","","","","{""checkTrianglePrecision"":""No. The proposed purple triangle is not in the correct position because it doesn't match the location of the white triangle exactly.""}","","","","","","","","","","[0]","","","",""
"","","","","","html-button-response","28","330072","0.0-11.0-2.0-0.0","6400e3697879c55c323f34d0","6796e1c0ff24ca17c453c51c","67c7245cb00787c48a2edaec","passed","","2490","","","","","","","","","","","","","<p>Oops! You did not pass the quiz.</p><p>You will now repeat the instructions and practice.</p>","0","","","","","","","","","","","failed","","",""
"","","","","","instructions","29","358841","0.0-11.1-0.1-0.1","6400e3697879c55c323f34d0","6796e1c0ff24ca17c453c51c","67c7245cb00787c48a2edaec","passed","[{""page_index"":0,""viewing_time"":16833},{""page_index"":1,""viewing_time"":6304},{""page_index"":2,""viewing_time"":1390},{""page_index"":3,""viewing_time"":4240}]","28768","","","","","","","","","","","","","","","","","","","","","","","","","","","",""
"","","","","","html-keyboard-response","30","370206","0.0-11.1-0.1-1.1","6400e3697879c55c323f34d0","6796e1c0ff24ca17c453c51c","67c7245cb00787c48a2edaec","passed","","10849","","","","","","","","","","","","","<br>Remember! After a ball falls, the screen will disappear, and you'll decide if the proposed position is where the hidden triangle was. <br>You will now practice this by watching a few videos and making decisions.<p>To respond:<br style=""margin-bottom: 5px; text-indent: -20px; padding-left: 20px;"">- Press <b style=""color: #12AD2B;"">J for Yes</b>, if you think the triangle is in the correct position.<br style=""margin-top: 0; text-indent: -20px; padding-left: 20px;"">- Press <b style=""color: orange;"">F for No</b>, if you think the triangle is not in the correct position.</p><p>In this practice round, there is no time limit. Focus on getting comfortable with the task first.<br>Press either J or F to begin your practice trials.</p><img src = ""YesOrNo_instruction.png"" style=""width: 65%;""></img>","f","","","","","","","","","","","","","",""
"","","","","","html-keyboard-response","31","372321","0.0-11.1-0.1-2.1-0.3","6400e3697879c55c323f34d0","6796e1c0ff24ca17c453c51c","67c7245cb00787c48a2edaec","passed","","","","","","","","","","","","","","","","","ballFalling_prac","660","666","350","3","fallScene","false","","","","","","",""
"","","","","","html-keyboard-response","32","374277","0.0-11.1-0.1-2.1-1.3","6400e3697879c55c323f34d0","6796e1c0ff24ca17c453c51c","67c7245cb00787c48a2edaec","passed","","1950","","","","","","","","","","","","","","f","yesOrNo_prac_noTimed","","","","3","","","wrong direction","NA","","","","",""
"","","","","","html-keyboard-response","33","375832","0.0-11.1-0.1-2.1-0.4","6400e3697879c55c323f34d0","6796e1c0ff24ca17c453c51c","67c7245cb00787c48a2edaec","passed","","","","","","","","","","","","","","","","","ballFalling_prac","416","464","296","1","fallScene","false","","","","","","",""
"","","","","","html-keyboard-response","34","376766","0.0-11.1-0.1-2.1-1.4","6400e3697879c55c323f34d0","6796e1c0ff24ca17c453c51c","67c7245cb00787c48a2edaec","passed","","927","","","","","","","","","","","","","","j","yesOrNo_prac_noTimed","","","","1","","","gt","NA","","","","",""
"","","","","","html-keyboard-response","35","378344","0.0-11.1-0.1-2.1-0.5","6400e3697879c55c323f34d0","6796e1c0ff24ca17c453c51c","67c7245cb00787c48a2edaec","passed","","","","","","","","","","","","","","","","","ballFalling_prac","441","414","302","5","fallScene","true","","","","","","",""
"","","","","","html-keyboard-response","36","380101","0.0-11.1-0.1-2.1-1.5","6400e3697879c55c323f34d0","6796e1c0ff24ca17c453c51c","67c7245cb00787c48a2edaec","passed","","1752","","","","","","","","","","","","","","j","yesOrNo_prac_noTimed","","","","5","","","close gt","NA","","","","",""
"","","","","","instructions","37","393018","0.0-11.1-0.1-3.1","6400e3697879c55c323f34d0","6796e1c0ff24ca17c453c51c","67c7245cb00787c48a2edaec","passed","[{""page_index"":0,""viewing_time"":8450},{""page_index"":1,""viewing_time"":4466}]","12916","","","","","","","","","","","","","","","","","","","","","","","","","","","",""
"","","","","","html-button-response","38","395190","0.0-11.1-0.1-4.1","6400e3697879c55c323f34d0","6796e1c0ff24ca17c453c51c","67c7245cb00787c48a2edaec","passed","","1663","","","","","","","","","","","","","<p>To make sure you understood the task, we just have a <b>brief quiz</b> here.</p><p>If you need to review the instructions, click 'Previous'.</p><p>It's important to understand the task to do the study, so you have to pass the quiz to move to the study.</p>","1","","","","","","","","","","","","","",""
"","","","","","survey-multi-choice","39","402219","0.0-11.1-1.1-0.1","6400e3697879c55c323f34d0","6796e1c0ff24ca17c453c51c","67c7245cb00787c48a2edaec","passed","","7027","","","","","","","","","","","","","","{""generalProcedure"":""Watch a video of a ball falling, some of it behind a gray screen. After each video, decide if the triangle is at the spot where the ball hit the triangle behind the screen. There is time limit for the response.""}","","","","","","","","","","[0]","","","",""
"","","","","","survey-multi-choice","40","405421","0.0-11.1-1.1-1.1","6400e3697879c55c323f34d0","6796e1c0ff24ca17c453c51c","67c7245cb00787c48a2edaec","passed","","3200","","","","","","","","","","","","","","{""checkBallHitObstacle"":""Yes.""}","","","","","","","","","","[0]","","","",""
"","","","","","survey-multi-choice","41","413472","0.0-11.1-1.1-2.1","6400e3697879c55c323f34d0","6796e1c0ff24ca17c453c51c","67c7245cb00787c48a2edaec","passed","","8050","","","","","","","","","","","","","","{""checkTriangleVisibility"":""No, the triangle is hidden behind the gray screen.""}","","","","","","","","","","[0]","","","",""
"","","","","","survey-multi-choice","42","417736","0.0-11.1-1.1-3.1","6400e3697879c55c323f34d0","6796e1c0ff24ca17c453c51c","67c7245cb00787c48a2edaec","passed","","4262","","","","","","","","","","","","","","{""checkTimedResponse"":""Your response will not be recorded, and the trial will move to the next one.""}","","","","","","","","","","[0]","","","",""
"","","","","","survey-multi-choice","43","420877","0.0-11.1-1.1-4.1","6400e3697879c55c323f34d0","6796e1c0ff24ca17c453c51c","67c7245cb00787c48a2edaec","passed","","3139","","","","","","","","","","","","","","{""checkTimeBlockNotice"":""At the beginning of each block.""}","","","","","","","","","","[0]","","","",""
"","","","","","survey-multi-choice","44","425593","0.0-11.1-1.1-5.1","6400e3697879c55c323f34d0","6796e1c0ff24ca17c453c51c","67c7245cb00787c48a2edaec","passed","","4714","","","","","","","","","","","","","","{""checkTimeBlockSameness"":""Yes, the time limit is the same for all trials within a block.""}","","","","","","","","","","[0]","","","",""
"","","","","","survey-multi-choice","45","430593","0.0-11.1-1.1-6.1","6400e3697879c55c323f34d0","6796e1c0ff24ca17c453c51c","67c7245cb00787c48a2edaec","passed","","4998","","","","","","","","","","","","","","{""checkTrianglePrecision"":""No. The proposed purple triangle is not in the correct position because it doesn't match the location of the white triangle exactly.""}","","","","","","","","","","[0]","","","",""
"","","","","","instructions","46","456198","0.0-12.0","6400e3697879c55c323f34d0","6796e1c0ff24ca17c453c51c","67c7245cb00787c48a2edaec","passed","[{""page_index"":0,""viewing_time"":6494},{""page_index"":1,""viewing_time"":9450},{""page_index"":2,""viewing_time"":5498},{""page_index"":3,""viewing_time"":4162}]","25604","","","","","","","","","","","","","","","","","","","","","","","","","","","",""
"","","","","","instructions","47","468148","0.0-13.0-0.0","6400e3697879c55c323f34d0","6796e1c0ff24ca17c453c51c","67c7245cb00787c48a2edaec","passed","[{""page_index"":0,""viewing_time"":11948}]","11949","","","","","","","","","","","","","","","","","","","","","","","","","","","",""
"","","","","","html-keyboard-response","48","471006","0.0-13.0-1.0","6400e3697879c55c323f34d0","6796e1c0ff24ca17c453c51c","67c7245cb00787c48a2edaec","passed","","2856","","","","","","","","","","","","","<p><span style=""font-size:40px;"">Practice BLOCK 1</span></p><p><span style=""font-size:25px;"">You have <b style=""color: #FF644F;""><strong>3 second(s)</strong></b> to respond to the following trials.</span><br></p><p id=""blinking-text"" style=""font-weight; animation: blink 2s infinite;"">Press Space to continue</p><style>
                    @keyframes blink {
                        50% {
                            opacity: 0;
                        }
                    }
                </style>"," ","","","","","","","","","","","","","",""
"","","","","","html-keyboard-response","49","472572","0.0-13.0-2.0-0.0","6400e3697879c55c323f34d0","6796e1c0ff24ca17c453c51c","67c7245cb00787c48a2edaec","passed","","","","","","","","","","","","","","","","","ballFalling_prac","416","464","296","1","fallScene","false","","","","","","",""
"","","","","","html-keyboard-response","50","475583","0.0-13.0-2.0-1.0","6400e3697879c55c323f34d0","6796e1c0ff24ca17c453c51c","67c7245cb00787c48a2edaec","passed","","861","","","","","","","","","","","","","","j","yesOrNo_prac","","","","1","","","far gt","3000","","","","",""
"","","","","","html-keyboard-response","51","477160","0.0-13.0-2.0-0.1","6400e3697879c55c323f34d0","6796e1c0ff24ca17c453c51c","67c7245cb00787c48a2edaec","passed","","","","","","","","","","","","","","","","","ballFalling_prac","660","610","263","4","fallScene","false","","","","","","",""
"","","","","","html-keyboard-response","52","480180","0.0-13.0-2.0-1.1","6400e3697879c55c323f34d0","6796e1c0ff24ca17c453c51c","67c7245cb00787c48a2edaec","passed","","736","","","","","","","","","","","","","","j","yesOrNo_prac","","","","4","","","gt","3000","","","","",""
"","","","","","html-keyboard-response","53","481747","0.0-13.0-2.0-0.2","6400e3697879c55c323f34d0","6796e1c0ff24ca17c453c51c","67c7245cb00787c48a2edaec","passed","","","","","","","","","","","","","","","","","ballFalling_prac","584","536","296","1","fallScene","true","","","","","","",""
"","","","","","html-keyboard-response","54","484755","0.0-13.0-2.0-1.2","6400e3697879c55c323f34d0","6796e1c0ff24ca17c453c51c","67c7245cb00787c48a2edaec","passed","","1064","","","","","","","","","","","","","","f","yesOrNo_prac","","","","1","","","close gt","3000","","","","",""
"","","","","","html-keyboard-response","55","487381","0.0-13.0-3.0","6400e3697879c55c323f34d0","6796e1c0ff24ca17c453c51c","67c7245cb00787c48a2edaec","passed","","2626","","","","","","","","","","","","","<p><span style=""font-size:40px;"">Practice BLOCK 2</span></p><p><span style=""font-size:25px;"">You have <b style=""color: #FF644F;""><strong>0.7 second(s)</strong></b> to respond to the following trials.</span><br></p><p id=""blinking-text"" style=""font-weight; animation: blink 2s infinite;"">Press Space to continue</p><style>
                    @keyframes blink {
                        50% {
                            opacity: 0;
                        }
                    }
                </style>"," ","","","","","","","","","","","","","",""
"","","","","","html-keyboard-response","56","489505","0.0-13.0-4.0-0.0","6400e3697879c55c323f34d0","6796e1c0ff24ca17c453c51c","67c7245cb00787c48a2edaec","passed","","","","","","","","","","","","","","","","","ballFalling_prac","340","334","350","3","fallScene","true","","","","","","",""
"","","","","","html-keyboard-response","57","490213","0.0-13.0-4.0-1.0","6400e3697879c55c323f34d0","6796e1c0ff24ca17c453c51c","67c7245cb00787c48a2edaec","passed","","631","","","","","","","","","","","","","","j","yesOrNo_prac","","","","3","","","close gt","700","","","","",""
"","","","","","html-keyboard-response","58","491774","0.0-13.0-4.0-0.1","6400e3697879c55c323f34d0","6796e1c0ff24ca17c453c51c","67c7245cb00787c48a2edaec","passed","","","","","","","","","","","","","","","","","ballFalling_prac","660","610","263","4","fallScene","false","","","","","","",""
"","","","","","html-keyboard-response","59","492481","0.0-13.0-4.0-1.1","6400e3697879c55c323f34d0","6796e1c0ff24ca17c453c51c","67c7245cb00787c48a2edaec","passed","","465","","","","","","","","","","","","","","j","yesOrNo_prac","","","","4","","","far gt","700","","","","",""
"","","","","","html-keyboard-response","60","494010","0.0-13.0-4.0-0.2","6400e3697879c55c323f34d0","6796e1c0ff24ca17c453c51c","67c7245cb00787c48a2edaec","passed","","","","","","","","","","","","","","","","","ballFalling_prac","441","500","317","6","fallScene","true","","","","","","",""
"","","","","","html-keyboard-response","61","494717","0.0-13.0-4.0-1.2","6400e3697879c55c323f34d0","6796e1c0ff24ca17c453c51c","67c7245cb00787c48a2edaec","passed","","566","","","","","","","","","","","","","","j","yesOrNo_prac","","","","6","","","gt","700","","","","",""
"","","","","","instructions","62","507482","0.0-13.0-5.0","6400e3697879c55c323f34d0","6796e1c0ff24ca17c453c51c","67c7245cb00787c48a2edaec","passed","[{""page_index"":0,""viewing_time"":12764}]","12765","","","","","","","","","","","","","","","","","","","","","","","","","","","",""
"","","","","","html-keyboard-response","63","510222","0.0-13.0-6.0","6400e3697879c55c323f34d0","6796e1c0ff24ca17c453c51c","67c7245cb00787c48a2edaec","passed","","2738","","","","","","","","","","","","","<p><span style=""font-size:40px;"">Practice Test BLOCK 1</span></p><p><span style=""font-size:25px;"">You have <b style=""color: #FF644F;""><strong>0.7 second(s)</strong></b> to respond to the following trials.</span><br></p><p id=""blinking-text"" style=""font-weight; animation: blink 2s infinite;"">Press Space to continue</p><style>
                    @keyframes blink {
                        50% {
                            opacity: 0;
                        }
                    }
                </style>"," ","","","","","","","","","","","","","",""
"","","","","","html-keyboard-response","64","511811","0.0-13.0-7.0-0.0","6400e3697879c55c323f34d0","6796e1c0ff24ca17c453c51c","67c7245cb00787c48a2edaec","passed","","","","","","","","","","","","","","","","","ballFalling_prac","340","390","263","4","fallScene","true","","","","","","",""
"","","","","","html-keyboard-response","65","512518","0.0-13.0-7.0-1.0","6400e3697879c55c323f34d0","6796e1c0ff24ca17c453c51c","67c7245cb00787c48a2edaec","passed","","682","","","","","","","","","","","","","","j","yesOrNo_prac","","","","4","","","far gt","700","","","","",""
"","","","","","html-keyboard-response","66","514087","0.0-13.0-7.0-0.1","6400e3697879c55c323f34d0","6796e1c0ff24ca17c453c51c","67c7245cb00787c48a2edaec","passed","","","","","","","","","","","","","","","","","ballFalling_prac","559","586","302","5","fallScene","false","","","","","","",""
"","","","","","html-keyboard-response","67","514799","0.0-13.0-7.0-1.1","6400e3697879c55c323f34d0","6796e1c0ff24ca17c453c51c","67c7245cb00787c48a2edaec","passed","","674","","","","","","","","","","","","","","j","yesOrNo_prac","","","","5","","","gt","700","","","","",""
"","","","","","html-keyboard-response","68","516332","0.0-13.0-7.0-0.2","6400e3697879c55c323f34d0","6796e1c0ff24ca17c453c51c","67c7245cb00787c48a2edaec","passed","","","","","","","","","","","","","","","","","ballFalling_prac","441","500","317","6","fallScene","true","","","","","","",""
"","","","","","html-keyboard-response","69","517039","0.0-13.0-7.0-1.2","6400e3697879c55c323f34d0","6796e1c0ff24ca17c453c51c","67c7245cb00787c48a2edaec","passed","","null","","","","","","","","","","","","","","null","yesOrNo_prac","","","","6","","","close gt","700","","","","",""
"","","","","","html-keyboard-response","70","519254","0.0-13.0-8.0","6400e3697879c55c323f34d0","6796e1c0ff24ca17c453c51c","67c7245cb00787c48a2edaec","passed","","2214","","","","","","","","","","","","","<p><span style=""font-size:40px;"">Practice Test BLOCK 2</span></p><p><span style=""font-size:25px;"">You have <b style=""color: #FF644F;""><strong>3 second(s)</strong></b> to respond to the following trials.</span><br></p><p id=""blinking-text"" style=""font-weight; animation: blink 2s infinite;"">Press Space to continue</p><style>
                    @keyframes blink {
                        50% {
                            opacity: 0;
                        }
                    }
                </style>"," ","","","","","","","","","","","","","",""
"","","","","","html-keyboard-response","71","520821","0.0-13.0-9.0-0.0","6400e3697879c55c323f34d0","6796e1c0ff24ca17c453c51c","67c7245cb00787c48a2edaec","passed","","","","","","","","","","","","","","","","","ballFalling_prac","340","390","263","4","fallScene","true","","","","","","",""
"","","","","","html-keyboard-response","72","523830","0.0-13.0-9.0-1.0","6400e3697879c55c323f34d0","6796e1c0ff24ca17c453c51c","67c7245cb00787c48a2edaec","passed","","1264","","","","","","","","","","","","","","j","yesOrNo_prac","","","","4","","","close gt","3000","","","","",""
"","","","","","html-keyboard-response","73","525408","0.0-13.0-9.0-0.1","6400e3697879c55c323f34d0","6796e1c0ff24ca17c453c51c","67c7245cb00787c48a2edaec","passed","","","","","","","","","","","","","","","","","ballFalling_prac","416","365","249","2","fallScene","false","","","","","","",""
"","","","","","html-keyboard-response","74","528418","0.0-13.0-9.0-1.1","6400e3697879c55c323f34d0","6796e1c0ff24ca17c453c51c","67c7245cb00787c48a2edaec","passed","","1666","","","","","","","","","","","","","","f","yesOrNo_prac","","","","2","","","gt","3000","","","","",""
"","","","","","html-keyboard-response","75","529996","0.0-13.0-9.0-0.2","6400e3697879c55c323f34d0","6796e1c0ff24ca17c453c51c","67c7245cb00787c48a2edaec","passed","","","","","","","","","","","","","","","","","ballFalling_prac","559","586","302","5","fallScene","false","","","","","","",""
"","","","","","html-keyboard-response","76","533006","0.0-13.0-9.0-1.2","6400e3697879c55c323f34d0","6796e1c0ff24ca17c453c51c","67c7245cb00787c48a2edaec","passed","","1415","","","","","","","","","","","","","","f","yesOrNo_prac","","","","5","","","far gt","3000","","","","",""
"","","","","","instructions","77","541902","0.0-14.0","6400e3697879c55c323f34d0","6796e1c0ff24ca17c453c51c","67c7245cb00787c48a2edaec","passed","[{""page_index"":0,""viewing_time"":8894}]","8894","","","","","","","","","","","","","","","","","","","","","","","","","","","",""
"","","","","","html-keyboard-response","78","543926","0.0-15.0","6400e3697879c55c323f34d0","6796e1c0ff24ca17c453c51c","67c7245cb00787c48a2edaec","passed","","2022","","","","","","","","","","","","","<p><span style=""font-size:40px;"">BLOCK 1</span></p><p><span style=""font-size:25px;"">You have <b style=""color: #FF644F;""><strong>0.7 second(s)</strong></b> to respond to the following trials.</span><br></p><p></p> <!-- Blank line -->
                <p id=""blinking-text"" style=""font-weight; animation: blink 2s infinite;"">Press Space to continue</p>
                <style>
                    @keyframes blink {
                        50% {
                            opacity: 0;
                        }
                    }
                </style></p>"," ","","","","","","","","","","","","","",""
"","","","","","html-keyboard-response","79","545730","0.0-16.0-0.0","6400e3697879c55c323f34d0","6796e1c0ff24ca17c453c51c","67c7245cb00787c48a2edaec","passed","","","","","","","","","","","","","","","","","ballFalling","322.3","308.07114317029976","253.89","2","fallScene","true","","","","","1","",""
"","","","","","html-keyboard-response","80","546447","0.0-16.0-1.0","6400e3697879c55c323f34d0","6796e1c0ff24ca17c453c51c","67c7245cb00787c48a2edaec","passed","","596","","","","","","","","","","","","","","f","yesOrNo","","","","2","","","lp","700","","","1","321.3","151"
"","","","","","html-keyboard-response","81","547930","0.0-16.0-0.1","6400e3697879c55c323f34d0","6796e1c0ff24ca17c453c51c","67c7245cb00787c48a2edaec","passed","","","","","","","","","","","","","","","","","ballFalling","604.4000000000001","667.6211431702998","201.78","9","fallScene","false","","","","","2","",""
"","","","","","html-keyboard-response","82","548638","0.0-16.0-1.1","6400e3697879c55c323f34d0","6796e1c0ff24ca17c453c51c","67c7245cb00787c48a2edaec","passed","","564","","","","","","","","","","","","","","j","yesOrNo","","","","9","","","lp","700","","","2","605.4000000000001","151"
"","","","","","html-keyboard-response","83","550207","0.0-16.0-0.2","6400e3697879c55c323f34d0","6796e1c0ff24ca17c453c51c","67c7245cb00787c48a2edaec","passed","","","","","","","","","","","","","","","","","ballFalling","500","553.4711431702997","282.51","7","fallScene","true","","","","","3","",""
"","","","","","html-keyboard-response","84","550938","0.0-16.0-1.2","6400e3697879c55c323f34d0","6796e1c0ff24ca17c453c51c","67c7245cb00787c48a2edaec","passed","","640","","","","","","","","","","","","","","j","yesOrNo","","","","7","","","gt","700","","","3","553.4711431702997","282.51"
"","","","","","html-keyboard-response","85","552927","0.0-16.0-0.3","6400e3697879c55c323f34d0","6796e1c0ff24ca17c453c51c","67c7245cb00787c48a2edaec","passed","","","","","","","","","","","","","","","","","ballFalling","500","510.8711431702997","369.03","8","fallScene","false","","","","","4","",""
"","","","","","html-keyboard-response","86","553634","0.0-16.0-1.3","6400e3697879c55c323f34d0","6796e1c0ff24ca17c453c51c","67c7245cb00787c48a2edaec","passed","","473","","","","","","","","","","","","","","f","yesOrNo","","","","8","","","lp","700","","","4","501","151"
"","","","","","html-keyboard-response","87","555171","0.0-16.0-0.4","6400e3697879c55c323f34d0","6796e1c0ff24ca17c453c51c","67c7245cb00787c48a2edaec","passed","","","","","","","","","","","","","","","","","ballFalling","604.4000000000001","575.4211431702997","266.76","12","fallScene","true","","","","","5","",""
"","","","","","html-keyboard-response","88","555890","0.0-16.0-1.4","6400e3697879c55c323f34d0","6796e1c0ff24ca17c453c51c","67c7245cb00787c48a2edaec","passed","","613","","","","","","","","","","","","","","f","yesOrNo","","","","12","","","mid","700","","","5","536.4288568297004","300"
"","","","","","html-keyboard-response","89","557423","0.0-16.0-0.5","6400e3697879c55c323f34d0","6796e1c0ff24ca17c453c51c","67c7245cb00787c48a2edaec","passed","","","","","","","","","","","","","","","","","ballFalling","322.3","296.07114317029976","371.46","3","fallScene","true","","","","","6","",""
"","","","","","html-keyboard-response","90","558131","0.0-16.0-1.5","6400e3697879c55c323f34d0","6796e1c0ff24ca17c453c51c","67c7245cb00787c48a2edaec","passed","","582","","","","","","","","","","","","","","f","yesOrNo","","","","3","","","lp","700","","","6","321.3","287.3327096511259"
"","","","","","html-keyboard-response","91","559625","0.0-16.0-0.6","6400e3697879c55c323f34d0","6796e1c0ff24ca17c453c51c","67c7245cb00787c48a2edaec","passed","","","","","","","","","","","","","","","","","ballFalling","604.4000000000001","667.6211431702998","201.78","9","fallScene","false","","","","","7","",""
"","","","","","html-keyboard-response","92","560333","0.0-16.0-1.6","6400e3697879c55c323f34d0","6796e1c0ff24ca17c453c51c","67c7245cb00787c48a2edaec","passed","","464","","","","","","","","","","","","","","j","yesOrNo","","","","9","","","gt","700","","","7","667.6211431702998","201.78"
"","","","","","html-keyboard-response","93","561911","0.0-16.0-0.7","6400e3697879c55c323f34d0","6796e1c0ff24ca17c453c51c","67c7245cb00787c48a2edaec","passed","","","","","","","","","","","","","","","","","ballFalling","604.4000000000001","575.4211431702997","266.76","12","fallScene","true","","","","","8","",""
"","","","","","html-keyboard-response","94","562619","0.0-16.0-1.7","6400e3697879c55c323f34d0","6796e1c0ff24ca17c453c51c","67c7245cb00787c48a2edaec","passed","","430","","","","","","","","","","","","","","j","yesOrNo","","","","12","","","gt","700","","","8","575.4211431702997","266.76"
"","","","","","html-keyboard-response","95","564164","0.0-16.0-0.8","6400e3697879c55c323f34d0","6796e1c0ff24ca17c453c51c","67c7245cb00787c48a2edaec","passed","","","","","","","","","","","","","","","","","ballFalling","500","453.67114317029973","210.33","5","fallScene","true","","","","","9","",""
"","","","","","html-keyboard-response","96","564883","0.0-16.0-1.8","6400e3697879c55c323f34d0","6796e1c0ff24ca17c453c51c","67c7245cb00787c48a2edaec","passed","","516","","","","","","","","","","","","","","j","yesOrNo","","","","5","","","gt","700","","","9","453.6711431702998","210.33"
"","","","","","html-keyboard-response","97","566449","0.0-16.0-0.9","6400e3697879c55c323f34d0","6796e1c0ff24ca17c453c51c","67c7245cb00787c48a2edaec","passed","","","","","","","","","","","","","","","","","ballFalling","322.3","379.3711431702997","245.25","1","fallScene","false","","","","","10","",""
"","","","","","html-keyboard-response","98","567157","0.0-16.0-1.9","6400e3697879c55c323f34d0","6796e1c0ff24ca17c453c51c","67c7245cb00787c48a2edaec","passed","","567","","","","","","","","","","","","","","j","yesOrNo","","","","1","","","mid","700","","","10","390.27114317029975","300"
"","","","","","html-keyboard-response","99","568719","0.0-16.0-0.10","6400e3697879c55c323f34d0","6796e1c0ff24ca17c453c51c","67c7245cb00787c48a2edaec","passed","","","","","","","","","","","","","","","","","ballFalling","500","453.67114317029973","210.33","5","fallScene","true","","","","","11","",""
"","","","","","html-keyboard-response","100","569436","0.0-16.0-1.10","6400e3697879c55c323f34d0","6796e1c0ff24ca17c453c51c","67c7245cb00787c48a2edaec","passed","","513","","","","","","","","","","","","","","j","yesOrNo","","","","5","","","gt","700","","","11","453.6711431702998","210.33"
"","","","","","html-keyboard-response","101","571437","0.0-16.0-0.11","6400e3697879c55c323f34d0","6796e1c0ff24ca17c453c51c","67c7245cb00787c48a2edaec","passed","","","","","","","","","","","","","","","","","ballFalling","500","510.8711431702997","369.03","8","fallScene","false","","","","","12","",""
"","","","","","html-keyboard-response","102","572144","0.0-16.0-1.11","6400e3697879c55c323f34d0","6796e1c0ff24ca17c453c51c","67c7245cb00787c48a2edaec","passed","","534","","","","","","","","","","","","","","j","yesOrNo","","","","8","","","lp","700","","","12","501","151"
"","","","","","html-keyboard-response","103","573614","0.0-16.0-0.12","6400e3697879c55c323f34d0","6796e1c0ff24ca17c453c51c","67c7245cb00787c48a2edaec","passed","","","","","","","","","","","","","","","","","ballFalling","604.4000000000001","667.6211431702998","201.78","9","fallScene","true","","","","","13","",""
"","","","","","html-keyboard-response","104","574326","0.0-16.0-1.12","6400e3697879c55c323f34d0","6796e1c0ff24ca17c453c51c","67c7245cb00787c48a2edaec","passed","","587","","","","","","","","","","","","","","j","yesOrNo","","","","9","","","mid","700","","","13","605.4000000000001","300"
"","","","","","html-keyboard-response","105","575950","0.0-16.0-0.13","6400e3697879c55c323f34d0","6796e1c0ff24ca17c453c51c","67c7245cb00787c48a2edaec","passed","","","","","","","","","","","","","","","","","ballFalling","500","479.92114317029973","330.87","6","fallScene","false","","","","","14","",""
"","","","","","html-keyboard-response","106","576661","0.0-16.0-1.13","6400e3697879c55c323f34d0","6796e1c0ff24ca17c453c51c","67c7245cb00787c48a2edaec","passed","","557","","","","","","","","","","","","","","f","yesOrNo","","","","6","","","gt","700","","","14","479.9211431702998","330.87"
"","","","","","html-keyboard-response","107","578201","0.0-16.0-0.14","6400e3697879c55c323f34d0","6796e1c0ff24ca17c453c51c","67c7245cb00787c48a2edaec","passed","","","","","","","","","","","","","","","","","ballFalling","322.3","379.3711431702997","245.25","1","fallScene","true","","","","","15","",""
"","","","","","html-keyboard-response","108","578916","0.0-16.0-1.14","6400e3697879c55c323f34d0","6796e1c0ff24ca17c453c51c","67c7245cb00787c48a2edaec","passed","","590","","","","","","","","","","","","","","j","yesOrNo","","","","1","","","gt","700","","","15","379.3711431702997","245.25"
"","","","","","html-keyboard-response","109","580921","0.0-16.0-0.15","6400e3697879c55c323f34d0","6796e1c0ff24ca17c453c51c","67c7245cb00787c48a2edaec","passed","","","","","","","","","","","","","","","","","ballFalling","500","510.8711431702997","369.03","8","fallScene","false","","","","","16","",""
"","","","","","html-keyboard-response","110","581632","0.0-16.0-1.15","6400e3697879c55c323f34d0","6796e1c0ff24ca17c453c51c","67c7245cb00787c48a2edaec","passed","","null","","","","","","","","","","","","","","null","yesOrNo","","","","8","","","gt","700","","","16","510.8711431702997","369.03"
"","","","","","html-keyboard-response","111","583274","0.0-16.0-0.16","6400e3697879c55c323f34d0","6796e1c0ff24ca17c453c51c","67c7245cb00787c48a2edaec","passed","","","","","","","","","","","","","","","","","ballFalling","500","479.92114317029973","330.87","6","fallScene","true","","","","","17","",""
"","","","","","html-keyboard-response","112","583985","0.0-16.0-1.16","6400e3697879c55c323f34d0","6796e1c0ff24ca17c453c51c","67c7245cb00787c48a2edaec","passed","","541","","","","","","","","","","","","","","f","yesOrNo","","","","6","","","mid","700","","","17","499","300"
"","","","","","html-keyboard-response","113","585985","0.0-16.0-0.17","6400e3697879c55c323f34d0","6796e1c0ff24ca17c453c51c","67c7245cb00787c48a2edaec","passed","","","","","","","","","","","","","","","","","ballFalling","500","510.8711431702997","369.03","8","fallScene","true","","","","","18","",""
"","","","","","html-keyboard-response","114","586705","0.0-16.0-1.17","6400e3697879c55c323f34d0","6796e1c0ff24ca17c453c51c","67c7245cb00787c48a2edaec","passed","","633","","","","","","","","","","","","","","j","yesOrNo","","","","8","","","gt","700","","","18","510.8711431702997","369.03"
"","","","","","html-keyboard-response","115","588254","0.0-16.0-0.18","6400e3697879c55c323f34d0","6796e1c0ff24ca17c453c51c","67c7245cb00787c48a2edaec","passed","","","","","","","","","","","","","","","","","ballFalling","322.3","356.42114317029973","357.87","4","fallScene","true","","","","","19","",""
"","","","","","html-keyboard-response","116","588962","0.0-16.0-1.18","6400e3697879c55c323f34d0","6796e1c0ff24ca17c453c51c","67c7245cb00787c48a2edaec","passed","","603","","","","","","","","","","","","","","j","yesOrNo","","","","4","","","gt","700","","","19","356.42114317029973","357.87"
"","","","","","html-keyboard-response","117","590524","0.0-16.0-0.19","6400e3697879c55c323f34d0","6796e1c0ff24ca17c453c51c","67c7245cb00787c48a2edaec","passed","","","","","","","","","","","","","","","","","ballFalling","322.3","296.07114317029976","371.46","3","fallScene","true","","","","","20","",""
"","","","","","html-keyboard-response","118","591242","0.0-16.0-1.19","6400e3697879c55c323f34d0","6796e1c0ff24ca17c453c51c","67c7245cb00787c48a2edaec","passed","","653","","","","","","","","","","","","","","f","yesOrNo","","","","3","","","gt","700","","","20","296.07114317029976","371.46"
"","","","","","html-keyboard-response","119","592809","0.0-16.0-0.20","6400e3697879c55c323f34d0","6796e1c0ff24ca17c453c51c","67c7245cb00787c48a2edaec","passed","","","","","","","","","","","","","","","","","ballFalling","604.4000000000001","575.4211431702997","266.76","12","fallScene","false","","","","","21","",""
"","","","","","html-keyboard-response","120","593530","0.0-16.0-1.20","6400e3697879c55c323f34d0","6796e1c0ff24ca17c453c51c","67c7245cb00787c48a2edaec","passed","","664","","","","","","","","","","","","","","f","yesOrNo","","","","12","","","lp","700","","","21","603.4000000000001","151"
"","","","","","html-keyboard-response","121","595094","0.0-16.0-0.21","6400e3697879c55c323f34d0","6796e1c0ff24ca17c453c51c","67c7245cb00787c48a2edaec","passed","","","","","","","","","","","","","","","","","ballFalling","500","553.4711431702997","282.51","7","fallScene","false","","","","","22","",""
"","","","","","html-keyboard-response","122","595802","0.0-16.0-1.21","6400e3697879c55c323f34d0","6796e1c0ff24ca17c453c51c","67c7245cb00787c48a2edaec","passed","","null","","","","","","","","","","","","","","null","yesOrNo","","","","7","","","mid","700","","","22","501","300"
"","","","","","html-keyboard-response","123","597363","0.0-16.0-0.22","6400e3697879c55c323f34d0","6796e1c0ff24ca17c453c51c","67c7245cb00787c48a2edaec","passed","","","","","","","","","","","","","","","","","ballFalling","500","453.67114317029973","210.33","5","fallScene","true","","","","","23","",""
"","","","","","html-keyboard-response","124","598082","0.0-16.0-1.22","6400e3697879c55c323f34d0","6796e1c0ff24ca17c453c51c","67c7245cb00787c48a2edaec","passed","","615","","","","","","","","","","","","","","f","yesOrNo","","","","5","","","lp","700","","","23","499","151"
"","","","","","html-keyboard-response","125","599649","0.0-16.0-0.23","6400e3697879c55c323f34d0","6796e1c0ff24ca17c453c51c","67c7245cb00787c48a2edaec","passed","","","","","","","","","","","","","","","","","ballFalling","604.4000000000001","650.0211431702996","404.58000000000004","11","fallScene","false","","","","","24","",""
"","","","","","html-keyboard-response","126","600356","0.0-16.0-1.23","6400e3697879c55c323f34d0","6796e1c0ff24ca17c453c51c","67c7245cb00787c48a2edaec","passed","","null","","","","","","","","","","","","","","null","yesOrNo","","","","11","","","gt","700","","","24","650.0211431702996","404.58"
"","","","","","html-keyboard-response","127","602189","0.0-17.0","6400e3697879c55c323f34d0","6796e1c0ff24ca17c453c51c","67c7245cb00787c48a2edaec","passed","","1832","","","","","","","","","","","","","<p><span style=""font-size:40px;"">BLOCK 2</span></p><p><span style=""font-size:25px;"">You have <b style=""color: #FF644F;""><strong>0.7 second(s)</strong></b> to respond to the following trials.</span><br></p><p></p> <!-- Blank line -->
                <p id=""blinking-text"" style=""font-weight; animation: blink 2s infinite;"">Press Space to continue</p>
                <style>
                    @keyframes blink {
                        50% {
                            opacity: 0;
                        }
                    }
                </style></p>"," ","","","","","","","","","","","","","",""
"","","","","","html-keyboard-response","128","603710","0.0-18.0-0.0","6400e3697879c55c323f34d0","6796e1c0ff24ca17c453c51c","67c7245cb00787c48a2edaec","passed","","","","","","","","","","","","","","","","","ballFalling","322.3","356.42114317029973","357.87","4","fallScene","true","","","","","25","",""
"","","","","","html-keyboard-response","129","604422","0.0-18.0-1.0","6400e3697879c55c323f34d0","6796e1c0ff24ca17c453c51c","67c7245cb00787c48a2edaec","passed","","523","","","","","","","","","","","","","","j","yesOrNo","","","","4","","","mid","700","","","25","390.27114317029975","300"
"","","","","","html-keyboard-response","130","606429","0.0-18.0-0.1","6400e3697879c55c323f34d0","6796e1c0ff24ca17c453c51c","67c7245cb00787c48a2edaec","passed","","","","","","","","","","","","","","","","","ballFalling","604.4000000000001","596.8711431702998","394.5","10","fallScene","false","","","","","26","",""
"","","","","","html-keyboard-response","131","607145","0.0-18.0-1.1","6400e3697879c55c323f34d0","6796e1c0ff24ca17c453c51c","67c7245cb00787c48a2edaec","passed","","514","","","","","","","","","","","","","","j","yesOrNo","","","","10","","","mid","700","","","26","536.4288568297004","300"
"","","","","","html-keyboard-response","132","608708","0.0-18.0-0.2","6400e3697879c55c323f34d0","6796e1c0ff24ca17c453c51c","67c7245cb00787c48a2edaec","passed","","","","","","","","","","","","","","","","","ballFalling","604.4000000000001","650.0211431702996","404.58000000000004","11","fallScene","false","","","","","27","",""
"","","","","","html-keyboard-response","133","609426","0.0-18.0-1.2","6400e3697879c55c323f34d0","6796e1c0ff24ca17c453c51c","67c7245cb00787c48a2edaec","passed","","null","","","","","","","","","","","","","","null","yesOrNo","","","","11","","","lp","700","","","27","605.4000000000001","372.6340973215488"
"","","","","","html-keyboard-response","134","610993","0.0-18.0-0.3","6400e3697879c55c323f34d0","6796e1c0ff24ca17c453c51c","67c7245cb00787c48a2edaec","passed","","","","","","","","","","","","","","","","","ballFalling","322.3","356.42114317029973","357.87","4","fallScene","true","","","","","28","",""
"","","","","","html-keyboard-response","135","611701","0.0-18.0-1.3","6400e3697879c55c323f34d0","6796e1c0ff24ca17c453c51c","67c7245cb00787c48a2edaec","passed","","615","","","","","","","","","","","","","","j","yesOrNo","","","","4","","","mid","700","","","28","390.27114317029975","300"
"","","","","","html-keyboard-response","136","613496","0.0-18.0-0.4","6400e3697879c55c323f34d0","6796e1c0ff24ca17c453c51c","67c7245cb00787c48a2edaec","passed","","","","","","","","","","","","","","","","","ballFalling","322.3","308.07114317029976","253.89","2","fallScene","true","","","","","29","",""
"","","","","","html-keyboard-response","137","614203","0.0-18.0-1.4","6400e3697879c55c323f34d0","6796e1c0ff24ca17c453c51c","67c7245cb00787c48a2edaec","passed","","598","","","","","","","","","","","","","","f","yesOrNo","","","","2","","","lp","700","","","29","321.3","151"
"","","","","","html-keyboard-response","138","615822","0.0-18.0-0.5","6400e3697879c55c323f34d0","6796e1c0ff24ca17c453c51c","67c7245cb00787c48a2edaec","passed","","","","","","","","","","","","","","","","","ballFalling","500","479.92114317029973","330.87","6","fallScene","true","","","","","30","",""
"","","","","","html-keyboard-response","139","616535","0.0-18.0-1.5","6400e3697879c55c323f34d0","6796e1c0ff24ca17c453c51c","67c7245cb00787c48a2edaec","passed","","608","","","","","","","","","","","","","","f","yesOrNo","","","","6","","","mid","700","","","30","499","300"
"","","","","","html-keyboard-response","140","618551","0.0-18.0-0.6","6400e3697879c55c323f34d0","6796e1c0ff24ca17c453c51c","67c7245cb00787c48a2edaec","passed","","","","","","","","","","","","","","","","","ballFalling","604.4000000000001","596.8711431702998","394.5","10","fallScene","false","","","","","31","",""
"","","","","","html-keyboard-response","141","619278","0.0-18.0-1.6","6400e3697879c55c323f34d0","6796e1c0ff24ca17c453c51c","67c7245cb00787c48a2edaec","passed","","469","","","","","","","","","","","","","","j","yesOrNo","","","","10","","","mid","700","","","31","536.4288568297004","300"
"","","","","","html-keyboard-response","142","620836","0.0-18.0-0.7","6400e3697879c55c323f34d0","6796e1c0ff24ca17c453c51c","67c7245cb00787c48a2edaec","passed","","","","","","","","","","","","","","","","","ballFalling","322.3","296.07114317029976","371.46","3","fallScene","false","","","","","32","",""
"","","","","","html-keyboard-response","143","621544","0.0-18.0-1.7","6400e3697879c55c323f34d0","6796e1c0ff24ca17c453c51c","67c7245cb00787c48a2edaec","passed","","516","","","","","","","","","","","","","","f","yesOrNo","","","","3","","","mid","700","","","32","321.3","300"
"","","","","","html-keyboard-response","144","623540","0.0-18.0-0.8","6400e3697879c55c323f34d0","6796e1c0ff24ca17c453c51c","67c7245cb00787c48a2edaec","passed","","","","","","","","","","","","","","","","","ballFalling","500","510.8711431702997","369.03","8","fallScene","false","","","","","33","",""
"","","","","","html-keyboard-response","145","624259","0.0-18.0-1.8","6400e3697879c55c323f34d0","6796e1c0ff24ca17c453c51c","67c7245cb00787c48a2edaec","passed","","598","","","","","","","","","","","","","","f","yesOrNo","","","","8","","","mid","700","","","33","501","300"
"","","","","","html-keyboard-response","146","625825","0.0-18.0-0.9","6400e3697879c55c323f34d0","6796e1c0ff24ca17c453c51c","67c7245cb00787c48a2edaec","passed","","","","","","","","","","","","","","","","","ballFalling","322.3","296.07114317029976","371.46","3","fallScene","false","","","","","34","",""
"","","","","","html-keyboard-response","147","626544","0.0-18.0-1.9","6400e3697879c55c323f34d0","6796e1c0ff24ca17c453c51c","67c7245cb00787c48a2edaec","passed","","468","","","","","","","","","","","","","","j","yesOrNo","","","","3","","","lp","700","","","34","321.3","287.3327096511259"
"","","","","","html-keyboard-response","148","628211","0.0-18.0-0.10","6400e3697879c55c323f34d0","6796e1c0ff24ca17c453c51c","67c7245cb00787c48a2edaec","passed","","","","","","","","","","","","","","","","","ballFalling","500","479.92114317029973","330.87","6","fallScene","true","","","","","35","",""
"","","","","","html-keyboard-response","149","628917","0.0-18.0-1.10","6400e3697879c55c323f34d0","6796e1c0ff24ca17c453c51c","67c7245cb00787c48a2edaec","passed","","482","","","","","","","","","","","","","","f","yesOrNo","","","","6","","","gt","700","","","35","479.9211431702998","330.87"
"","","","","","html-keyboard-response","150","630580","0.0-18.0-0.11","6400e3697879c55c323f34d0","6796e1c0ff24ca17c453c51c","67c7245cb00787c48a2edaec","passed","","","","","","","","","","","","","","","","","ballFalling","500","479.92114317029973","330.87","6","fallScene","false","","","","","36","",""
"","","","","","html-keyboard-response","151","631287","0.0-18.0-1.11","6400e3697879c55c323f34d0","6796e1c0ff24ca17c453c51c","67c7245cb00787c48a2edaec","passed","","631","","","","","","","","","","","","","","j","yesOrNo","","","","6","","","lp","700","","","36","499","189.92909825697632"
"","","","","","html-keyboard-response","152","632822","0.0-18.0-0.12","6400e3697879c55c323f34d0","6796e1c0ff24ca17c453c51c","67c7245cb00787c48a2edaec","passed","","","","","","","","","","","","","","","","","ballFalling","604.4000000000001","575.4211431702997","266.76","12","fallScene","true","","","","","37","",""
"","","","","","html-keyboard-response","153","633533","0.0-18.0-1.12","6400e3697879c55c323f34d0","6796e1c0ff24ca17c453c51c","67c7245cb00787c48a2edaec","passed","","null","","","","","","","","","","","","","","null","yesOrNo","","","","12","","","mid","700","","","37","536.4288568297004","300"
"","","","","","html-keyboard-response","154","635059","0.0-18.0-0.13","6400e3697879c55c323f34d0","6796e1c0ff24ca17c453c51c","67c7245cb00787c48a2edaec","passed","","","","","","","","","","","","","","","","","ballFalling","604.4000000000001","650.0211431702996","404.58000000000004","11","fallScene","true","","","","","38","",""
"","","","","","html-keyboard-response","155","635769","0.0-18.0-1.13","6400e3697879c55c323f34d0","6796e1c0ff24ca17c453c51c","67c7245cb00787c48a2edaec","passed","","null","","","","","","","","","","","","","","null","yesOrNo","","","","11","","","mid","700","","","38","605.4000000000001","300"
"","","","","","html-keyboard-response","156","637338","0.0-18.0-0.14","6400e3697879c55c323f34d0","6796e1c0ff24ca17c453c51c","67c7245cb00787c48a2edaec","passed","","","","","","","","","","","","","","","","","ballFalling","500","453.67114317029973","210.33","5","fallScene","true","","","","","39","",""
"","","","","","html-keyboard-response","157","638055","0.0-18.0-1.14","6400e3697879c55c323f34d0","6796e1c0ff24ca17c453c51c","67c7245cb00787c48a2edaec","passed","","661","","","","","","","","","","","","","","f","yesOrNo","","","","5","","","lp","700","","","39","499","151"
"","","","","","html-keyboard-response","158","639823","0.0-18.0-0.15","6400e3697879c55c323f34d0","6796e1c0ff24ca17c453c51c","67c7245cb00787c48a2edaec","passed","","","","","","","","","","","","","","","","","ballFalling","322.3","308.07114317029976","253.89","2","fallScene","true","","","","","40","",""
"","","","","","html-keyboard-response","159","640542","0.0-18.0-1.15","6400e3697879c55c323f34d0","6796e1c0ff24ca17c453c51c","67c7245cb00787c48a2edaec","passed","","665","","","","","","","","","","","","","","f","yesOrNo","","","","2","","","gt","700","","","40","308.07114317029976","253.89"
"","","","","","html-keyboard-response","160","642074","0.0-18.0-0.16","6400e3697879c55c323f34d0","6796e1c0ff24ca17c453c51c","67c7245cb00787c48a2edaec","passed","","","","","","","","","","","","","","","","","ballFalling","604.4000000000001","650.0211431702996","404.58000000000004","11","fallScene","true","","","","","41","",""
"","","","","","html-keyboard-response","161","642782","0.0-18.0-1.16","6400e3697879c55c323f34d0","6796e1c0ff24ca17c453c51c","67c7245cb00787c48a2edaec","passed","","483","","","","","","","","","","","","","","f","yesOrNo","","","","11","","","lp","700","","","41","605.4000000000001","372.6340973215488"
"","","","","","html-keyboard-response","162","644343","0.0-18.0-0.17","6400e3697879c55c323f34d0","6796e1c0ff24ca17c453c51c","67c7245cb00787c48a2edaec","passed","","","","","","","","","","","","","","","","","ballFalling","500","453.67114317029973","210.33","5","fallScene","false","","","","","42","",""
"","","","","","html-keyboard-response","163","645051","0.0-18.0-1.17","6400e3697879c55c323f34d0","6796e1c0ff24ca17c453c51c","67c7245cb00787c48a2edaec","passed","","450","","","","","","","","","","","","","","j","yesOrNo","","","","5","","","mid","700","","","42","499","300"
"","","","","","html-keyboard-response","164","646620","0.0-18.0-0.18","6400e3697879c55c323f34d0","6796e1c0ff24ca17c453c51c","67c7245cb00787c48a2edaec","passed","","","","","","","","","","","","","","","","","ballFalling","500","553.4711431702997","282.51","7","fallScene","true","","","","","43","",""
"","","","","","html-keyboard-response","165","647331","0.0-18.0-1.18","6400e3697879c55c323f34d0","6796e1c0ff24ca17c453c51c","67c7245cb00787c48a2edaec","passed","","507","","","","","","","","","","","","","","j","yesOrNo","","","","7","","","gt","700","","","43","553.4711431702997","282.51"
"","","","","","html-keyboard-response","166","648881","0.0-18.0-0.19","6400e3697879c55c323f34d0","6796e1c0ff24ca17c453c51c","67c7245cb00787c48a2edaec","passed","","","","","","","","","","","","","","","","","ballFalling","322.3","379.3711431702997","245.25","1","fallScene","false","","","","","44","",""
"","","","","","html-keyboard-response","167","649589","0.0-18.0-1.19","6400e3697879c55c323f34d0","6796e1c0ff24ca17c453c51c","67c7245cb00787c48a2edaec","passed","","480","","","","","","","","","","","","","","f","yesOrNo","","","","1","","","lp","700","","","44","323.3","217.74551669457017"
"","","","","","html-keyboard-response","168","651151","0.0-18.0-0.20","6400e3697879c55c323f34d0","6796e1c0ff24ca17c453c51c","67c7245cb00787c48a2edaec","passed","","","","","","","","","","","","","","","","","ballFalling","322.3","356.42114317029973","357.87","4","fallScene","false","","","","","45","",""
"","","","","","html-keyboard-response","169","651857","0.0-18.0-1.20","6400e3697879c55c323f34d0","6796e1c0ff24ca17c453c51c","67c7245cb00787c48a2edaec","passed","","537","","","","","","","","","","","","","","f","yesOrNo","","","","4","","","gt","700","","","45","356.42114317029973","357.87"
"","","","","","html-keyboard-response","170","653869","0.0-18.0-0.21","6400e3697879c55c323f34d0","6796e1c0ff24ca17c453c51c","67c7245cb00787c48a2edaec","passed","","","","","","","","","","","","","","","","","ballFalling","500","510.8711431702997","369.03","8","fallScene","true","","","","","46","",""
"","","","","","html-keyboard-response","171","654577","0.0-18.0-1.21","6400e3697879c55c323f34d0","6796e1c0ff24ca17c453c51c","67c7245cb00787c48a2edaec","passed","","500","","","","","","","","","","","","","","j","yesOrNo","","","","8","","","mid","700","","","46","501","300"
"","","","","","html-keyboard-response","172","656355","0.0-18.0-0.22","6400e3697879c55c323f34d0","6796e1c0ff24ca17c453c51c","67c7245cb00787c48a2edaec","passed","","","","","","","","","","","","","","","","","ballFalling","322.3","308.07114317029976","253.89","2","fallScene","true","","","","","47","",""
"","","","","","html-keyboard-response","173","657064","0.0-18.0-1.22","6400e3697879c55c323f34d0","6796e1c0ff24ca17c453c51c","67c7245cb00787c48a2edaec","passed","","null","","","","","","","","","","","","","","null","yesOrNo","","","","2","","","mid","700","","","47","321.3","300"
"","","","","","html-keyboard-response","174","658624","0.0-18.0-0.23","6400e3697879c55c323f34d0","6796e1c0ff24ca17c453c51c","67c7245cb00787c48a2edaec","passed","","","","","","","","","","","","","","","","","ballFalling","604.4000000000001","650.0211431702996","404.58000000000004","11","fallScene","false","","","","","48","",""
"","","","","","html-keyboard-response","175","659329","0.0-18.0-1.23","6400e3697879c55c323f34d0","6796e1c0ff24ca17c453c51c","67c7245cb00787c48a2edaec","passed","","433","","","","","","","","","","","","","","f","yesOrNo","","","","11","","","mid","700","","","48","605.4000000000001","300"
"","","","","","html-keyboard-response","176","662125","0.0-19.0","6400e3697879c55c323f34d0","6796e1c0ff24ca17c453c51c","67c7245cb00787c48a2edaec","passed","","2795","","","","","","","","","","","","","<p><span style=""font-size:40px;"">BLOCK 3</span></p><p><span style=""font-size:25px;"">You have <b style=""color: #FF644F;""><strong>3 second(s)</strong></b> to respond to the following trials.</span><br></p><p></p> <!-- Blank line -->
                <p id=""blinking-text"" style=""font-weight; animation: blink 2s infinite;"">Press Space to continue</p>
                <style>
                    @keyframes blink {
                        50% {
                            opacity: 0;
                        }
                    }
                </style></p>"," ","","","","","","","","","","","","","",""
"","","","","","html-keyboard-response","177","663696","0.0-20.0-0.0","6400e3697879c55c323f34d0","6796e1c0ff24ca17c453c51c","67c7245cb00787c48a2edaec","passed","","","","","","","","","","","","","","","","","ballFalling","322.3","379.3711431702997","245.25","1","fallScene","true","","","","","49","",""
"","","","","","html-keyboard-response","178","666705","0.0-20.0-1.0","6400e3697879c55c323f34d0","6796e1c0ff24ca17c453c51c","67c7245cb00787c48a2edaec","passed","","737","","","","","","","","","","","","","","j","yesOrNo","","","","1","","","gt","3000","","","49","379.3711431702997","245.25"
"","","","","","html-keyboard-response","179","668709","0.0-20.0-0.1","6400e3697879c55c323f34d0","6796e1c0ff24ca17c453c51c","67c7245cb00787c48a2edaec","passed","","","","","","","","","","","","","","","","","ballFalling","500","510.8711431702997","369.03","8","fallScene","true","","","","","50","",""
"","","","","","html-keyboard-response","180","671730","0.0-20.0-1.1","6400e3697879c55c323f34d0","6796e1c0ff24ca17c453c51c","67c7245cb00787c48a2edaec","passed","","1395","","","","","","","","","","","","","","f","yesOrNo","","","","8","","","mid","3000","","","50","501","300"
"","","","","","html-keyboard-response","181","673740","0.0-20.0-0.2","6400e3697879c55c323f34d0","6796e1c0ff24ca17c453c51c","67c7245cb00787c48a2edaec","passed","","","","","","","","","","","","","","","","","ballFalling","500","510.8711431702997","369.03","8","fallScene","true","","","","","51","",""
"","","","","","html-keyboard-response","182","676762","0.0-20.0-1.2","6400e3697879c55c323f34d0","6796e1c0ff24ca17c453c51c","67c7245cb00787c48a2edaec","passed","","1781","","","","","","","","","","","","","","j","yesOrNo","","","","8","","","lp","3000","","","51","501","151"
"","","","","","html-keyboard-response","183","678778","0.0-20.0-0.3","6400e3697879c55c323f34d0","6796e1c0ff24ca17c453c51c","67c7245cb00787c48a2edaec","passed","","","","","","","","","","","","","","","","","ballFalling","604.4000000000001","596.8711431702998","394.5","10","fallScene","false","","","","","52","",""
"","","","","","html-keyboard-response","184","681785","0.0-20.0-1.3","6400e3697879c55c323f34d0","6796e1c0ff24ca17c453c51c","67c7245cb00787c48a2edaec","passed","","2450","","","","","","","","","","","","","","f","yesOrNo","","","","10","","","lp","3000","","","52","603.4000000000001","215.50214355555383"
"","","","","","html-keyboard-response","185","683391","0.0-20.0-0.4","6400e3697879c55c323f34d0","6796e1c0ff24ca17c453c51c","67c7245cb00787c48a2edaec","passed","","","","","","","","","","","","","","","","","ballFalling","500","553.4711431702997","282.51","7","fallScene","true","","","","","53","",""
"","","","","","html-keyboard-response","186","686406","0.0-20.0-1.4","6400e3697879c55c323f34d0","6796e1c0ff24ca17c453c51c","67c7245cb00787c48a2edaec","passed","","1313","","","","","","","","","","","","","","j","yesOrNo","","","","7","","","mid","3000","","","53","501","300"
"","","","","","html-keyboard-response","187","687924","0.0-20.0-0.5","6400e3697879c55c323f34d0","6796e1c0ff24ca17c453c51c","67c7245cb00787c48a2edaec","passed","","","","","","","","","","","","","","","","","ballFalling","604.4000000000001","667.6211431702998","201.78","9","fallScene","true","","","","","54","",""
"","","","","","html-keyboard-response","188","690942","0.0-20.0-1.5","6400e3697879c55c323f34d0","6796e1c0ff24ca17c453c51c","67c7245cb00787c48a2edaec","passed","","1628","","","","","","","","","","","","","","j","yesOrNo","","","","9","","","lp","3000","","","54","605.4000000000001","151"
"","","","","","html-keyboard-response","189","692959","0.0-20.0-0.6","6400e3697879c55c323f34d0","6796e1c0ff24ca17c453c51c","67c7245cb00787c48a2edaec","passed","","","","","","","","","","","","","","","","","ballFalling","500","510.8711431702997","369.03","8","fallScene","true","","","","","55","",""
"","","","","","html-keyboard-response","190","695969","0.0-20.0-1.6","6400e3697879c55c323f34d0","6796e1c0ff24ca17c453c51c","67c7245cb00787c48a2edaec","passed","","1121","","","","","","","","","","","","","","f","yesOrNo","","","","8","","","lp","3000","","","55","501","151"
"","","","","","html-keyboard-response","191","697530","0.0-20.0-0.7","6400e3697879c55c323f34d0","6796e1c0ff24ca17c453c51c","67c7245cb00787c48a2edaec","passed","","","","","","","","","","","","","","","","","ballFalling","604.4000000000001","575.4211431702997","266.76","12","fallScene","true","","","","","56","",""
"","","","","","html-keyboard-response","192","700536","0.0-20.0-1.7","6400e3697879c55c323f34d0","6796e1c0ff24ca17c453c51c","67c7245cb00787c48a2edaec","passed","","931","","","","","","","","","","","","","","f","yesOrNo","","","","12","","","lp","3000","","","56","603.4000000000001","151"
"","","","","","html-keyboard-response","193","702101","0.0-20.0-0.8","6400e3697879c55c323f34d0","6796e1c0ff24ca17c453c51c","67c7245cb00787c48a2edaec","passed","","","","","","","","","","","","","","","","","ballFalling","322.3","379.3711431702997","245.25","1","fallScene","true","","","","","57","",""
"","","","","","html-keyboard-response","194","705111","0.0-20.0-1.8","6400e3697879c55c323f34d0","6796e1c0ff24ca17c453c51c","67c7245cb00787c48a2edaec","passed","","582","","","","","","","","","","","","","","j","yesOrNo","","","","1","","","gt","3000","","","57","379.3711431702997","245.25"
"","","","","","html-keyboard-response","195","706663","0.0-20.0-0.9","6400e3697879c55c323f34d0","6796e1c0ff24ca17c453c51c","67c7245cb00787c48a2edaec","passed","","","","","","","","","","","","","","","","","ballFalling","322.3","296.07114317029976","371.46","3","fallScene","false","","","","","58","",""
"","","","","","html-keyboard-response","196","709679","0.0-20.0-1.9","6400e3697879c55c323f34d0","6796e1c0ff24ca17c453c51c","67c7245cb00787c48a2edaec","passed","","1559","","","","","","","","","","","","","","j","yesOrNo","","","","3","","","mid","3000","","","58","321.3","300"
"","","","","","html-keyboard-response","197","711235","0.0-20.0-0.10","6400e3697879c55c323f34d0","6796e1c0ff24ca17c453c51c","67c7245cb00787c48a2edaec","passed","","","","","","","","","","","","","","","","","ballFalling","500","453.67114317029973","210.33","5","fallScene","true","","","","","59","",""
"","","","","","html-keyboard-response","198","714248","0.0-20.0-1.10","6400e3697879c55c323f34d0","6796e1c0ff24ca17c453c51c","67c7245cb00787c48a2edaec","passed","","1791","","","","","","","","","","","","","","j","yesOrNo","","","","5","","","lp","3000","","","59","499","151"
"","","","","","html-keyboard-response","199","715915","0.0-20.0-0.11","6400e3697879c55c323f34d0","6796e1c0ff24ca17c453c51c","67c7245cb00787c48a2edaec","passed","","","","","","","","","","","","","","","","","ballFalling","500","479.92114317029973","330.87","6","fallScene","true","","","","","60","",""
"","","","","","html-keyboard-response","200","718921","0.0-20.0-1.11","6400e3697879c55c323f34d0","6796e1c0ff24ca17c453c51c","67c7245cb00787c48a2edaec","passed","","1650","","","","","","","","","","","","","","f","yesOrNo","","","","6","","","mid","3000","","","60","499","300"
"","","","","","html-keyboard-response","201","720710","0.0-20.0-0.12","6400e3697879c55c323f34d0","6796e1c0ff24ca17c453c51c","67c7245cb00787c48a2edaec","passed","","","","","","","","","","","","","","","","","ballFalling","322.3","308.07114317029976","253.89","2","fallScene","false","","","","","61","",""
"","","","","","html-keyboard-response","202","723720","0.0-20.0-1.12","6400e3697879c55c323f34d0","6796e1c0ff24ca17c453c51c","67c7245cb00787c48a2edaec","passed","","1290","","","","","","","","","","","","","","f","yesOrNo","","","","2","","","lp","3000","","","61","321.3","151"
"","","","","","html-keyboard-response","203","725274","0.0-20.0-0.13","6400e3697879c55c323f34d0","6796e1c0ff24ca17c453c51c","67c7245cb00787c48a2edaec","passed","","","","","","","","","","","","","","","","","ballFalling","322.3","296.07114317029976","371.46","3","fallScene","false","","","","","62","",""
"","","","","","html-keyboard-response","204","728305","0.0-20.0-1.13","6400e3697879c55c323f34d0","6796e1c0ff24ca17c453c51c","67c7245cb00787c48a2edaec","passed","","1054","","","","","","","","","","","","","","j","yesOrNo","","","","3","","","gt","3000","","","62","296.07114317029976","371.46"
"","","","","","html-keyboard-response","205","729795","0.0-20.0-0.14","6400e3697879c55c323f34d0","6796e1c0ff24ca17c453c51c","67c7245cb00787c48a2edaec","passed","","","","","","","","","","","","","","","","","ballFalling","604.4000000000001","667.6211431702998","201.78","9","fallScene","false","","","","","63","",""
"","","","","","html-keyboard-response","206","732801","0.0-20.0-1.14","6400e3697879c55c323f34d0","6796e1c0ff24ca17c453c51c","67c7245cb00787c48a2edaec","passed","","750","","","","","","","","","","","","","","f","yesOrNo","","","","9","","","lp","3000","","","63","605.4000000000001","151"
"","","","","","html-keyboard-response","207","734801","0.0-20.0-0.15","6400e3697879c55c323f34d0","6796e1c0ff24ca17c453c51c","67c7245cb00787c48a2edaec","passed","","","","","","","","","","","","","","","","","ballFalling","500","510.8711431702997","369.03","8","fallScene","false","","","","","64","",""
"","","","","","html-keyboard-response","208","737806","0.0-20.0-1.15","6400e3697879c55c323f34d0","6796e1c0ff24ca17c453c51c","67c7245cb00787c48a2edaec","passed","","1065","","","","","","","","","","","","","","j","yesOrNo","","","","8","","","gt","3000","","","64","510.8711431702997","369.03"
"","","","","","html-keyboard-response","209","739363","0.0-20.0-0.16","6400e3697879c55c323f34d0","6796e1c0ff24ca17c453c51c","67c7245cb00787c48a2edaec","passed","","","","","","","","","","","","","","","","","ballFalling","322.3","356.42114317029973","357.87","4","fallScene","false","","","","","65","",""
"","","","","","html-keyboard-response","210","742376","0.0-20.0-1.16","6400e3697879c55c323f34d0","6796e1c0ff24ca17c453c51c","67c7245cb00787c48a2edaec","passed","","2476","","","","","","","","","","","","","","j","yesOrNo","","","","4","","","lp","3000","","","65","323.3","297.4070551689986"
"","","","","","html-keyboard-response","211","743944","0.0-20.0-0.17","6400e3697879c55c323f34d0","6796e1c0ff24ca17c453c51c","67c7245cb00787c48a2edaec","passed","","","","","","","","","","","","","","","","","ballFalling","500","453.67114317029973","210.33","5","fallScene","true","","","","","66","",""
"","","","","","html-keyboard-response","212","746969","0.0-20.0-1.17","6400e3697879c55c323f34d0","6796e1c0ff24ca17c453c51c","67c7245cb00787c48a2edaec","passed","","1663","","","","","","","","","","","","","","j","yesOrNo","","","","5","","","mid","3000","","","66","499","300"
"","","","","","html-keyboard-response","213","748531","0.0-20.0-0.18","6400e3697879c55c323f34d0","6796e1c0ff24ca17c453c51c","67c7245cb00787c48a2edaec","passed","","","","","","","","","","","","","","","","","ballFalling","322.3","356.42114317029973","357.87","4","fallScene","true","","","","","67","",""
"","","","","","html-keyboard-response","214","751536","0.0-20.0-1.18","6400e3697879c55c323f34d0","6796e1c0ff24ca17c453c51c","67c7245cb00787c48a2edaec","passed","","966","","","","","","","","","","","","","","j","yesOrNo","","","","4","","","mid","3000","","","67","390.27114317029975","300"
"","","","","","html-keyboard-response","215","753553","0.0-20.0-0.19","6400e3697879c55c323f34d0","6796e1c0ff24ca17c453c51c","67c7245cb00787c48a2edaec","passed","","","","","","","","","","","","","","","","","ballFalling","604.4000000000001","596.8711431702998","394.5","10","fallScene","false","","","","","68","",""
"","","","","","html-keyboard-response","216","756563","0.0-20.0-1.19","6400e3697879c55c323f34d0","6796e1c0ff24ca17c453c51c","67c7245cb00787c48a2edaec","passed","","671","","","","","","","","","","","","","","j","yesOrNo","","","","10","","","mid","3000","","","68","536.4288568297004","300"
"","","","","","html-keyboard-response","217","758224","0.0-20.0-0.20","6400e3697879c55c323f34d0","6796e1c0ff24ca17c453c51c","67c7245cb00787c48a2edaec","passed","","","","","","","","","","","","","","","","","ballFalling","500","479.92114317029973","330.87","6","fallScene","false","","","","","69","",""
"","","","","","html-keyboard-response","218","761231","0.0-20.0-1.20","6400e3697879c55c323f34d0","6796e1c0ff24ca17c453c51c","67c7245cb00787c48a2edaec","passed","","1081","","","","","","","","","","","","","","j","yesOrNo","","","","6","","","gt","3000","","","69","479.9211431702998","330.87"
"","","","","","html-keyboard-response","219","762786","0.0-20.0-0.21","6400e3697879c55c323f34d0","6796e1c0ff24ca17c453c51c","67c7245cb00787c48a2edaec","passed","","","","","","","","","","","","","","","","","ballFalling","604.4000000000001","650.0211431702996","404.58000000000004","11","fallScene","false","","","","","70","",""
"","","","","","html-keyboard-response","220","765799","0.0-20.0-1.21","6400e3697879c55c323f34d0","6796e1c0ff24ca17c453c51c","67c7245cb00787c48a2edaec","passed","","1826","","","","","","","","","","","","","","j","yesOrNo","","","","11","","","gt","3000","","","70","650.0211431702996","404.58"
"","","","","","html-keyboard-response","221","767349","0.0-20.0-0.22","6400e3697879c55c323f34d0","6796e1c0ff24ca17c453c51c","67c7245cb00787c48a2edaec","passed","","","","","","","","","","","","","","","","","ballFalling","604.4000000000001","575.4211431702997","266.76","12","fallScene","false","","","","","71","",""
"","","","","","html-keyboard-response","222","770355","0.0-20.0-1.22","6400e3697879c55c323f34d0","6796e1c0ff24ca17c453c51c","67c7245cb00787c48a2edaec","passed","","833","","","","","","","","","","","","","","j","yesOrNo","","","","12","","","gt","3000","","","71","575.4211431702997","266.76"
"","","","","","html-keyboard-response","223","771921","0.0-20.0-0.23","6400e3697879c55c323f34d0","6796e1c0ff24ca17c453c51c","67c7245cb00787c48a2edaec","passed","","","","","","","","","","","","","","","","","ballFalling","322.3","379.3711431702997","245.25","1","fallScene","true","","","","","72","",""
"","","","","","html-keyboard-response","224","774928","0.0-20.0-1.23","6400e3697879c55c323f34d0","6796e1c0ff24ca17c453c51c","67c7245cb00787c48a2edaec","passed","","1070","","","","","","","","","","","","","","j","yesOrNo","","","","1","","","mid","3000","","","72","390.27114317029975","300"
"","","","","","html-keyboard-response","225","777574","0.0-21.0","6400e3697879c55c323f34d0","6796e1c0ff24ca17c453c51c","67c7245cb00787c48a2edaec","passed","","2645","","","","","","","","","","","","","<p><span style=""font-size:40px;"">BLOCK 4</span></p><p><span style=""font-size:25px;"">You have <b style=""color: #FF644F;""><strong>3 second(s)</strong></b> to respond to the following trials.</span><br></p><p></p> <!-- Blank line -->
                <p id=""blinking-text"" style=""font-weight; animation: blink 2s infinite;"">Press Space to continue</p>
                <style>
                    @keyframes blink {
                        50% {
                            opacity: 0;
                        }
                    }
                </style></p>"," ","","","","","","","","","","","","","",""
"","","","","","html-keyboard-response","226","779161","0.0-22.0-0.0","6400e3697879c55c323f34d0","6796e1c0ff24ca17c453c51c","67c7245cb00787c48a2edaec","passed","","","","","","","","","","","","","","","","","ballFalling","500","553.4711431702997","282.51","7","fallScene","false","","","","","73","",""
"","","","","","html-keyboard-response","227","782167","0.0-22.0-1.0","6400e3697879c55c323f34d0","6796e1c0ff24ca17c453c51c","67c7245cb00787c48a2edaec","passed","","2250","","","","","","","","","","","","","","f","yesOrNo","","","","7","","","lp","3000","","","73","501","227.2843295913261"
"","","","","","html-keyboard-response","228","784174","0.0-22.0-0.1","6400e3697879c55c323f34d0","6796e1c0ff24ca17c453c51c","67c7245cb00787c48a2edaec","passed","","","","","","","","","","","","","","","","","ballFalling","604.4000000000001","596.8711431702998","394.5","10","fallScene","false","","","","","74","",""
"","","","","","html-keyboard-response","229","787188","0.0-22.0-1.1","6400e3697879c55c323f34d0","6796e1c0ff24ca17c453c51c","67c7245cb00787c48a2edaec","passed","","1093","","","","","","","","","","","","","","j","yesOrNo","","","","10","","","gt","3000","","","74","596.8711431702998","394.5"
"","","","","","html-keyboard-response","230","788687","0.0-22.0-0.2","6400e3697879c55c323f34d0","6796e1c0ff24ca17c453c51c","67c7245cb00787c48a2edaec","passed","","","","","","","","","","","","","","","","","ballFalling","604.4000000000001","667.6211431702998","201.78","9","fallScene","true","","","","","75","",""
"","","","","","html-keyboard-response","231","791693","0.0-22.0-1.2","6400e3697879c55c323f34d0","6796e1c0ff24ca17c453c51c","67c7245cb00787c48a2edaec","passed","","1083","","","","","","","","","","","","","","j","yesOrNo","","","","9","","","gt","3000","","","75","667.6211431702998","201.78"
"","","","","","html-keyboard-response","232","793259","0.0-22.0-0.3","6400e3697879c55c323f34d0","6796e1c0ff24ca17c453c51c","67c7245cb00787c48a2edaec","passed","","","","","","","","","","","","","","","","","ballFalling","322.3","356.42114317029973","357.87","4","fallScene","false","","","","","76","",""
"","","","","","html-keyboard-response","233","796264","0.0-22.0-1.3","6400e3697879c55c323f34d0","6796e1c0ff24ca17c453c51c","67c7245cb00787c48a2edaec","passed","","799","","","","","","","","","","","","","","j","yesOrNo","","","","4","","","mid","3000","","","76","390.27114317029975","300"
"","","","","","html-keyboard-response","234","798282","0.0-22.0-0.4","6400e3697879c55c323f34d0","6796e1c0ff24ca17c453c51c","67c7245cb00787c48a2edaec","passed","","","","","","","","","","","","","","","","","ballFalling","500","510.8711431702997","369.03","8","fallScene","false","","","","","77","",""
"","","","","","html-keyboard-response","235","801291","0.0-22.0-1.4","6400e3697879c55c323f34d0","6796e1c0ff24ca17c453c51c","67c7245cb00787c48a2edaec","passed","","1615","","","","","","","","","","","","","","f","yesOrNo","","","","8","","","mid","3000","","","77","501","300"
"","","","","","html-keyboard-response","236","802842","0.0-22.0-0.5","6400e3697879c55c323f34d0","6796e1c0ff24ca17c453c51c","67c7245cb00787c48a2edaec","passed","","","","","","","","","","","","","","","","","ballFalling","322.3","379.3711431702997","245.25","1","fallScene","true","","","","","78","",""
"","","","","","html-keyboard-response","237","805858","0.0-22.0-1.5","6400e3697879c55c323f34d0","6796e1c0ff24ca17c453c51c","67c7245cb00787c48a2edaec","passed","","991","","","","","","","","","","","","","","f","yesOrNo","","","","1","","","lp","3000","","","78","323.3","217.74551669457017"
"","","","","","html-keyboard-response","238","807347","0.0-22.0-0.6","6400e3697879c55c323f34d0","6796e1c0ff24ca17c453c51c","67c7245cb00787c48a2edaec","passed","","","","","","","","","","","","","","","","","ballFalling","604.4000000000001","667.6211431702998","201.78","9","fallScene","true","","","","","79","",""
"","","","","","html-keyboard-response","239","810360","0.0-22.0-1.6","6400e3697879c55c323f34d0","6796e1c0ff24ca17c453c51c","67c7245cb00787c48a2edaec","passed","","1214","","","","","","","","","","","","","","f","yesOrNo","","","","9","","","mid","3000","","","79","605.4000000000001","300"
"","","","","","html-keyboard-response","240","811928","0.0-22.0-0.7","6400e3697879c55c323f34d0","6796e1c0ff24ca17c453c51c","67c7245cb00787c48a2edaec","passed","","","","","","","","","","","","","","","","","ballFalling","604.4000000000001","575.4211431702997","266.76","12","fallScene","false","","","","","80","",""
"","","","","","html-keyboard-response","241","814933","0.0-22.0-1.7","6400e3697879c55c323f34d0","6796e1c0ff24ca17c453c51c","67c7245cb00787c48a2edaec","passed","","616","","","","","","","","","","","","","","j","yesOrNo","","","","12","","","mid","3000","","","80","536.4288568297004","300"
"","","","","","html-keyboard-response","242","816949","0.0-22.0-0.8","6400e3697879c55c323f34d0","6796e1c0ff24ca17c453c51c","67c7245cb00787c48a2edaec","passed","","","","","","","","","","","","","","","","","ballFalling","500","510.8711431702997","369.03","8","fallScene","false","","","","","81","",""
"","","","","","html-keyboard-response","243","819955","0.0-22.0-1.8","6400e3697879c55c323f34d0","6796e1c0ff24ca17c453c51c","67c7245cb00787c48a2edaec","passed","","1203","","","","","","","","","","","","","","f","yesOrNo","","","","8","","","gt","3000","","","81","510.8711431702997","369.03"
"","","","","","html-keyboard-response","244","821945","0.0-22.0-0.9","6400e3697879c55c323f34d0","6796e1c0ff24ca17c453c51c","67c7245cb00787c48a2edaec","passed","","","","","","","","","","","","","","","","","ballFalling","604.4000000000001","596.8711431702998","394.5","10","fallScene","true","","","","","82","",""
"","","","","","html-keyboard-response","245","824960","0.0-22.0-1.9","6400e3697879c55c323f34d0","6796e1c0ff24ca17c453c51c","67c7245cb00787c48a2edaec","passed","","2079","","","","","","","","","","","","","","j","yesOrNo","","","","10","","","gt","3000","","","82","596.8711431702998","394.5"
"","","","","","html-keyboard-response","246","826459","0.0-22.0-0.10","6400e3697879c55c323f34d0","6796e1c0ff24ca17c453c51c","67c7245cb00787c48a2edaec","passed","","","","","","","","","","","","","","","","","ballFalling","604.4000000000001","667.6211431702998","201.78","9","fallScene","true","","","","","83","",""
"","","","","","html-keyboard-response","247","829469","0.0-22.0-1.10","6400e3697879c55c323f34d0","6796e1c0ff24ca17c453c51c","67c7245cb00787c48a2edaec","passed","","2233","","","","","","","","","","","","","","j","yesOrNo","","","","9","","","mid","3000","","","83","605.4000000000001","300"
"","","","","","html-keyboard-response","248","831033","0.0-22.0-0.11","6400e3697879c55c323f34d0","6796e1c0ff24ca17c453c51c","67c7245cb00787c48a2edaec","passed","","","","","","","","","","","","","","","","","ballFalling","500","453.67114317029973","210.33","5","fallScene","false","","","","","84","",""
"","","","","","html-keyboard-response","249","834053","0.0-22.0-1.11","6400e3697879c55c323f34d0","6796e1c0ff24ca17c453c51c","67c7245cb00787c48a2edaec","passed","","1163","","","","","","","","","","","","","","j","yesOrNo","","","","5","","","mid","3000","","","84","499","300"
"","","","","","html-keyboard-response","250","835618","0.0-22.0-0.12","6400e3697879c55c323f34d0","6796e1c0ff24ca17c453c51c","67c7245cb00787c48a2edaec","passed","","","","","","","","","","","","","","","","","ballFalling","604.4000000000001","575.4211431702997","266.76","12","fallScene","true","","","","","85","",""
"","","","","","html-keyboard-response","251","838639","0.0-22.0-1.12","6400e3697879c55c323f34d0","6796e1c0ff24ca17c453c51c","67c7245cb00787c48a2edaec","passed","","1048","","","","","","","","","","","","","","j","yesOrNo","","","","12","","","gt","3000","","","85","575.4211431702997","266.76"
"","","","","","html-keyboard-response","252","840197","0.0-22.0-0.13","6400e3697879c55c323f34d0","6796e1c0ff24ca17c453c51c","67c7245cb00787c48a2edaec","passed","","","","","","","","","","","","","","","","","ballFalling","604.4000000000001","650.0211431702996","404.58000000000004","11","fallScene","false","","","","","86","",""
"","","","","","html-keyboard-response","253","843211","0.0-22.0-1.13","6400e3697879c55c323f34d0","6796e1c0ff24ca17c453c51c","67c7245cb00787c48a2edaec","passed","","1748","","","","","","","","","","","","","","f","yesOrNo","","","","11","","","mid","3000","","","86","605.4000000000001","300"
"","","","","","html-keyboard-response","254","844761","0.0-22.0-0.14","6400e3697879c55c323f34d0","6796e1c0ff24ca17c453c51c","67c7245cb00787c48a2edaec","passed","","","","","","","","","","","","","","","","","ballFalling","322.3","296.07114317029976","371.46","3","fallScene","true","","","","","87","",""
"","","","","","html-keyboard-response","255","847771","0.0-22.0-1.14","6400e3697879c55c323f34d0","6796e1c0ff24ca17c453c51c","67c7245cb00787c48a2edaec","passed","","2037","","","","","","","","","","","","","","j","yesOrNo","","","","3","","","lp","3000","","","87","321.3","287.3327096511259"
"","","","","","html-keyboard-response","256","849416","0.0-22.0-0.15","6400e3697879c55c323f34d0","6796e1c0ff24ca17c453c51c","67c7245cb00787c48a2edaec","passed","","","","","","","","","","","","","","","","","ballFalling","500","479.92114317029973","330.87","6","fallScene","false","","","","","88","",""
"","","","","","html-keyboard-response","257","852424","0.0-22.0-1.15","6400e3697879c55c323f34d0","6796e1c0ff24ca17c453c51c","67c7245cb00787c48a2edaec","passed","","871","","","","","","","","","","","","","","j","yesOrNo","","","","6","","","gt","3000","","","88","479.9211431702998","330.87"
"","","","","","html-keyboard-response","258","854204","0.0-22.0-0.16","6400e3697879c55c323f34d0","6796e1c0ff24ca17c453c51c","67c7245cb00787c48a2edaec","passed","","","","","","","","","","","","","","","","","ballFalling","322.3","308.07114317029976","253.89","2","fallScene","false","","","","","89","",""
"","","","","","html-keyboard-response","259","857213","0.0-22.0-1.16","6400e3697879c55c323f34d0","6796e1c0ff24ca17c453c51c","67c7245cb00787c48a2edaec","passed","","1081","","","","","","","","","","","","","","j","yesOrNo","","","","2","","","mid","3000","","","89","321.3","300"
"","","","","","html-keyboard-response","260","858775","0.0-22.0-0.17","6400e3697879c55c323f34d0","6796e1c0ff24ca17c453c51c","67c7245cb00787c48a2edaec","passed","","","","","","","","","","","","","","","","","ballFalling","500","453.67114317029973","210.33","5","fallScene","true","","","","","90","",""
"","","","","","html-keyboard-response","261","861796","0.0-22.0-1.17","6400e3697879c55c323f34d0","6796e1c0ff24ca17c453c51c","67c7245cb00787c48a2edaec","passed","","799","","","","","","","","","","","","","","j","yesOrNo","","","","5","","","gt","3000","","","90","453.6711431702998","210.33"
"","","","","","html-keyboard-response","262","863362","0.0-22.0-0.18","6400e3697879c55c323f34d0","6796e1c0ff24ca17c453c51c","67c7245cb00787c48a2edaec","passed","","","","","","","","","","","","","","","","","ballFalling","322.3","356.42114317029973","357.87","4","fallScene","true","","","","","91","",""
"","","","","","html-keyboard-response","263","866372","0.0-22.0-1.18","6400e3697879c55c323f34d0","6796e1c0ff24ca17c453c51c","67c7245cb00787c48a2edaec","passed","","717","","","","","","","","","","","","","","j","yesOrNo","","","","4","","","gt","3000","","","91","356.42114317029973","357.87"
"","","","","","html-keyboard-response","264","867934","0.0-22.0-0.19","6400e3697879c55c323f34d0","6796e1c0ff24ca17c453c51c","67c7245cb00787c48a2edaec","passed","","","","","","","","","","","","","","","","","ballFalling","322.3","296.07114317029976","371.46","3","fallScene","true","","","","","92","",""
"","","","","","html-keyboard-response","265","870943","0.0-22.0-1.19","6400e3697879c55c323f34d0","6796e1c0ff24ca17c453c51c","67c7245cb00787c48a2edaec","passed","","964","","","","","","","","","","","","","","f","yesOrNo","","","","3","","","mid","3000","","","92","321.3","300"
"","","","","","html-keyboard-response","266","872505","0.0-22.0-0.20","6400e3697879c55c323f34d0","6796e1c0ff24ca17c453c51c","67c7245cb00787c48a2edaec","passed","","","","","","","","","","","","","","","","","ballFalling","322.3","356.42114317029973","357.87","4","fallScene","true","","","","","93","",""
"","","","","","html-keyboard-response","267","875514","0.0-22.0-1.20","6400e3697879c55c323f34d0","6796e1c0ff24ca17c453c51c","67c7245cb00787c48a2edaec","passed","","1883","","","","","","","","","","","","","","j","yesOrNo","","","","4","","","lp","3000","","","93","323.3","297.4070551689986"
"","","","","","html-keyboard-response","268","877310","0.0-22.0-0.21","6400e3697879c55c323f34d0","6796e1c0ff24ca17c453c51c","67c7245cb00787c48a2edaec","passed","","","","","","","","","","","","","","","","","ballFalling","322.3","308.07114317029976","253.89","2","fallScene","false","","","","","94","",""
"","","","","","html-keyboard-response","269","880320","0.0-22.0-1.21","6400e3697879c55c323f34d0","6796e1c0ff24ca17c453c51c","67c7245cb00787c48a2edaec","passed","","786","","","","","","","","","","","","","","f","yesOrNo","","","","2","","","mid","3000","","","94","321.3","300"
"","","","","","html-keyboard-response","270","881972","0.0-22.0-0.22","6400e3697879c55c323f34d0","6796e1c0ff24ca17c453c51c","67c7245cb00787c48a2edaec","passed","","","","","","","","","","","","","","","","","ballFalling","500","479.92114317029973","330.87","6","fallScene","false","","","","","95","",""
"","","","","","html-keyboard-response","271","884987","0.0-22.0-1.22","6400e3697879c55c323f34d0","6796e1c0ff24ca17c453c51c","67c7245cb00787c48a2edaec","passed","","894","","","","","","","","","","","","","","f","yesOrNo","","","","6","","","mid","3000","","","95","499","300"
"","","","","","html-keyboard-response","272","886552","0.0-22.0-0.23","6400e3697879c55c323f34d0","6796e1c0ff24ca17c453c51c","67c7245cb00787c48a2edaec","passed","","","","","","","","","","","","","","","","","ballFalling","604.4000000000001","650.0211431702996","404.58000000000004","11","fallScene","false","","","","","96","",""
"","","","","","html-keyboard-response","273","889562","0.0-22.0-1.23","6400e3697879c55c323f34d0","6796e1c0ff24ca17c453c51c","67c7245cb00787c48a2edaec","passed","","948","","","","","","","","","","","","","","j","yesOrNo","","","","11","","","gt","3000","","","96","650.0211431702996","404.58"
"","","","","","html-keyboard-response","274","901421","0.0-23.0","6400e3697879c55c323f34d0","6796e1c0ff24ca17c453c51c","67c7245cb00787c48a2edaec","passed","","11858","","","","","","","","","","","","","<p><span style=""font-size:40px;"">BLOCK 5</span></p><p><span style=""font-size:25px;"">You have <b style=""color: #FF644F;""><strong>3 second(s)</strong></b> to respond to the following trials.</span><br></p><p></p> <!-- Blank line -->
                <p id=""blinking-text"" style=""font-weight; animation: blink 2s infinite;"">Press Space to continue</p>
                <style>
                    @keyframes blink {
                        50% {
                            opacity: 0;
                        }
                    }
                </style></p>"," ","","","","","","","","","","","","","",""
"","","","","","html-keyboard-response","275","902992","0.0-24.0-0.0","6400e3697879c55c323f34d0","6796e1c0ff24ca17c453c51c","67c7245cb00787c48a2edaec","passed","","","","","","","","","","","","","","","","","ballFalling","500","553.4711431702997","282.51","7","fallScene","true","","","","","97","",""
"","","","","","html-keyboard-response","276","906007","0.0-24.0-1.0","6400e3697879c55c323f34d0","6796e1c0ff24ca17c453c51c","67c7245cb00787c48a2edaec","passed","","858","","","","","","","","","","","","","","j","yesOrNo","","","","7","","","gt","3000","","","97","553.4711431702997","282.51"
"","","","","","html-keyboard-response","277","907573","0.0-24.0-0.1","6400e3697879c55c323f34d0","6796e1c0ff24ca17c453c51c","67c7245cb00787c48a2edaec","passed","","","","","","","","","","","","","","","","","ballFalling","322.3","379.3711431702997","245.25","1","fallScene","true","","","","","98","",""
"","","","","","html-keyboard-response","278","910584","0.0-24.0-1.1","6400e3697879c55c323f34d0","6796e1c0ff24ca17c453c51c","67c7245cb00787c48a2edaec","passed","","603","","","","","","","","","","","","","","j","yesOrNo","","","","1","","","mid","3000","","","98","390.27114317029975","300"
"","","","","","html-keyboard-response","279","912378","0.0-24.0-0.2","6400e3697879c55c323f34d0","6796e1c0ff24ca17c453c51c","67c7245cb00787c48a2edaec","passed","","","","","","","","","","","","","","","","","ballFalling","322.3","308.07114317029976","253.89","2","fallScene","false","","","","","99","",""
"","","","","","html-keyboard-response","280","915398","0.0-24.0-1.2","6400e3697879c55c323f34d0","6796e1c0ff24ca17c453c51c","67c7245cb00787c48a2edaec","passed","","1431","","","","","","","","","","","","","","j","yesOrNo","","","","2","","","gt","3000","","","99","308.07114317029976","253.89"
"","","","","","html-keyboard-response","281","916956","0.0-24.0-0.3","6400e3697879c55c323f34d0","6796e1c0ff24ca17c453c51c","67c7245cb00787c48a2edaec","passed","","","","","","","","","","","","","","","","","ballFalling","604.4000000000001","650.0211431702996","404.58000000000004","11","fallScene","false","","","","","100","",""
"","","","","","html-keyboard-response","282","919971","0.0-24.0-1.3","6400e3697879c55c323f34d0","6796e1c0ff24ca17c453c51c","67c7245cb00787c48a2edaec","passed","","2292","","","","","","","","","","","","","","j","yesOrNo","","","","11","","","lp","3000","","","100","605.4000000000001","372.6340973215488"
"","","","","","html-keyboard-response","283","921537","0.0-24.0-0.4","6400e3697879c55c323f34d0","6796e1c0ff24ca17c453c51c","67c7245cb00787c48a2edaec","passed","","","","","","","","","","","","","","","","","ballFalling","500","453.67114317029973","210.33","5","fallScene","true","","","","","101","",""
"","","","","","html-keyboard-response","284","924546","0.0-24.0-1.4","6400e3697879c55c323f34d0","6796e1c0ff24ca17c453c51c","67c7245cb00787c48a2edaec","passed","","830","","","","","","","","","","","","","","j","yesOrNo","","","","5","","","gt","3000","","","101","453.6711431702998","210.33"
"","","","","","html-keyboard-response","285","926109","0.0-24.0-0.5","6400e3697879c55c323f34d0","6796e1c0ff24ca17c453c51c","67c7245cb00787c48a2edaec","passed","","","","","","","","","","","","","","","","","ballFalling","500","453.67114317029973","210.33","5","fallScene","true","","","","","102","",""
"","","","","","html-keyboard-response","286","929119","0.0-24.0-1.5","6400e3697879c55c323f34d0","6796e1c0ff24ca17c453c51c","67c7245cb00787c48a2edaec","passed","","1139","","","","","","","","","","","","","","f","yesOrNo","","","","5","","","lp","3000","","","102","499","151"
"","","","","","html-keyboard-response","287","930696","0.0-24.0-0.6","6400e3697879c55c323f34d0","6796e1c0ff24ca17c453c51c","67c7245cb00787c48a2edaec","passed","","","","","","","","","","","","","","","","","ballFalling","500","553.4711431702997","282.51","7","fallScene","false","","","","","103","",""
"","","","","","html-keyboard-response","288","933702","0.0-24.0-1.6","6400e3697879c55c323f34d0","6796e1c0ff24ca17c453c51c","67c7245cb00787c48a2edaec","passed","","801","","","","","","","","","","","","","","j","yesOrNo","","","","7","","","gt","3000","","","103","553.4711431702997","282.51"
"","","","","","html-keyboard-response","289","935709","0.0-24.0-0.7","6400e3697879c55c323f34d0","6796e1c0ff24ca17c453c51c","67c7245cb00787c48a2edaec","passed","","","","","","","","","","","","","","","","","ballFalling","604.4000000000001","596.8711431702998","394.5","10","fallScene","false","","","","","104","",""
"","","","","","html-keyboard-response","290","938722","0.0-24.0-1.7","6400e3697879c55c323f34d0","6796e1c0ff24ca17c453c51c","67c7245cb00787c48a2edaec","passed","","691","","","","","","","","","","","","","","j","yesOrNo","","","","10","","","mid","3000","","","104","536.4288568297004","300"
"","","","","","html-keyboard-response","291","940280","0.0-24.0-0.8","6400e3697879c55c323f34d0","6796e1c0ff24ca17c453c51c","67c7245cb00787c48a2edaec","passed","","","","","","","","","","","","","","","","","ballFalling","604.4000000000001","650.0211431702996","404.58000000000004","11","fallScene","false","","","","","105","",""
"","","","","","html-keyboard-response","292","943294","0.0-24.0-1.8","6400e3697879c55c323f34d0","6796e1c0ff24ca17c453c51c","67c7245cb00787c48a2edaec","passed","","1212","","","","","","","","","","","","","","f","yesOrNo","","","","11","","","lp","3000","","","105","605.4000000000001","372.6340973215488"
"","","","","","html-keyboard-response","293","944861","0.0-24.0-0.9","6400e3697879c55c323f34d0","6796e1c0ff24ca17c453c51c","67c7245cb00787c48a2edaec","passed","","","","","","","","","","","","","","","","","ballFalling","604.4000000000001","575.4211431702997","266.76","12","fallScene","true","","","","","106","",""
"","","","","","html-keyboard-response","294","947870","0.0-24.0-1.9","6400e3697879c55c323f34d0","6796e1c0ff24ca17c453c51c","67c7245cb00787c48a2edaec","passed","","930","","","","","","","","","","","","","","f","yesOrNo","","","","12","","","lp","3000","","","106","603.4000000000001","151"
"","","","","","html-keyboard-response","295","949432","0.0-24.0-0.10","6400e3697879c55c323f34d0","6796e1c0ff24ca17c453c51c","67c7245cb00787c48a2edaec","passed","","","","","","","","","","","","","","","","","ballFalling","604.4000000000001","650.0211431702996","404.58000000000004","11","fallScene","false","","","","","107","",""
"","","","","","html-keyboard-response","296","952441","0.0-24.0-1.10","6400e3697879c55c323f34d0","6796e1c0ff24ca17c453c51c","67c7245cb00787c48a2edaec","passed","","829","","","","","","","","","","","","","","f","yesOrNo","","","","11","","","mid","3000","","","107","605.4000000000001","300"
"","","","","","html-keyboard-response","297","954003","0.0-24.0-0.11","6400e3697879c55c323f34d0","6796e1c0ff24ca17c453c51c","67c7245cb00787c48a2edaec","passed","","","","","","","","","","","","","","","","","ballFalling","322.3","296.07114317029976","371.46","3","fallScene","false","","","","","108","",""
"","","","","","html-keyboard-response","298","957013","0.0-24.0-1.11","6400e3697879c55c323f34d0","6796e1c0ff24ca17c453c51c","67c7245cb00787c48a2edaec","passed","","947","","","","","","","","","","","","","","j","yesOrNo","","","","3","","","gt","3000","","","108","296.07114317029976","371.46"
"","","","","","html-keyboard-response","299","958575","0.0-24.0-0.12","6400e3697879c55c323f34d0","6796e1c0ff24ca17c453c51c","67c7245cb00787c48a2edaec","passed","","","","","","","","","","","","","","","","","ballFalling","322.3","356.42114317029973","357.87","4","fallScene","true","","","","","109","",""
"","","","","","html-keyboard-response","300","961595","0.0-24.0-1.12","6400e3697879c55c323f34d0","6796e1c0ff24ca17c453c51c","67c7245cb00787c48a2edaec","passed","","781","","","","","","","","","","","","","","j","yesOrNo","","","","4","","","gt","3000","","","109","356.42114317029973","357.87"
