"success","timeout","failed_images","failed_audio","failed_video","trial_type","trial_index","time_elapsed","internal_node_id","subject_id","study_id","session_id","practiceTestResult","view_history","rt","width","height","webaudio","browser","browser_version","mobile","os","fullscreen","vsync_rate","webcam","microphone","url","stimulus","response","task","ball_X","obstacle_groundTruth_x","obstacle_groundTruth_y","stimulus_idx","trial_name","flipped","choice","timeLimit","question_order","currentTrial","obstacle_choice_x","obstacle_choice_y"
"true","false","[]","[]","[]","preload","0","158","0.0-0.0","652ebf9490189b8b57f1ce35","6796e1c0ff24ca17c453c51c","67c71ac70ca87dc786b3dd21","passed","","","","","","","","","","","","","","","","","","","","","","","","","","","","",""
"","","","","","instructions","1","24110","0.0-1.0","652ebf9490189b8b57f1ce35","6796e1c0ff24ca17c453c51c","67c71ac70ca87dc786b3dd21","passed","[{""page_index"":0,""viewing_time"":23951}]","23952","","","","","","","","","","","","","","","","","","","","","","","","","","",""
"","","","","","browser-check","2","24471","0.0-2.0","652ebf9490189b8b57f1ce35","6796e1c0ff24ca17c453c51c","67c71ac70ca87dc786b3dd21","passed","","","2048","1064","true","chrome","133.0.0","false","Windows 10","true","166.76","false","true","","","","","","","","","","","","","","","",""
"","","","","","external-html","3","76522","0.0-3.0","652ebf9490189b8b57f1ce35","6796e1c0ff24ca17c453c51c","67c71ac70ca87dc786b3dd21","passed","","51972","","","","","","","","","","","","consent.html","","","","","","","","","","","","","","",""
"true","","","","","fullscreen","4","87377","0.0-4.0","652ebf9490189b8b57f1ce35","6796e1c0ff24ca17c453c51c","67c71ac70ca87dc786b3dd21","passed","","10553","","","","","","","","","","","","","","","","","","","","","","","","","","",""
"","","","","","browser-check","5","87747","0.0-5.0","652ebf9490189b8b57f1ce35","6796e1c0ff24ca17c453c51c","67c71ac70ca87dc786b3dd21","passed","","","2048","1152","true","chrome","133.0.0","false","Windows 10","true","164.97","false","true","","","","","","","","","","","","","","","",""
"","","","","","html-keyboard-response","6","91557","0.0-6.0","652ebf9490189b8b57f1ce35","6796e1c0ff24ca17c453c51c","67c71ac70ca87dc786b3dd21","passed","","3810","","","","","","","","","","","","","<p><b>This experiment requires keyboard input.</b></p> 
        <p><b>To ensure your response will be recorded successfully, please press 'Space' to continue.</b></p>
        <p>If you can't proceed, you won't be able to complete this study.</p>
        <p></p> <!-- Blank line -->
        <p id=""blinking-text"" style=""font-weight; animation: blink 2s infinite;"">Press Space to continue</p>
        <style>
            @keyframes blink {
                50% {
                    opacity: 0;
                }
            }
        </style>"," ","","","","","","","","","","","","",""
"","","","","","html-keyboard-response","7","93629","0.0-7.0","652ebf9490189b8b57f1ce35","6796e1c0ff24ca17c453c51c","67c71ac70ca87dc786b3dd21","passed","","2072","","","","","","","","","","","","","<p><b>This experiment requires keyboard input.</b></p> 
        <p><b>To ensure your response will be recorded successfully, please press the 'f' key to continue.</b></p>
        <p>If you can't proceed, you won't be able to complete this study.</p>
        <p></p> <!-- Blank line -->
        <p id=""blinking-text"" style=""font-weight; animation: blink 2s infinite;"">Press f to continue</p>
        <style>
            @keyframes blink {
                50% {
                    opacity: 0;
                }
            }
        </style>","f","","","","","","","","","","","","",""
"","","","","","html-keyboard-response","8","94759","0.0-8.0","652ebf9490189b8b57f1ce35","6796e1c0ff24ca17c453c51c","67c71ac70ca87dc786b3dd21","passed","","1130","","","","","","","","","","","","","<p><b>This experiment requires keyboard input.</b></p> 
        <p><b>To ensure your response will be recorded successfully, please press the 'j' key to continue.</b></p>
        <p>If you can't proceed, you won't be able to complete this study.</p>
        <p></p> <!-- Blank line -->
        <p id=""blinking-text"" style=""font-weight; animation: blink 2s infinite;"">Press j to continue</p>
        <style>
            @keyframes blink {
                50% {
                    opacity: 0;
                }
            }
        </style>","j","","","","","","","","","","","","",""
"","","","","","browser-check","9","95124","0.0-9.0","652ebf9490189b8b57f1ce35","6796e1c0ff24ca17c453c51c","67c71ac70ca87dc786b3dd21","passed","","","2048","1152","true","chrome","133.0.0","false","Windows 10","true","164.93","false","true","","","","","","","","","","","","","","","",""
"","","","","","survey-text","10","102105","0.0-10.0","652ebf9490189b8b57f1ce35","6796e1c0ff24ca17c453c51c","67c71ac70ca87dc786b3dd21","passed","","6979","","","","","","","","","","","","","","{""prolificID"":""652ebf9490189b8b57f1ce35""}","","","","","","","","","","","","",""
"","","","","","instructions","11","187319","0.0-11.0-0.0-0.0","652ebf9490189b8b57f1ce35","6796e1c0ff24ca17c453c51c","67c71ac70ca87dc786b3dd21","passed","[{""page_index"":0,""viewing_time"":42416},{""page_index"":1,""viewing_time"":17062},{""page_index"":2,""viewing_time"":10036},{""page_index"":3,""viewing_time"":15700}]","85214","","","","","","","","","","","","","","","","","","","","","","","","","","",""
"","","","","","html-keyboard-response","12","212907","0.0-11.0-0.0-1.0","652ebf9490189b8b57f1ce35","6796e1c0ff24ca17c453c51c","67c71ac70ca87dc786b3dd21","passed","","25086","","","","","","","","","","","","","<br>Remember! After a ball falls, the screen will disappear, and you'll decide if the proposed position is where the hidden triangle was. <br>You will now practice this by watching a few videos and making decisions.<p>To respond:<br style=""margin-bottom: 5px; text-indent: -20px; padding-left: 20px;"">- Press <b style=""color: #12AD2B;"">J for Yes</b>, if you think the triangle is in the correct position.<br style=""margin-top: 0; text-indent: -20px; padding-left: 20px;"">- Press <b style=""color: orange;"">F for No</b>, if you think the triangle is not in the correct position.</p><p>In this practice round, there is no time limit. Focus on getting comfortable with the task first.<br>Press either J or F to begin your practice trials.</p><img src = ""YesOrNo_instruction.png"" style=""width: 65%;""></img>","j","","","","","","","","","","","","",""
"","","","","","html-keyboard-response","13","214419","0.0-11.0-0.0-2.0-0.0","652ebf9490189b8b57f1ce35","6796e1c0ff24ca17c453c51c","67c71ac70ca87dc786b3dd21","passed","","","","","","","","","","","","","","","","","ballFalling_prac","441","414","302","5","fallScene","true","","","","","",""
"","","","","","html-keyboard-response","14","215088","0.0-11.0-0.0-2.0-1.0","652ebf9490189b8b57f1ce35","6796e1c0ff24ca17c453c51c","67c71ac70ca87dc786b3dd21","passed","","667","","","","","","","","","","","","","","f","yesOrNo_prac_noTimed","","","","5","","","close gt","NA","","","",""
"","","","","","html-keyboard-response","15","217195","0.0-11.0-0.0-2.0-0.1","652ebf9490189b8b57f1ce35","6796e1c0ff24ca17c453c51c","67c71ac70ca87dc786b3dd21","passed","","","","","","","","","","","","","","","","","ballFalling_prac","660","666","350","3","fallScene","false","","","","","",""
"","","","","","html-keyboard-response","16","218483","0.0-11.0-0.0-2.0-1.1","652ebf9490189b8b57f1ce35","6796e1c0ff24ca17c453c51c","67c71ac70ca87dc786b3dd21","passed","","1287","","","","","","","","","","","","","","j","yesOrNo_prac_noTimed","","","","3","","","wrong direction","NA","","","",""
"","","","","","html-keyboard-response","17","220044","0.0-11.0-0.0-2.0-0.2","652ebf9490189b8b57f1ce35","6796e1c0ff24ca17c453c51c","67c71ac70ca87dc786b3dd21","passed","","","","","","","","","","","","","","","","","ballFalling_prac","416","464","296","1","fallScene","false","","","","","",""
"","","","","","html-keyboard-response","18","220831","0.0-11.0-0.0-2.0-1.2","652ebf9490189b8b57f1ce35","6796e1c0ff24ca17c453c51c","67c71ac70ca87dc786b3dd21","passed","","786","","","","","","","","","","","","","","j","yesOrNo_prac_noTimed","","","","1","","","gt","NA","","","",""
"","","","","","instructions","19","271083","0.0-11.0-0.0-3.0","652ebf9490189b8b57f1ce35","6796e1c0ff24ca17c453c51c","67c71ac70ca87dc786b3dd21","passed","[{""page_index"":0,""viewing_time"":29402},{""page_index"":1,""viewing_time"":20849}]","50252","","","","","","","","","","","","","","","","","","","","","","","","","","",""
"","","","","","html-button-response","20","275165","0.0-11.0-0.0-4.0","652ebf9490189b8b57f1ce35","6796e1c0ff24ca17c453c51c","67c71ac70ca87dc786b3dd21","passed","","3574","","","","","","","","","","","","","<p>To make sure you understood the task, we just have a <b>brief quiz</b> here.</p><p>If you need to review the instructions, click 'Previous'.</p><p>It's important to understand the task to do the study, so you have to pass the quiz to move to the study.</p>","1","","","","","","","","","","","","",""
"","","","","","survey-multi-choice","21","296905","0.0-11.0-1.0-0.0","652ebf9490189b8b57f1ce35","6796e1c0ff24ca17c453c51c","67c71ac70ca87dc786b3dd21","passed","","21740","","","","","","","","","","","","","","{""generalProcedure"":""Watch a video of a ball falling, some of it behind a gray screen. After each video, decide if the triangle is at the spot where the ball hit the triangle behind the screen. There is time limit for the response.""}","","","","","","","","","","[0]","","",""
"","","","","","survey-multi-choice","22","301547","0.0-11.0-1.0-1.0","652ebf9490189b8b57f1ce35","6796e1c0ff24ca17c453c51c","67c71ac70ca87dc786b3dd21","passed","","4642","","","","","","","","","","","","","","{""checkBallHitObstacle"":""Yes.""}","","","","","","","","","","[0]","","",""
"","","","","","survey-multi-choice","23","310328","0.0-11.0-1.0-2.0","652ebf9490189b8b57f1ce35","6796e1c0ff24ca17c453c51c","67c71ac70ca87dc786b3dd21","passed","","8780","","","","","","","","","","","","","","{""checkTriangleVisibility"":""No, the triangle is hidden behind the gray screen.""}","","","","","","","","","","[0]","","",""
"","","","","","survey-multi-choice","24","316077","0.0-11.0-1.0-3.0","652ebf9490189b8b57f1ce35","6796e1c0ff24ca17c453c51c","67c71ac70ca87dc786b3dd21","passed","","5749","","","","","","","","","","","","","","{""checkTimedResponse"":""Your response will not be recorded, and the trial will move to the next one.""}","","","","","","","","","","[0]","","",""
"","","","","","survey-multi-choice","25","324942","0.0-11.0-1.0-4.0","652ebf9490189b8b57f1ce35","6796e1c0ff24ca17c453c51c","67c71ac70ca87dc786b3dd21","passed","","8865","","","","","","","","","","","","","","{""checkTimeBlockNotice"":""At the beginning of each block.""}","","","","","","","","","","[0]","","",""
"","","","","","survey-multi-choice","26","331711","0.0-11.0-1.0-5.0","652ebf9490189b8b57f1ce35","6796e1c0ff24ca17c453c51c","67c71ac70ca87dc786b3dd21","passed","","6769","","","","","","","","","","","","","","{""checkTimeBlockSameness"":""Yes, the time limit is the same for all trials within a block.""}","","","","","","","","","","[0]","","",""
"","","","","","survey-multi-choice","27","347175","0.0-11.0-1.0-6.0","652ebf9490189b8b57f1ce35","6796e1c0ff24ca17c453c51c","67c71ac70ca87dc786b3dd21","passed","","15464","","","","","","","","","","","","","","{""checkTrianglePrecision"":""No. The proposed purple triangle is not in the correct position because it doesn't match the location of the white triangle exactly.""}","","","","","","","","","","[0]","","",""
"","","","","","instructions","28","375132","0.0-12.0","652ebf9490189b8b57f1ce35","6796e1c0ff24ca17c453c51c","67c71ac70ca87dc786b3dd21","passed","[{""page_index"":0,""viewing_time"":6634},{""page_index"":1,""viewing_time"":8329},{""page_index"":2,""viewing_time"":7698},{""page_index"":3,""viewing_time"":5296}]","27957","","","","","","","","","","","","","","","","","","","","","","","","","","",""
"","","","","","instructions","29","391170","0.0-13.0-0.0","652ebf9490189b8b57f1ce35","6796e1c0ff24ca17c453c51c","67c71ac70ca87dc786b3dd21","passed","[{""page_index"":0,""viewing_time"":16038}]","16038","","","","","","","","","","","","","","","","","","","","","","","","","","",""
"","","","","","html-keyboard-response","30","394827","0.0-13.0-1.0","652ebf9490189b8b57f1ce35","6796e1c0ff24ca17c453c51c","67c71ac70ca87dc786b3dd21","passed","","3656","","","","","","","","","","","","","<p><span style=""font-size:40px;"">Practice BLOCK 1</span></p><p><span style=""font-size:25px;"">You have <b style=""color: #FF644F;""><strong>3 second(s)</strong></b> to respond to the following trials.</span><br></p><p id=""blinking-text"" style=""font-weight; animation: blink 2s infinite;"">Press Space to continue</p><style>
                    @keyframes blink {
                        50% {
                            opacity: 0;
                        }
                    }
                </style>"," ","","","","","","","","","","","","",""
"","","","","","html-keyboard-response","31","396389","0.0-13.0-2.0-0.0","652ebf9490189b8b57f1ce35","6796e1c0ff24ca17c453c51c","67c71ac70ca87dc786b3dd21","passed","","","","","","","","","","","","","","","","","ballFalling_prac","416","464","296","1","fallScene","false","","","","","",""
"","","","","","html-keyboard-response","32","399393","0.0-13.0-2.0-1.0","652ebf9490189b8b57f1ce35","6796e1c0ff24ca17c453c51c","67c71ac70ca87dc786b3dd21","passed","","2229","","","","","","","","","","","","","","j","yesOrNo_prac","","","","1","","","far gt","3000","","","",""
"","","","","","html-keyboard-response","33","400965","0.0-13.0-2.0-0.1","652ebf9490189b8b57f1ce35","6796e1c0ff24ca17c453c51c","67c71ac70ca87dc786b3dd21","passed","","","","","","","","","","","","","","","","","ballFalling_prac","660","610","263","4","fallScene","false","","","","","",""
"","","","","","html-keyboard-response","34","403966","0.0-13.0-2.0-1.1","652ebf9490189b8b57f1ce35","6796e1c0ff24ca17c453c51c","67c71ac70ca87dc786b3dd21","passed","","1211","","","","","","","","","","","","","","j","yesOrNo_prac","","","","4","","","gt","3000","","","",""
"","","","","","html-keyboard-response","35","405530","0.0-13.0-2.0-0.2","652ebf9490189b8b57f1ce35","6796e1c0ff24ca17c453c51c","67c71ac70ca87dc786b3dd21","passed","","","","","","","","","","","","","","","","","ballFalling_prac","584","536","296","1","fallScene","true","","","","","",""
"","","","","","html-keyboard-response","36","408531","0.0-13.0-2.0-1.2","652ebf9490189b8b57f1ce35","6796e1c0ff24ca17c453c51c","67c71ac70ca87dc786b3dd21","passed","","856","","","","","","","","","","","","","","f","yesOrNo_prac","","","","1","","","close gt","3000","","","",""
"","","","","","html-keyboard-response","37","409774","0.0-13.0-3.0","652ebf9490189b8b57f1ce35","6796e1c0ff24ca17c453c51c","67c71ac70ca87dc786b3dd21","passed","","1243","","","","","","","","","","","","","<p><span style=""font-size:40px;"">Practice BLOCK 2</span></p><p><span style=""font-size:25px;"">You have <b style=""color: #FF644F;""><strong>0.7 second(s)</strong></b> to respond to the following trials.</span><br></p><p id=""blinking-text"" style=""font-weight; animation: blink 2s infinite;"">Press Space to continue</p><style>
                    @keyframes blink {
                        50% {
                            opacity: 0;
                        }
                    }
                </style>"," ","","","","","","","","","","","","",""
"","","","","","html-keyboard-response","38","411883","0.0-13.0-4.0-0.0","652ebf9490189b8b57f1ce35","6796e1c0ff24ca17c453c51c","67c71ac70ca87dc786b3dd21","passed","","","","","","","","","","","","","","","","","ballFalling_prac","340","334","350","3","fallScene","true","","","","","",""
"","","","","","html-keyboard-response","39","412586","0.0-13.0-4.0-1.0","652ebf9490189b8b57f1ce35","6796e1c0ff24ca17c453c51c","67c71ac70ca87dc786b3dd21","passed","","null","","","","","","","","","","","","","","null","yesOrNo_prac","","","","3","","","close gt","700","","","",""
"","","","","","html-keyboard-response","40","414144","0.0-13.0-4.0-0.1","652ebf9490189b8b57f1ce35","6796e1c0ff24ca17c453c51c","67c71ac70ca87dc786b3dd21","passed","","","","","","","","","","","","","","","","","ballFalling_prac","441","500","317","6","fallScene","true","","","","","",""
"","","","","","html-keyboard-response","41","414845","0.0-13.0-4.0-1.1","652ebf9490189b8b57f1ce35","6796e1c0ff24ca17c453c51c","67c71ac70ca87dc786b3dd21","passed","","516","","","","","","","","","","","","","","j","yesOrNo_prac","","","","6","","","gt","700","","","",""
"","","","","","html-keyboard-response","42","416417","0.0-13.0-4.0-0.2","652ebf9490189b8b57f1ce35","6796e1c0ff24ca17c453c51c","67c71ac70ca87dc786b3dd21","passed","","","","","","","","","","","","","","","","","ballFalling_prac","660","610","263","4","fallScene","false","","","","","",""
"","","","","","html-keyboard-response","43","417120","0.0-13.0-4.0-1.2","652ebf9490189b8b57f1ce35","6796e1c0ff24ca17c453c51c","67c71ac70ca87dc786b3dd21","passed","","371","","","","","","","","","","","","","","j","yesOrNo_prac","","","","4","","","far gt","700","","","",""
"","","","","","instructions","44","422279","0.0-13.0-5.0","652ebf9490189b8b57f1ce35","6796e1c0ff24ca17c453c51c","67c71ac70ca87dc786b3dd21","passed","[{""page_index"":0,""viewing_time"":5158}]","5159","","","","","","","","","","","","","","","","","","","","","","","","","","",""
"","","","","","html-keyboard-response","45","424682","0.0-13.0-6.0","652ebf9490189b8b57f1ce35","6796e1c0ff24ca17c453c51c","67c71ac70ca87dc786b3dd21","passed","","2402","","","","","","","","","","","","","<p><span style=""font-size:40px;"">Practice Test BLOCK 1</span></p><p><span style=""font-size:25px;"">You have <b style=""color: #FF644F;""><strong>0.7 second(s)</strong></b> to respond to the following trials.</span><br></p><p id=""blinking-text"" style=""font-weight; animation: blink 2s infinite;"">Press Space to continue</p><style>
                    @keyframes blink {
                        50% {
                            opacity: 0;
                        }
                    }
                </style>"," ","","","","","","","","","","","","",""
"","","","","","html-keyboard-response","46","426256","0.0-13.0-7.0-0.0","652ebf9490189b8b57f1ce35","6796e1c0ff24ca17c453c51c","67c71ac70ca87dc786b3dd21","passed","","","","","","","","","","","","","","","","","ballFalling_prac","559","586","302","5","fallScene","false","","","","","",""
"","","","","","html-keyboard-response","47","426959","0.0-13.0-7.0-1.0","652ebf9490189b8b57f1ce35","6796e1c0ff24ca17c453c51c","67c71ac70ca87dc786b3dd21","passed","","369","","","","","","","","","","","","","","j","yesOrNo_prac","","","","5","","","gt","700","","","",""
"","","","","","html-keyboard-response","48","428517","0.0-13.0-7.0-0.1","652ebf9490189b8b57f1ce35","6796e1c0ff24ca17c453c51c","67c71ac70ca87dc786b3dd21","passed","","","","","","","","","","","","","","","","","ballFalling_prac","441","500","317","6","fallScene","true","","","","","",""
"","","","","","html-keyboard-response","49","429220","0.0-13.0-7.0-1.1","652ebf9490189b8b57f1ce35","6796e1c0ff24ca17c453c51c","67c71ac70ca87dc786b3dd21","passed","","349","","","","","","","","","","","","","","j","yesOrNo_prac","","","","6","","","close gt","700","","","",""
"","","","","","html-keyboard-response","50","430790","0.0-13.0-7.0-0.2","652ebf9490189b8b57f1ce35","6796e1c0ff24ca17c453c51c","67c71ac70ca87dc786b3dd21","passed","","","","","","","","","","","","","","","","","ballFalling_prac","340","390","263","4","fallScene","true","","","","","",""
"","","","","","html-keyboard-response","51","431494","0.0-13.0-7.0-1.2","652ebf9490189b8b57f1ce35","6796e1c0ff24ca17c453c51c","67c71ac70ca87dc786b3dd21","passed","","376","","","","","","","","","","","","","","j","yesOrNo_prac","","","","4","","","far gt","700","","","",""
"","","","","","html-keyboard-response","52","432771","0.0-13.0-8.0","652ebf9490189b8b57f1ce35","6796e1c0ff24ca17c453c51c","67c71ac70ca87dc786b3dd21","passed","","1277","","","","","","","","","","","","","<p><span style=""font-size:40px;"">Practice Test BLOCK 2</span></p><p><span style=""font-size:25px;"">You have <b style=""color: #FF644F;""><strong>3 second(s)</strong></b> to respond to the following trials.</span><br></p><p id=""blinking-text"" style=""font-weight; animation: blink 2s infinite;"">Press Space to continue</p><style>
                    @keyframes blink {
                        50% {
                            opacity: 0;
                        }
                    }
                </style>"," ","","","","","","","","","","","","",""
"","","","","","html-keyboard-response","53","434343","0.0-13.0-9.0-0.0","652ebf9490189b8b57f1ce35","6796e1c0ff24ca17c453c51c","67c71ac70ca87dc786b3dd21","passed","","","","","","","","","","","","","","","","","ballFalling_prac","340","390","263","4","fallScene","true","","","","","",""
"","","","","","html-keyboard-response","54","437344","0.0-13.0-9.0-1.0","652ebf9490189b8b57f1ce35","6796e1c0ff24ca17c453c51c","67c71ac70ca87dc786b3dd21","passed","","385","","","","","","","","","","","","","","j","yesOrNo_prac","","","","4","","","close gt","3000","","","",""
"","","","","","html-keyboard-response","55","438920","0.0-13.0-9.0-0.1","652ebf9490189b8b57f1ce35","6796e1c0ff24ca17c453c51c","67c71ac70ca87dc786b3dd21","passed","","","","","","","","","","","","","","","","","ballFalling_prac","559","586","302","5","fallScene","false","","","","","",""
"","","","","","html-keyboard-response","56","441920","0.0-13.0-9.0-1.1","652ebf9490189b8b57f1ce35","6796e1c0ff24ca17c453c51c","67c71ac70ca87dc786b3dd21","passed","","759","","","","","","","","","","","","","","j","yesOrNo_prac","","","","5","","","far gt","3000","","","",""
"","","","","","html-keyboard-response","57","443496","0.0-13.0-9.0-0.2","652ebf9490189b8b57f1ce35","6796e1c0ff24ca17c453c51c","67c71ac70ca87dc786b3dd21","passed","","","","","","","","","","","","","","","","","ballFalling_prac","416","365","249","2","fallScene","false","","","","","",""
"","","","","","html-keyboard-response","58","446497","0.0-13.0-9.0-1.2","652ebf9490189b8b57f1ce35","6796e1c0ff24ca17c453c51c","67c71ac70ca87dc786b3dd21","passed","","796","","","","","","","","","","","","","","f","yesOrNo_prac","","","","2","","","gt","3000","","","",""
"","","","","","instructions","59","460903","0.0-14.0","652ebf9490189b8b57f1ce35","6796e1c0ff24ca17c453c51c","67c71ac70ca87dc786b3dd21","passed","[{""page_index"":0,""viewing_time"":14405}]","14405","","","","","","","","","","","","","","","","","","","","","","","","","","",""
"","","","","","html-keyboard-response","60","462897","0.0-15.0","652ebf9490189b8b57f1ce35","6796e1c0ff24ca17c453c51c","67c71ac70ca87dc786b3dd21","passed","","1993","","","","","","","","","","","","","<p><span style=""font-size:40px;"">BLOCK 1</span></p><p><span style=""font-size:25px;"">You have <b style=""color: #FF644F;""><strong>0.7 second(s)</strong></b> to respond to the following trials.</span><br></p><p></p> <!-- Blank line -->
                <p id=""blinking-text"" style=""font-weight; animation: blink 2s infinite;"">Press Space to continue</p>
                <style>
                    @keyframes blink {
                        50% {
                            opacity: 0;
                        }
                    }
                </style></p>"," ","","","","","","","","","","","","",""
"","","","","","html-keyboard-response","61","464392","0.0-16.0-0.0","652ebf9490189b8b57f1ce35","6796e1c0ff24ca17c453c51c","67c71ac70ca87dc786b3dd21","passed","","","","","","","","","","","","","","","","","ballFalling","604.4000000000001","667.6211431702998","201.78","9","fallScene","false","","","","1","",""
"","","","","","html-keyboard-response","62","465095","0.0-16.0-1.0","652ebf9490189b8b57f1ce35","6796e1c0ff24ca17c453c51c","67c71ac70ca87dc786b3dd21","passed","","329","","","","","","","","","","","","","","j","yesOrNo","","","","9","","","gt","700","","1","667.6211431702998","201.78"
"","","","","","html-keyboard-response","63","467102","0.0-16.0-0.1","652ebf9490189b8b57f1ce35","6796e1c0ff24ca17c453c51c","67c71ac70ca87dc786b3dd21","passed","","","","","","","","","","","","","","","","","ballFalling","604.4000000000001","596.8711431702998","394.5","10","fallScene","true","","","","2","",""
"","","","","","html-keyboard-response","64","467804","0.0-16.0-1.1","652ebf9490189b8b57f1ce35","6796e1c0ff24ca17c453c51c","67c71ac70ca87dc786b3dd21","passed","","366","","","","","","","","","","","","","","j","yesOrNo","","","","10","","","mid","700","","2","536.4288568297004","300"
"","","","","","html-keyboard-response","65","469375","0.0-16.0-0.2","652ebf9490189b8b57f1ce35","6796e1c0ff24ca17c453c51c","67c71ac70ca87dc786b3dd21","passed","","","","","","","","","","","","","","","","","ballFalling","500","553.4711431702997","282.51","7","fallScene","true","","","","3","",""
"","","","","","html-keyboard-response","66","470078","0.0-16.0-1.2","652ebf9490189b8b57f1ce35","6796e1c0ff24ca17c453c51c","67c71ac70ca87dc786b3dd21","passed","","532","","","","","","","","","","","","","","j","yesOrNo","","","","7","","","mid","700","","3","501","300"
"","","","","","html-keyboard-response","67","471570","0.0-16.0-0.3","652ebf9490189b8b57f1ce35","6796e1c0ff24ca17c453c51c","67c71ac70ca87dc786b3dd21","passed","","","","","","","","","","","","","","","","","ballFalling","604.4000000000001","667.6211431702998","201.78","9","fallScene","false","","","","4","",""
"","","","","","html-keyboard-response","68","472273","0.0-16.0-1.3","652ebf9490189b8b57f1ce35","6796e1c0ff24ca17c453c51c","67c71ac70ca87dc786b3dd21","passed","","330","","","","","","","","","","","","","","j","yesOrNo","","","","9","","","lp","700","","4","605.4000000000001","151"
"","","","","","html-keyboard-response","69","473831","0.0-16.0-0.4","652ebf9490189b8b57f1ce35","6796e1c0ff24ca17c453c51c","67c71ac70ca87dc786b3dd21","passed","","","","","","","","","","","","","","","","","ballFalling","322.3","379.3711431702997","245.25","1","fallScene","false","","","","5","",""
"","","","","","html-keyboard-response","70","474531","0.0-16.0-1.4","652ebf9490189b8b57f1ce35","6796e1c0ff24ca17c453c51c","67c71ac70ca87dc786b3dd21","passed","","577","","","","","","","","","","","","","","f","yesOrNo","","","","1","","","lp","700","","5","323.3","217.74551669457017"
"","","","","","html-keyboard-response","71","476104","0.0-16.0-0.5","652ebf9490189b8b57f1ce35","6796e1c0ff24ca17c453c51c","67c71ac70ca87dc786b3dd21","passed","","","","","","","","","","","","","","","","","ballFalling","500","553.4711431702997","282.51","7","fallScene","true","","","","6","",""
"","","","","","html-keyboard-response","72","476807","0.0-16.0-1.5","652ebf9490189b8b57f1ce35","6796e1c0ff24ca17c453c51c","67c71ac70ca87dc786b3dd21","passed","","547","","","","","","","","","","","","","","j","yesOrNo","","","","7","","","lp","700","","6","501","227.2843295913261"
"","","","","","html-keyboard-response","73","478365","0.0-16.0-0.6","652ebf9490189b8b57f1ce35","6796e1c0ff24ca17c453c51c","67c71ac70ca87dc786b3dd21","passed","","","","","","","","","","","","","","","","","ballFalling","604.4000000000001","575.4211431702997","266.76","12","fallScene","false","","","","7","",""
"","","","","","html-keyboard-response","74","479068","0.0-16.0-1.6","652ebf9490189b8b57f1ce35","6796e1c0ff24ca17c453c51c","67c71ac70ca87dc786b3dd21","passed","","526","","","","","","","","","","","","","","f","yesOrNo","","","","12","","","mid","700","","7","536.4288568297004","300"
"","","","","","html-keyboard-response","75","480626","0.0-16.0-0.7","652ebf9490189b8b57f1ce35","6796e1c0ff24ca17c453c51c","67c71ac70ca87dc786b3dd21","passed","","","","","","","","","","","","","","","","","ballFalling","604.4000000000001","575.4211431702997","266.76","12","fallScene","true","","","","8","",""
"","","","","","html-keyboard-response","76","481329","0.0-16.0-1.7","652ebf9490189b8b57f1ce35","6796e1c0ff24ca17c453c51c","67c71ac70ca87dc786b3dd21","passed","","357","","","","","","","","","","","","","","j","yesOrNo","","","","12","","","gt","700","","8","575.4211431702997","266.76"
"","","","","","html-keyboard-response","77","482900","0.0-16.0-0.8","652ebf9490189b8b57f1ce35","6796e1c0ff24ca17c453c51c","67c71ac70ca87dc786b3dd21","passed","","","","","","","","","","","","","","","","","ballFalling","500","553.4711431702997","282.51","7","fallScene","false","","","","9","",""
"","","","","","html-keyboard-response","78","483601","0.0-16.0-1.8","652ebf9490189b8b57f1ce35","6796e1c0ff24ca17c453c51c","67c71ac70ca87dc786b3dd21","passed","","255","","","","","","","","","","","","","","j","yesOrNo","","","","7","","","lp","700","","9","501","227.2843295913261"
"","","","","","html-keyboard-response","79","485609","0.0-16.0-0.9","652ebf9490189b8b57f1ce35","6796e1c0ff24ca17c453c51c","67c71ac70ca87dc786b3dd21","passed","","","","","","","","","","","","","","","","","ballFalling","604.4000000000001","596.8711431702998","394.5","10","fallScene","true","","","","10","",""
"","","","","","html-keyboard-response","80","486312","0.0-16.0-1.9","652ebf9490189b8b57f1ce35","6796e1c0ff24ca17c453c51c","67c71ac70ca87dc786b3dd21","passed","","350","","","","","","","","","","","","","","f","yesOrNo","","","","10","","","gt","700","","10","596.8711431702998","394.5"
"","","","","","html-keyboard-response","81","487883","0.0-16.0-0.10","652ebf9490189b8b57f1ce35","6796e1c0ff24ca17c453c51c","67c71ac70ca87dc786b3dd21","passed","","","","","","","","","","","","","","","","","ballFalling","500","553.4711431702997","282.51","7","fallScene","true","","","","11","",""
"","","","","","html-keyboard-response","82","488586","0.0-16.0-1.10","652ebf9490189b8b57f1ce35","6796e1c0ff24ca17c453c51c","67c71ac70ca87dc786b3dd21","passed","","480","","","","","","","","","","","","","","f","yesOrNo","","","","7","","","gt","700","","11","553.4711431702997","282.51"
"","","","","","html-keyboard-response","83","490241","0.0-16.0-0.11","652ebf9490189b8b57f1ce35","6796e1c0ff24ca17c453c51c","67c71ac70ca87dc786b3dd21","passed","","","","","","","","","","","","","","","","","ballFalling","500","479.92114317029973","330.87","6","fallScene","false","","","","12","",""
"","","","","","html-keyboard-response","84","490944","0.0-16.0-1.11","652ebf9490189b8b57f1ce35","6796e1c0ff24ca17c453c51c","67c71ac70ca87dc786b3dd21","passed","","386","","","","","","","","","","","","","","j","yesOrNo","","","","6","","","gt","700","","12","479.9211431702998","330.87"
"","","","","","html-keyboard-response","85","492502","0.0-16.0-0.12","652ebf9490189b8b57f1ce35","6796e1c0ff24ca17c453c51c","67c71ac70ca87dc786b3dd21","passed","","","","","","","","","","","","","","","","","ballFalling","604.4000000000001","650.0211431702996","404.58000000000004","11","fallScene","true","","","","13","",""
"","","","","","html-keyboard-response","86","493205","0.0-16.0-1.12","652ebf9490189b8b57f1ce35","6796e1c0ff24ca17c453c51c","67c71ac70ca87dc786b3dd21","passed","","414","","","","","","","","","","","","","","j","yesOrNo","","","","11","","","lp","700","","13","605.4000000000001","372.6340973215488"
"","","","","","html-keyboard-response","87","494763","0.0-16.0-0.13","652ebf9490189b8b57f1ce35","6796e1c0ff24ca17c453c51c","67c71ac70ca87dc786b3dd21","passed","","","","","","","","","","","","","","","","","ballFalling","322.3","379.3711431702997","245.25","1","fallScene","false","","","","14","",""
"","","","","","html-keyboard-response","88","495466","0.0-16.0-1.13","652ebf9490189b8b57f1ce35","6796e1c0ff24ca17c453c51c","67c71ac70ca87dc786b3dd21","passed","","497","","","","","","","","","","","","","","j","yesOrNo","","","","1","","","mid","700","","14","390.27114317029975","300"
"","","","","","html-keyboard-response","89","497024","0.0-16.0-0.14","652ebf9490189b8b57f1ce35","6796e1c0ff24ca17c453c51c","67c71ac70ca87dc786b3dd21","passed","","","","","","","","","","","","","","","","","ballFalling","322.3","356.42114317029973","357.87","4","fallScene","false","","","","15","",""
"","","","","","html-keyboard-response","90","497727","0.0-16.0-1.14","652ebf9490189b8b57f1ce35","6796e1c0ff24ca17c453c51c","67c71ac70ca87dc786b3dd21","passed","","402","","","","","","","","","","","","","","j","yesOrNo","","","","4","","","gt","700","","15","356.42114317029973","357.87"
"","","","","","html-keyboard-response","91","499285","0.0-16.0-0.15","652ebf9490189b8b57f1ce35","6796e1c0ff24ca17c453c51c","67c71ac70ca87dc786b3dd21","passed","","","","","","","","","","","","","","","","","ballFalling","322.3","296.07114317029976","371.46","3","fallScene","false","","","","16","",""
"","","","","","html-keyboard-response","92","499988","0.0-16.0-1.15","652ebf9490189b8b57f1ce35","6796e1c0ff24ca17c453c51c","67c71ac70ca87dc786b3dd21","passed","","325","","","","","","","","","","","","","","j","yesOrNo","","","","3","","","mid","700","","16","321.3","300"
"","","","","","html-keyboard-response","93","501546","0.0-16.0-0.16","652ebf9490189b8b57f1ce35","6796e1c0ff24ca17c453c51c","67c71ac70ca87dc786b3dd21","passed","","","","","","","","","","","","","","","","","ballFalling","604.4000000000001","650.0211431702996","404.58000000000004","11","fallScene","true","","","","17","",""
"","","","","","html-keyboard-response","94","502249","0.0-16.0-1.16","652ebf9490189b8b57f1ce35","6796e1c0ff24ca17c453c51c","67c71ac70ca87dc786b3dd21","passed","","281","","","","","","","","","","","","","","j","yesOrNo","","","","11","","","mid","700","","17","605.4000000000001","300"
"","","","","","html-keyboard-response","95","503807","0.0-16.0-0.17","652ebf9490189b8b57f1ce35","6796e1c0ff24ca17c453c51c","67c71ac70ca87dc786b3dd21","passed","","","","","","","","","","","","","","","","","ballFalling","322.3","379.3711431702997","245.25","1","fallScene","false","","","","18","",""
"","","","","","html-keyboard-response","96","504511","0.0-16.0-1.17","652ebf9490189b8b57f1ce35","6796e1c0ff24ca17c453c51c","67c71ac70ca87dc786b3dd21","passed","","317","","","","","","","","","","","","","","f","yesOrNo","","","","1","","","lp","700","","18","323.3","217.74551669457017"
"","","","","","html-keyboard-response","97","506299","0.0-16.0-0.18","652ebf9490189b8b57f1ce35","6796e1c0ff24ca17c453c51c","67c71ac70ca87dc786b3dd21","passed","","","","","","","","","","","","","","","","","ballFalling","322.3","308.07114317029976","253.89","2","fallScene","false","","","","19","",""
"","","","","","html-keyboard-response","98","507002","0.0-16.0-1.18","652ebf9490189b8b57f1ce35","6796e1c0ff24ca17c453c51c","67c71ac70ca87dc786b3dd21","passed","","478","","","","","","","","","","","","","","f","yesOrNo","","","","2","","","gt","700","","19","308.07114317029976","253.89"
"","","","","","html-keyboard-response","99","508560","0.0-16.0-0.19","652ebf9490189b8b57f1ce35","6796e1c0ff24ca17c453c51c","67c71ac70ca87dc786b3dd21","passed","","","","","","","","","","","","","","","","","ballFalling","322.3","296.07114317029976","371.46","3","fallScene","false","","","","20","",""
"","","","","","html-keyboard-response","100","509263","0.0-16.0-1.19","652ebf9490189b8b57f1ce35","6796e1c0ff24ca17c453c51c","67c71ac70ca87dc786b3dd21","passed","","478","","","","","","","","","","","","","","j","yesOrNo","","","","3","","","lp","700","","20","321.3","287.3327096511259"
"","","","","","html-keyboard-response","101","510821","0.0-16.0-0.20","652ebf9490189b8b57f1ce35","6796e1c0ff24ca17c453c51c","67c71ac70ca87dc786b3dd21","passed","","","","","","","","","","","","","","","","","ballFalling","322.3","379.3711431702997","245.25","1","fallScene","true","","","","21","",""
"","","","","","html-keyboard-response","102","511524","0.0-16.0-1.20","652ebf9490189b8b57f1ce35","6796e1c0ff24ca17c453c51c","67c71ac70ca87dc786b3dd21","passed","","369","","","","","","","","","","","","","","j","yesOrNo","","","","1","","","mid","700","","21","390.27114317029975","300"
"","","","","","html-keyboard-response","103","513531","0.0-16.0-0.21","652ebf9490189b8b57f1ce35","6796e1c0ff24ca17c453c51c","67c71ac70ca87dc786b3dd21","passed","","","","","","","","","","","","","","","","","ballFalling","500","510.8711431702997","369.03","8","fallScene","true","","","","22","",""
"","","","","","html-keyboard-response","104","514233","0.0-16.0-1.21","652ebf9490189b8b57f1ce35","6796e1c0ff24ca17c453c51c","67c71ac70ca87dc786b3dd21","passed","","453","","","","","","","","","","","","","","j","yesOrNo","","","","8","","","gt","700","","22","510.8711431702997","369.03"
"","","","","","html-keyboard-response","105","515792","0.0-16.0-0.22","652ebf9490189b8b57f1ce35","6796e1c0ff24ca17c453c51c","67c71ac70ca87dc786b3dd21","passed","","","","","","","","","","","","","","","","","ballFalling","322.3","356.42114317029973","357.87","4","fallScene","false","","","","23","",""
"","","","","","html-keyboard-response","106","516495","0.0-16.0-1.22","652ebf9490189b8b57f1ce35","6796e1c0ff24ca17c453c51c","67c71ac70ca87dc786b3dd21","passed","","391","","","","","","","","","","","","","","j","yesOrNo","","","","4","","","lp","700","","23","323.3","297.4070551689986"
"","","","","","html-keyboard-response","107","518053","0.0-16.0-0.23","652ebf9490189b8b57f1ce35","6796e1c0ff24ca17c453c51c","67c71ac70ca87dc786b3dd21","passed","","","","","","","","","","","","","","","","","ballFalling","500","453.67114317029973","210.33","5","fallScene","false","","","","24","",""
"","","","","","html-keyboard-response","108","518755","0.0-16.0-1.23","652ebf9490189b8b57f1ce35","6796e1c0ff24ca17c453c51c","67c71ac70ca87dc786b3dd21","passed","","338","","","","","","","","","","","","","","f","yesOrNo","","","","5","","","gt","700","","24","453.6711431702998","210.33"
"","","","","","html-keyboard-response","109","520085","0.0-17.0","652ebf9490189b8b57f1ce35","6796e1c0ff24ca17c453c51c","67c71ac70ca87dc786b3dd21","passed","","1329","","","","","","","","","","","","","<p><span style=""font-size:40px;"">BLOCK 2</span></p><p><span style=""font-size:25px;"">You have <b style=""color: #FF644F;""><strong>3 second(s)</strong></b> to respond to the following trials.</span><br></p><p></p> <!-- Blank line -->
                <p id=""blinking-text"" style=""font-weight; animation: blink 2s infinite;"">Press Space to continue</p>
                <style>
                    @keyframes blink {
                        50% {
                            opacity: 0;
                        }
                    }
                </style></p>"," ","","","","","","","","","","","","",""
"","","","","","html-keyboard-response","110","521648","0.0-18.0-0.0","652ebf9490189b8b57f1ce35","6796e1c0ff24ca17c453c51c","67c71ac70ca87dc786b3dd21","passed","","","","","","","","","","","","","","","","","ballFalling","500","453.67114317029973","210.33","5","fallScene","true","","","","25","",""
"","","","","","html-keyboard-response","111","524649","0.0-18.0-1.0","652ebf9490189b8b57f1ce35","6796e1c0ff24ca17c453c51c","67c71ac70ca87dc786b3dd21","passed","","658","","","","","","","","","","","","","","j","yesOrNo","","","","5","","","lp","3000","","25","499","151"
"","","","","","html-keyboard-response","112","526213","0.0-18.0-0.1","652ebf9490189b8b57f1ce35","6796e1c0ff24ca17c453c51c","67c71ac70ca87dc786b3dd21","passed","","","","","","","","","","","","","","","","","ballFalling","500","453.67114317029973","210.33","5","fallScene","false","","","","26","",""
"","","","","","html-keyboard-response","113","529214","0.0-18.0-1.1","652ebf9490189b8b57f1ce35","6796e1c0ff24ca17c453c51c","67c71ac70ca87dc786b3dd21","passed","","673","","","","","","","","","","","","","","f","yesOrNo","","","","5","","","gt","3000","","26","453.6711431702998","210.33"
"","","","","","html-keyboard-response","114","530777","0.0-18.0-0.2","652ebf9490189b8b57f1ce35","6796e1c0ff24ca17c453c51c","67c71ac70ca87dc786b3dd21","passed","","","","","","","","","","","","","","","","","ballFalling","500","453.67114317029973","210.33","5","fallScene","true","","","","27","",""
"","","","","","html-keyboard-response","115","533778","0.0-18.0-1.2","652ebf9490189b8b57f1ce35","6796e1c0ff24ca17c453c51c","67c71ac70ca87dc786b3dd21","passed","","1893","","","","","","","","","","","","","","f","yesOrNo","","","","5","","","mid","3000","","27","499","300"
"","","","","","html-keyboard-response","116","535269","0.0-18.0-0.3","652ebf9490189b8b57f1ce35","6796e1c0ff24ca17c453c51c","67c71ac70ca87dc786b3dd21","passed","","","","","","","","","","","","","","","","","ballFalling","604.4000000000001","667.6211431702998","201.78","9","fallScene","false","","","","28","",""
"","","","","","html-keyboard-response","117","538270","0.0-18.0-1.3","652ebf9490189b8b57f1ce35","6796e1c0ff24ca17c453c51c","67c71ac70ca87dc786b3dd21","passed","","426","","","","","","","","","","","","","","j","yesOrNo","","","","9","","","mid","3000","","28","605.4000000000001","300"
"","","","","","html-keyboard-response","118","539834","0.0-18.0-0.4","652ebf9490189b8b57f1ce35","6796e1c0ff24ca17c453c51c","67c71ac70ca87dc786b3dd21","passed","","","","","","","","","","","","","","","","","ballFalling","322.3","356.42114317029973","357.87","4","fallScene","true","","","","29","",""
"","","","","","html-keyboard-response","119","542835","0.0-18.0-1.4","652ebf9490189b8b57f1ce35","6796e1c0ff24ca17c453c51c","67c71ac70ca87dc786b3dd21","passed","","1569","","","","","","","","","","","","","","j","yesOrNo","","","","4","","","lp","3000","","29","323.3","297.4070551689986"
"","","","","","html-keyboard-response","120","544393","0.0-18.0-0.5","652ebf9490189b8b57f1ce35","6796e1c0ff24ca17c453c51c","67c71ac70ca87dc786b3dd21","passed","","","","","","","","","","","","","","","","","ballFalling","604.4000000000001","650.0211431702996","404.58000000000004","11","fallScene","true","","","","30","",""
"","","","","","html-keyboard-response","121","547394","0.0-18.0-1.5","652ebf9490189b8b57f1ce35","6796e1c0ff24ca17c453c51c","67c71ac70ca87dc786b3dd21","passed","","2313","","","","","","","","","","","","","","f","yesOrNo","","","","11","","","mid","3000","","30","605.4000000000001","300"
"","","","","","html-keyboard-response","122","548970","0.0-18.0-0.6","652ebf9490189b8b57f1ce35","6796e1c0ff24ca17c453c51c","67c71ac70ca87dc786b3dd21","passed","","","","","","","","","","","","","","","","","ballFalling","500","553.4711431702997","282.51","7","fallScene","false","","","","31","",""
"","","","","","html-keyboard-response","123","551970","0.0-18.0-1.6","652ebf9490189b8b57f1ce35","6796e1c0ff24ca17c453c51c","67c71ac70ca87dc786b3dd21","passed","","1761","","","","","","","","","","","","","","j","yesOrNo","","","","7","","","lp","3000","","31","501","227.2843295913261"
"","","","","","html-keyboard-response","124","553534","0.0-18.0-0.7","652ebf9490189b8b57f1ce35","6796e1c0ff24ca17c453c51c","67c71ac70ca87dc786b3dd21","passed","","","","","","","","","","","","","","","","","ballFalling","500","453.67114317029973","210.33","5","fallScene","false","","","","32","",""
"","","","","","html-keyboard-response","125","556535","0.0-18.0-1.7","652ebf9490189b8b57f1ce35","6796e1c0ff24ca17c453c51c","67c71ac70ca87dc786b3dd21","passed","","2151","","","","","","","","","","","","","","f","yesOrNo","","","","5","","","lp","3000","","32","499","151"
"","","","","","html-keyboard-response","126","558541","0.0-18.0-0.8","652ebf9490189b8b57f1ce35","6796e1c0ff24ca17c453c51c","67c71ac70ca87dc786b3dd21","passed","","","","","","","","","","","","","","","","","ballFalling","500","510.8711431702997","369.03","8","fallScene","false","","","","33","",""
"","","","","","html-keyboard-response","127","561542","0.0-18.0-1.8","652ebf9490189b8b57f1ce35","6796e1c0ff24ca17c453c51c","67c71ac70ca87dc786b3dd21","passed","","804","","","","","","","","","","","","","","f","yesOrNo","","","","8","","","lp","3000","","33","501","151"
"","","","","","html-keyboard-response","128","563106","0.0-18.0-0.9","652ebf9490189b8b57f1ce35","6796e1c0ff24ca17c453c51c","67c71ac70ca87dc786b3dd21","passed","","","","","","","","","","","","","","","","","ballFalling","322.3","296.07114317029976","371.46","3","fallScene","false","","","","34","",""
"","","","","","html-keyboard-response","129","566107","0.0-18.0-1.9","652ebf9490189b8b57f1ce35","6796e1c0ff24ca17c453c51c","67c71ac70ca87dc786b3dd21","passed","","978","","","","","","","","","","","","","","j","yesOrNo","","","","3","","","gt","3000","","34","296.07114317029976","371.46"
"","","","","","html-keyboard-response","130","567665","0.0-18.0-0.10","652ebf9490189b8b57f1ce35","6796e1c0ff24ca17c453c51c","67c71ac70ca87dc786b3dd21","passed","","","","","","","","","","","","","","","","","ballFalling","322.3","356.42114317029973","357.87","4","fallScene","true","","","","35","",""
"","","","","","html-keyboard-response","131","570666","0.0-18.0-1.10","652ebf9490189b8b57f1ce35","6796e1c0ff24ca17c453c51c","67c71ac70ca87dc786b3dd21","passed","","1076","","","","","","","","","","","","","","f","yesOrNo","","","","4","","","mid","3000","","35","390.27114317029975","300"
"","","","","","html-keyboard-response","132","572229","0.0-18.0-0.11","652ebf9490189b8b57f1ce35","6796e1c0ff24ca17c453c51c","67c71ac70ca87dc786b3dd21","passed","","","","","","","","","","","","","","","","","ballFalling","500","453.67114317029973","210.33","5","fallScene","false","","","","36","",""
"","","","","","html-keyboard-response","133","575230","0.0-18.0-1.11","652ebf9490189b8b57f1ce35","6796e1c0ff24ca17c453c51c","67c71ac70ca87dc786b3dd21","passed","","1505","","","","","","","","","","","","","","f","yesOrNo","","","","5","","","mid","3000","","36","499","300"
"","","","","","html-keyboard-response","134","576800","0.0-18.0-0.12","652ebf9490189b8b57f1ce35","6796e1c0ff24ca17c453c51c","67c71ac70ca87dc786b3dd21","passed","","","","","","","","","","","","","","","","","ballFalling","500","553.4711431702997","282.51","7","fallScene","true","","","","37","",""
"","","","","","html-keyboard-response","135","579801","0.0-18.0-1.12","652ebf9490189b8b57f1ce35","6796e1c0ff24ca17c453c51c","67c71ac70ca87dc786b3dd21","passed","","1071","","","","","","","","","","","","","","j","yesOrNo","","","","7","","","gt","3000","","37","553.4711431702997","282.51"
"","","","","","html-keyboard-response","136","581359","0.0-18.0-0.13","652ebf9490189b8b57f1ce35","6796e1c0ff24ca17c453c51c","67c71ac70ca87dc786b3dd21","passed","","","","","","","","","","","","","","","","","ballFalling","604.4000000000001","575.4211431702997","266.76","12","fallScene","false","","","","38","",""
"","","","","","html-keyboard-response","137","584359","0.0-18.0-1.13","652ebf9490189b8b57f1ce35","6796e1c0ff24ca17c453c51c","67c71ac70ca87dc786b3dd21","passed","","1107","","","","","","","","","","","","","","j","yesOrNo","","","","12","","","mid","3000","","38","536.4288568297004","300"
"","","","","","html-keyboard-response","138","585917","0.0-18.0-0.14","652ebf9490189b8b57f1ce35","6796e1c0ff24ca17c453c51c","67c71ac70ca87dc786b3dd21","passed","","","","","","","","","","","","","","","","","ballFalling","604.4000000000001","575.4211431702997","266.76","12","fallScene","false","","","","39","",""
"","","","","","html-keyboard-response","139","588918","0.0-18.0-1.14","652ebf9490189b8b57f1ce35","6796e1c0ff24ca17c453c51c","67c71ac70ca87dc786b3dd21","passed","","1061","","","","","","","","","","","","","","j","yesOrNo","","","","12","","","gt","3000","","39","575.4211431702997","266.76"
"","","","","","html-keyboard-response","140","590579","0.0-18.0-0.15","652ebf9490189b8b57f1ce35","6796e1c0ff24ca17c453c51c","67c71ac70ca87dc786b3dd21","passed","","","","","","","","","","","","","","","","","ballFalling","500","479.92114317029973","330.87","6","fallScene","true","","","","40","",""
"","","","","","html-keyboard-response","141","593580","0.0-18.0-1.15","652ebf9490189b8b57f1ce35","6796e1c0ff24ca17c453c51c","67c71ac70ca87dc786b3dd21","passed","","1330","","","","","","","","","","","","","","f","yesOrNo","","","","6","","","mid","3000","","40","499","300"
"","","","","","html-keyboard-response","142","595138","0.0-18.0-0.16","652ebf9490189b8b57f1ce35","6796e1c0ff24ca17c453c51c","67c71ac70ca87dc786b3dd21","passed","","","","","","","","","","","","","","","","","ballFalling","322.3","356.42114317029973","357.87","4","fallScene","true","","","","41","",""
"","","","","","html-keyboard-response","143","598138","0.0-18.0-1.16","652ebf9490189b8b57f1ce35","6796e1c0ff24ca17c453c51c","67c71ac70ca87dc786b3dd21","passed","","1098","","","","","","","","","","","","","","f","yesOrNo","","","","4","","","mid","3000","","41","390.27114317029975","300"
"","","","","","html-keyboard-response","144","599927","0.0-18.0-0.17","652ebf9490189b8b57f1ce35","6796e1c0ff24ca17c453c51c","67c71ac70ca87dc786b3dd21","passed","","","","","","","","","","","","","","","","","ballFalling","322.3","308.07114317029976","253.89","2","fallScene","true","","","","42","",""
"","","","","","html-keyboard-response","145","602927","0.0-18.0-1.17","652ebf9490189b8b57f1ce35","6796e1c0ff24ca17c453c51c","67c71ac70ca87dc786b3dd21","passed","","2173","","","","","","","","","","","","","","j","yesOrNo","","","","2","","","lp","3000","","42","321.3","151"
"","","","","","html-keyboard-response","146","604934","0.0-18.0-0.18","652ebf9490189b8b57f1ce35","6796e1c0ff24ca17c453c51c","67c71ac70ca87dc786b3dd21","passed","","","","","","","","","","","","","","","","","ballFalling","604.4000000000001","596.8711431702998","394.5","10","fallScene","true","","","","43","",""
"","","","","","html-keyboard-response","147","607935","0.0-18.0-1.18","652ebf9490189b8b57f1ce35","6796e1c0ff24ca17c453c51c","67c71ac70ca87dc786b3dd21","passed","","1227","","","","","","","","","","","","","","j","yesOrNo","","","","10","","","mid","3000","","43","536.4288568297004","300"
"","","","","","html-keyboard-response","148","609941","0.0-18.0-0.19","652ebf9490189b8b57f1ce35","6796e1c0ff24ca17c453c51c","67c71ac70ca87dc786b3dd21","passed","","","","","","","","","","","","","","","","","ballFalling","604.4000000000001","596.8711431702998","394.5","10","fallScene","true","","","","44","",""
"","","","","","html-keyboard-response","149","612942","0.0-18.0-1.19","652ebf9490189b8b57f1ce35","6796e1c0ff24ca17c453c51c","67c71ac70ca87dc786b3dd21","passed","","1833","","","","","","","","","","","","","","j","yesOrNo","","","","10","","","gt","3000","","44","596.8711431702998","394.5"
"","","","","","html-keyboard-response","150","614500","0.0-18.0-0.20","652ebf9490189b8b57f1ce35","6796e1c0ff24ca17c453c51c","67c71ac70ca87dc786b3dd21","passed","","","","","","","","","","","","","","","","","ballFalling","322.3","296.07114317029976","371.46","3","fallScene","false","","","","45","",""
"","","","","","html-keyboard-response","151","617500","0.0-18.0-1.20","652ebf9490189b8b57f1ce35","6796e1c0ff24ca17c453c51c","67c71ac70ca87dc786b3dd21","passed","","1567","","","","","","","","","","","","","","f","yesOrNo","","","","3","","","mid","3000","","45","321.3","300"
"","","","","","html-keyboard-response","152","619071","0.0-18.0-0.21","652ebf9490189b8b57f1ce35","6796e1c0ff24ca17c453c51c","67c71ac70ca87dc786b3dd21","passed","","","","","","","","","","","","","","","","","ballFalling","500","553.4711431702997","282.51","7","fallScene","true","","","","46","",""
"","","","","","html-keyboard-response","153","622071","0.0-18.0-1.21","652ebf9490189b8b57f1ce35","6796e1c0ff24ca17c453c51c","67c71ac70ca87dc786b3dd21","passed","","2459","","","","","","","","","","","","","","j","yesOrNo","","","","7","","","mid","3000","","46","501","300"
"","","","","","html-keyboard-response","154","623629","0.0-18.0-0.22","652ebf9490189b8b57f1ce35","6796e1c0ff24ca17c453c51c","67c71ac70ca87dc786b3dd21","passed","","","","","","","","","","","","","","","","","ballFalling","322.3","379.3711431702997","245.25","1","fallScene","true","","","","47","",""
"","","","","","html-keyboard-response","155","626630","0.0-18.0-1.22","652ebf9490189b8b57f1ce35","6796e1c0ff24ca17c453c51c","67c71ac70ca87dc786b3dd21","passed","","852","","","","","","","","","","","","","","j","yesOrNo","","","","1","","","gt","3000","","47","379.3711431702997","245.25"
"","","","","","html-keyboard-response","156","628188","0.0-18.0-0.23","652ebf9490189b8b57f1ce35","6796e1c0ff24ca17c453c51c","67c71ac70ca87dc786b3dd21","passed","","","","","","","","","","","","","","","","","ballFalling","604.4000000000001","650.0211431702996","404.58000000000004","11","fallScene","true","","","","48","",""
"","","","","","html-keyboard-response","157","631189","0.0-18.0-1.23","652ebf9490189b8b57f1ce35","6796e1c0ff24ca17c453c51c","67c71ac70ca87dc786b3dd21","passed","","2556","","","","","","","","","","","","","","f","yesOrNo","","","","11","","","mid","3000","","48","605.4000000000001","300"
"","","","","","html-keyboard-response","158","632962","0.0-19.0","652ebf9490189b8b57f1ce35","6796e1c0ff24ca17c453c51c","67c71ac70ca87dc786b3dd21","passed","","1773","","","","","","","","","","","","","<p><span style=""font-size:40px;"">BLOCK 3</span></p><p><span style=""font-size:25px;"">You have <b style=""color: #FF644F;""><strong>3 second(s)</strong></b> to respond to the following trials.</span><br></p><p></p> <!-- Blank line -->
                <p id=""blinking-text"" style=""font-weight; animation: blink 2s infinite;"">Press Space to continue</p>
                <style>
                    @keyframes blink {
                        50% {
                            opacity: 0;
                        }
                    }
                </style></p>"," ","","","","","","","","","","","","",""
"","","","","","html-keyboard-response","159","634523","0.0-20.0-0.0","652ebf9490189b8b57f1ce35","6796e1c0ff24ca17c453c51c","67c71ac70ca87dc786b3dd21","passed","","","","","","","","","","","","","","","","","ballFalling","322.3","356.42114317029973","357.87","4","fallScene","false","","","","49","",""
"","","","","","html-keyboard-response","160","637524","0.0-20.0-1.0","652ebf9490189b8b57f1ce35","6796e1c0ff24ca17c453c51c","67c71ac70ca87dc786b3dd21","passed","","1770","","","","","","","","","","","","","","f","yesOrNo","","","","4","","","lp","3000","","49","323.3","297.4070551689986"
"","","","","","html-keyboard-response","161","639088","0.0-20.0-0.1","652ebf9490189b8b57f1ce35","6796e1c0ff24ca17c453c51c","67c71ac70ca87dc786b3dd21","passed","","","","","","","","","","","","","","","","","ballFalling","604.4000000000001","650.0211431702996","404.58000000000004","11","fallScene","true","","","","50","",""
"","","","","","html-keyboard-response","162","642088","0.0-20.0-1.1","652ebf9490189b8b57f1ce35","6796e1c0ff24ca17c453c51c","67c71ac70ca87dc786b3dd21","passed","","996","","","","","","","","","","","","","","f","yesOrNo","","","","11","","","lp","3000","","50","605.4000000000001","372.6340973215488"
"","","","","","html-keyboard-response","163","643652","0.0-20.0-0.2","652ebf9490189b8b57f1ce35","6796e1c0ff24ca17c453c51c","67c71ac70ca87dc786b3dd21","passed","","","","","","","","","","","","","","","","","ballFalling","500","453.67114317029973","210.33","5","fallScene","true","","","","51","",""
"","","","","","html-keyboard-response","164","646653","0.0-20.0-1.2","652ebf9490189b8b57f1ce35","6796e1c0ff24ca17c453c51c","67c71ac70ca87dc786b3dd21","passed","","900","","","","","","","","","","","","","","j","yesOrNo","","","","5","","","gt","3000","","51","453.6711431702998","210.33"
"","","","","","html-keyboard-response","165","648211","0.0-20.0-0.3","652ebf9490189b8b57f1ce35","6796e1c0ff24ca17c453c51c","67c71ac70ca87dc786b3dd21","passed","","","","","","","","","","","","","","","","","ballFalling","322.3","379.3711431702997","245.25","1","fallScene","true","","","","52","",""
"","","","","","html-keyboard-response","166","651211","0.0-20.0-1.3","652ebf9490189b8b57f1ce35","6796e1c0ff24ca17c453c51c","67c71ac70ca87dc786b3dd21","passed","","1997","","","","","","","","","","","","","","f","yesOrNo","","","","1","","","mid","3000","","52","390.27114317029975","300"
"","","","","","html-keyboard-response","167","652769","0.0-20.0-0.4","652ebf9490189b8b57f1ce35","6796e1c0ff24ca17c453c51c","67c71ac70ca87dc786b3dd21","passed","","","","","","","","","","","","","","","","","ballFalling","322.3","296.07114317029976","371.46","3","fallScene","true","","","","53","",""
"","","","","","html-keyboard-response","168","655770","0.0-20.0-1.4","652ebf9490189b8b57f1ce35","6796e1c0ff24ca17c453c51c","67c71ac70ca87dc786b3dd21","passed","","813","","","","","","","","","","","","","","f","yesOrNo","","","","3","","","lp","3000","","53","321.3","287.3327096511259"
"","","","","","html-keyboard-response","169","657346","0.0-20.0-0.5","652ebf9490189b8b57f1ce35","6796e1c0ff24ca17c453c51c","67c71ac70ca87dc786b3dd21","passed","","","","","","","","","","","","","","","","","ballFalling","500","553.4711431702997","282.51","7","fallScene","true","","","","54","",""
"","","","","","html-keyboard-response","170","660347","0.0-20.0-1.5","652ebf9490189b8b57f1ce35","6796e1c0ff24ca17c453c51c","67c71ac70ca87dc786b3dd21","passed","","886","","","","","","","","","","","","","","f","yesOrNo","","","","7","","","mid","3000","","54","501","300"
"","","","","","html-keyboard-response","171","662353","0.0-20.0-0.6","652ebf9490189b8b57f1ce35","6796e1c0ff24ca17c453c51c","67c71ac70ca87dc786b3dd21","passed","","","","","","","","","","","","","","","","","ballFalling","604.4000000000001","596.8711431702998","394.5","10","fallScene","false","","","","55","",""
"","","","","","html-keyboard-response","172","665354","0.0-20.0-1.6","652ebf9490189b8b57f1ce35","6796e1c0ff24ca17c453c51c","67c71ac70ca87dc786b3dd21","passed","","1733","","","","","","","","","","","","","","f","yesOrNo","","","","10","","","gt","3000","","55","596.8711431702998","394.5"
"","","","","","html-keyboard-response","173","667142","0.0-20.0-0.7","652ebf9490189b8b57f1ce35","6796e1c0ff24ca17c453c51c","67c71ac70ca87dc786b3dd21","passed","","","","","","","","","","","","","","","","","ballFalling","322.3","308.07114317029976","253.89","2","fallScene","false","","","","56","",""
"","","","","","html-keyboard-response","174","670143","0.0-20.0-1.7","652ebf9490189b8b57f1ce35","6796e1c0ff24ca17c453c51c","67c71ac70ca87dc786b3dd21","passed","","870","","","","","","","","","","","","","","f","yesOrNo","","","","2","","","gt","3000","","56","308.07114317029976","253.89"
"","","","","","html-keyboard-response","175","671701","0.0-20.0-0.8","652ebf9490189b8b57f1ce35","6796e1c0ff24ca17c453c51c","67c71ac70ca87dc786b3dd21","passed","","","","","","","","","","","","","","","","","ballFalling","604.4000000000001","650.0211431702996","404.58000000000004","11","fallScene","true","","","","57","",""
"","","","","","html-keyboard-response","176","674702","0.0-20.0-1.8","652ebf9490189b8b57f1ce35","6796e1c0ff24ca17c453c51c","67c71ac70ca87dc786b3dd21","passed","","1042","","","","","","","","","","","","","","j","yesOrNo","","","","11","","","gt","3000","","57","650.0211431702996","404.58"
"","","","","","html-keyboard-response","177","676260","0.0-20.0-0.9","652ebf9490189b8b57f1ce35","6796e1c0ff24ca17c453c51c","67c71ac70ca87dc786b3dd21","passed","","","","","","","","","","","","","","","","","ballFalling","604.4000000000001","575.4211431702997","266.76","12","fallScene","true","","","","58","",""
"","","","","","html-keyboard-response","178","679260","0.0-20.0-1.9","652ebf9490189b8b57f1ce35","6796e1c0ff24ca17c453c51c","67c71ac70ca87dc786b3dd21","passed","","1257","","","","","","","","","","","","","","f","yesOrNo","","","","12","","","lp","3000","","58","603.4000000000001","151"
"","","","","","html-keyboard-response","179","681049","0.0-20.0-0.10","652ebf9490189b8b57f1ce35","6796e1c0ff24ca17c453c51c","67c71ac70ca87dc786b3dd21","passed","","","","","","","","","","","","","","","","","ballFalling","322.3","308.07114317029976","253.89","2","fallScene","false","","","","59","",""
"","","","","","html-keyboard-response","180","684049","0.0-20.0-1.10","652ebf9490189b8b57f1ce35","6796e1c0ff24ca17c453c51c","67c71ac70ca87dc786b3dd21","passed","","1644","","","","","","","","","","","","","","j","yesOrNo","","","","2","","","gt","3000","","59","308.07114317029976","253.89"
"","","","","","html-keyboard-response","181","685704","0.0-20.0-0.11","652ebf9490189b8b57f1ce35","6796e1c0ff24ca17c453c51c","67c71ac70ca87dc786b3dd21","passed","","","","","","","","","","","","","","","","","ballFalling","500","479.92114317029973","330.87","6","fallScene","true","","","","60","",""
"","","","","","html-keyboard-response","182","688705","0.0-20.0-1.11","652ebf9490189b8b57f1ce35","6796e1c0ff24ca17c453c51c","67c71ac70ca87dc786b3dd21","passed","","1947","","","","","","","","","","","","","","j","yesOrNo","","","","6","","","mid","3000","","60","499","300"
"","","","","","html-keyboard-response","183","690263","0.0-20.0-0.12","652ebf9490189b8b57f1ce35","6796e1c0ff24ca17c453c51c","67c71ac70ca87dc786b3dd21","passed","","","","","","","","","","","","","","","","","ballFalling","604.4000000000001","575.4211431702997","266.76","12","fallScene","false","","","","61","",""
"","","","","","html-keyboard-response","184","693264","0.0-20.0-1.12","652ebf9490189b8b57f1ce35","6796e1c0ff24ca17c453c51c","67c71ac70ca87dc786b3dd21","passed","","885","","","","","","","","","","","","","","j","yesOrNo","","","","12","","","gt","3000","","61","575.4211431702997","266.76"
"","","","","","html-keyboard-response","185","694755","0.0-20.0-0.13","652ebf9490189b8b57f1ce35","6796e1c0ff24ca17c453c51c","67c71ac70ca87dc786b3dd21","passed","","","","","","","","","","","","","","","","","ballFalling","604.4000000000001","667.6211431702998","201.78","9","fallScene","true","","","","62","",""
"","","","","","html-keyboard-response","186","697756","0.0-20.0-1.13","652ebf9490189b8b57f1ce35","6796e1c0ff24ca17c453c51c","67c71ac70ca87dc786b3dd21","passed","","1868","","","","","","","","","","","","","","f","yesOrNo","","","","9","","","lp","3000","","62","605.4000000000001","151"
"","","","","","html-keyboard-response","187","699762","0.0-20.0-0.14","652ebf9490189b8b57f1ce35","6796e1c0ff24ca17c453c51c","67c71ac70ca87dc786b3dd21","passed","","","","","","","","","","","","","","","","","ballFalling","500","510.8711431702997","369.03","8","fallScene","false","","","","63","",""
"","","","","","html-keyboard-response","188","702763","0.0-20.0-1.14","652ebf9490189b8b57f1ce35","6796e1c0ff24ca17c453c51c","67c71ac70ca87dc786b3dd21","passed","","576","","","","","","","","","","","","","","j","yesOrNo","","","","8","","","mid","3000","","63","501","300"
"","","","","","html-keyboard-response","189","704327","0.0-20.0-0.15","652ebf9490189b8b57f1ce35","6796e1c0ff24ca17c453c51c","67c71ac70ca87dc786b3dd21","passed","","","","","","","","","","","","","","","","","ballFalling","322.3","379.3711431702997","245.25","1","fallScene","false","","","","64","",""
"","","","","","html-keyboard-response","190","707328","0.0-20.0-1.15","652ebf9490189b8b57f1ce35","6796e1c0ff24ca17c453c51c","67c71ac70ca87dc786b3dd21","passed","","2543","","","","","","","","","","","","","","j","yesOrNo","","","","1","","","lp","3000","","64","323.3","217.74551669457017"
"","","","","","html-keyboard-response","191","708892","0.0-20.0-0.16","652ebf9490189b8b57f1ce35","6796e1c0ff24ca17c453c51c","67c71ac70ca87dc786b3dd21","passed","","","","","","","","","","","","","","","","","ballFalling","604.4000000000001","575.4211431702997","266.76","12","fallScene","true","","","","65","",""
"","","","","","html-keyboard-response","192","711892","0.0-20.0-1.16","652ebf9490189b8b57f1ce35","6796e1c0ff24ca17c453c51c","67c71ac70ca87dc786b3dd21","passed","","2097","","","","","","","","","","","","","","f","yesOrNo","","","","12","","","mid","3000","","65","536.4288568297004","300"
"","","","","","html-keyboard-response","193","713450","0.0-20.0-0.17","652ebf9490189b8b57f1ce35","6796e1c0ff24ca17c453c51c","67c71ac70ca87dc786b3dd21","passed","","","","","","","","","","","","","","","","","ballFalling","322.3","296.07114317029976","371.46","3","fallScene","false","","","","66","",""
"","","","","","html-keyboard-response","194","716451","0.0-20.0-1.17","652ebf9490189b8b57f1ce35","6796e1c0ff24ca17c453c51c","67c71ac70ca87dc786b3dd21","passed","","925","","","","","","","","","","","","","","j","yesOrNo","","","","3","","","gt","3000","","66","296.07114317029976","371.46"
"","","","","","html-keyboard-response","195","718106","0.0-20.0-0.18","652ebf9490189b8b57f1ce35","6796e1c0ff24ca17c453c51c","67c71ac70ca87dc786b3dd21","passed","","","","","","","","","","","","","","","","","ballFalling","500","479.92114317029973","330.87","6","fallScene","false","","","","67","",""
"","","","","","html-keyboard-response","196","721106","0.0-20.0-1.18","652ebf9490189b8b57f1ce35","6796e1c0ff24ca17c453c51c","67c71ac70ca87dc786b3dd21","passed","","1000","","","","","","","","","","","","","","j","yesOrNo","","","","6","","","gt","3000","","67","479.9211431702998","330.87"
"","","","","","html-keyboard-response","197","722895","0.0-20.0-0.19","652ebf9490189b8b57f1ce35","6796e1c0ff24ca17c453c51c","67c71ac70ca87dc786b3dd21","passed","","","","","","","","","","","","","","","","","ballFalling","322.3","308.07114317029976","253.89","2","fallScene","true","","","","68","",""
"","","","","","html-keyboard-response","198","725895","0.0-20.0-1.19","652ebf9490189b8b57f1ce35","6796e1c0ff24ca17c453c51c","67c71ac70ca87dc786b3dd21","passed","","1633","","","","","","","","","","","","","","j","yesOrNo","","","","2","","","mid","3000","","68","321.3","300"
"","","","","","html-keyboard-response","199","727551","0.0-20.0-0.20","652ebf9490189b8b57f1ce35","6796e1c0ff24ca17c453c51c","67c71ac70ca87dc786b3dd21","passed","","","","","","","","","","","","","","","","","ballFalling","500","479.92114317029973","330.87","6","fallScene","true","","","","69","",""
"","","","","","html-keyboard-response","200","730551","0.0-20.0-1.20","652ebf9490189b8b57f1ce35","6796e1c0ff24ca17c453c51c","67c71ac70ca87dc786b3dd21","passed","","2470","","","","","","","","","","","","","","j","yesOrNo","","","","6","","","lp","3000","","69","499","189.92909825697632"
"","","","","","html-keyboard-response","201","732564","0.0-20.0-0.21","652ebf9490189b8b57f1ce35","6796e1c0ff24ca17c453c51c","67c71ac70ca87dc786b3dd21","passed","","","","","","","","","","","","","","","","","ballFalling","604.4000000000001","596.8711431702998","394.5","10","fallScene","true","","","","70","",""
"","","","","","html-keyboard-response","202","735564","0.0-20.0-1.21","652ebf9490189b8b57f1ce35","6796e1c0ff24ca17c453c51c","67c71ac70ca87dc786b3dd21","passed","","1867","","","","","","","","","","","","","","f","yesOrNo","","","","10","","","lp","3000","","70","603.4000000000001","215.50214355555383"
"","","","","","html-keyboard-response","203","737122","0.0-20.0-0.22","652ebf9490189b8b57f1ce35","6796e1c0ff24ca17c453c51c","67c71ac70ca87dc786b3dd21","passed","","","","","","","","","","","","","","","","","ballFalling","604.4000000000001","650.0211431702996","404.58000000000004","11","fallScene","false","","","","71","",""
"","","","","","html-keyboard-response","204","740123","0.0-20.0-1.22","652ebf9490189b8b57f1ce35","6796e1c0ff24ca17c453c51c","67c71ac70ca87dc786b3dd21","passed","","2200","","","","","","","","","","","","","","j","yesOrNo","","","","11","","","gt","3000","","71","650.0211431702996","404.58"
"","","","","","html-keyboard-response","205","741614","0.0-20.0-0.23","652ebf9490189b8b57f1ce35","6796e1c0ff24ca17c453c51c","67c71ac70ca87dc786b3dd21","passed","","","","","","","","","","","","","","","","","ballFalling","604.4000000000001","667.6211431702998","201.78","9","fallScene","true","","","","72","",""
"","","","","","html-keyboard-response","206","744615","0.0-20.0-1.23","652ebf9490189b8b57f1ce35","6796e1c0ff24ca17c453c51c","67c71ac70ca87dc786b3dd21","passed","","881","","","","","","","","","","","","","","j","yesOrNo","","","","9","","","gt","3000","","72","667.6211431702998","201.78"
"","","","","","html-keyboard-response","207","747556","0.0-21.0","652ebf9490189b8b57f1ce35","6796e1c0ff24ca17c453c51c","67c71ac70ca87dc786b3dd21","passed","","2941","","","","","","","","","","","","","<p><span style=""font-size:40px;"">BLOCK 4</span></p><p><span style=""font-size:25px;"">You have <b style=""color: #FF644F;""><strong>0.7 second(s)</strong></b> to respond to the following trials.</span><br></p><p></p> <!-- Blank line -->
                <p id=""blinking-text"" style=""font-weight; animation: blink 2s infinite;"">Press Space to continue</p>
                <style>
                    @keyframes blink {
                        50% {
                            opacity: 0;
                        }
                    }
                </style></p>"," ","","","","","","","","","","","","",""
"","","","","","html-keyboard-response","208","749568","0.0-22.0-0.0","652ebf9490189b8b57f1ce35","6796e1c0ff24ca17c453c51c","67c71ac70ca87dc786b3dd21","passed","","","","","","","","","","","","","","","","","ballFalling","604.4000000000001","596.8711431702998","394.5","10","fallScene","false","","","","73","",""
"","","","","","html-keyboard-response","209","750271","0.0-22.0-1.0","652ebf9490189b8b57f1ce35","6796e1c0ff24ca17c453c51c","67c71ac70ca87dc786b3dd21","passed","","455","","","","","","","","","","","","","","f","yesOrNo","","","","10","","","lp","700","","73","603.4000000000001","215.50214355555383"
"","","","","","html-keyboard-response","210","751829","0.0-22.0-0.1","652ebf9490189b8b57f1ce35","6796e1c0ff24ca17c453c51c","67c71ac70ca87dc786b3dd21","passed","","","","","","","","","","","","","","","","","ballFalling","604.4000000000001","650.0211431702996","404.58000000000004","11","fallScene","false","","","","74","",""
"","","","","","html-keyboard-response","211","752532","0.0-22.0-1.1","652ebf9490189b8b57f1ce35","6796e1c0ff24ca17c453c51c","67c71ac70ca87dc786b3dd21","passed","","546","","","","","","","","","","","","","","f","yesOrNo","","","","11","","","mid","700","","74","605.4000000000001","300"
"","","","","","html-keyboard-response","212","754320","0.0-22.0-0.2","652ebf9490189b8b57f1ce35","6796e1c0ff24ca17c453c51c","67c71ac70ca87dc786b3dd21","passed","","","","","","","","","","","","","","","","","ballFalling","322.3","308.07114317029976","253.89","2","fallScene","true","","","","75","",""
"","","","","","html-keyboard-response","213","755023","0.0-22.0-1.2","652ebf9490189b8b57f1ce35","6796e1c0ff24ca17c453c51c","67c71ac70ca87dc786b3dd21","passed","","381","","","","","","","","","","","","","","f","yesOrNo","","","","2","","","gt","700","","75","308.07114317029976","253.89"
"","","","","","html-keyboard-response","214","756581","0.0-22.0-0.3","652ebf9490189b8b57f1ce35","6796e1c0ff24ca17c453c51c","67c71ac70ca87dc786b3dd21","passed","","","","","","","","","","","","","","","","","ballFalling","322.3","379.3711431702997","245.25","1","fallScene","false","","","","76","",""
"","","","","","html-keyboard-response","215","757285","0.0-22.0-1.3","652ebf9490189b8b57f1ce35","6796e1c0ff24ca17c453c51c","67c71ac70ca87dc786b3dd21","passed","","480","","","","","","","","","","","","","","f","yesOrNo","","","","1","","","gt","700","","76","379.3711431702997","245.25"
"","","","","","html-keyboard-response","216","758843","0.0-22.0-0.4","652ebf9490189b8b57f1ce35","6796e1c0ff24ca17c453c51c","67c71ac70ca87dc786b3dd21","passed","","","","","","","","","","","","","","","","","ballFalling","500","453.67114317029973","210.33","5","fallScene","true","","","","77","",""
"","","","","","html-keyboard-response","217","759546","0.0-22.0-1.4","652ebf9490189b8b57f1ce35","6796e1c0ff24ca17c453c51c","67c71ac70ca87dc786b3dd21","passed","","476","","","","","","","","","","","","","","f","yesOrNo","","","","5","","","lp","700","","77","499","151"
"","","","","","html-keyboard-response","218","761116","0.0-22.0-0.5","652ebf9490189b8b57f1ce35","6796e1c0ff24ca17c453c51c","67c71ac70ca87dc786b3dd21","passed","","","","","","","","","","","","","","","","","ballFalling","500","553.4711431702997","282.51","7","fallScene","false","","","","78","",""
"","","","","","html-keyboard-response","219","761819","0.0-22.0-1.5","652ebf9490189b8b57f1ce35","6796e1c0ff24ca17c453c51c","67c71ac70ca87dc786b3dd21","passed","","319","","","","","","","","","","","","","","j","yesOrNo","","","","7","","","gt","700","","78","553.4711431702997","282.51"
"","","","","","html-keyboard-response","220","763826","0.0-22.0-0.6","652ebf9490189b8b57f1ce35","6796e1c0ff24ca17c453c51c","67c71ac70ca87dc786b3dd21","passed","","","","","","","","","","","","","","","","","ballFalling","500","510.8711431702997","369.03","8","fallScene","true","","","","79","",""
"","","","","","html-keyboard-response","221","764527","0.0-22.0-1.6","652ebf9490189b8b57f1ce35","6796e1c0ff24ca17c453c51c","67c71ac70ca87dc786b3dd21","passed","","420","","","","","","","","","","","","","","f","yesOrNo","","","","8","","","mid","700","","79","501","300"
"","","","","","html-keyboard-response","222","766099","0.0-22.0-0.7","652ebf9490189b8b57f1ce35","6796e1c0ff24ca17c453c51c","67c71ac70ca87dc786b3dd21","passed","","","","","","","","","","","","","","","","","ballFalling","500","553.4711431702997","282.51","7","fallScene","false","","","","80","",""
"","","","","","html-keyboard-response","223","766802","0.0-22.0-1.7","652ebf9490189b8b57f1ce35","6796e1c0ff24ca17c453c51c","67c71ac70ca87dc786b3dd21","passed","","543","","","","","","","","","","","","","","f","yesOrNo","","","","7","","","mid","700","","80","501","300"
"","","","","","html-keyboard-response","224","768360","0.0-22.0-0.8","652ebf9490189b8b57f1ce35","6796e1c0ff24ca17c453c51c","67c71ac70ca87dc786b3dd21","passed","","","","","","","","","","","","","","","","","ballFalling","322.3","356.42114317029973","357.87","4","fallScene","false","","","","81","",""
"","","","","","html-keyboard-response","225","769063","0.0-22.0-1.8","652ebf9490189b8b57f1ce35","6796e1c0ff24ca17c453c51c","67c71ac70ca87dc786b3dd21","passed","","407","","","","","","","","","","","","","","f","yesOrNo","","","","4","","","lp","700","","81","323.3","297.4070551689986"
"","","","","","html-keyboard-response","226","770718","0.0-22.0-0.9","652ebf9490189b8b57f1ce35","6796e1c0ff24ca17c453c51c","67c71ac70ca87dc786b3dd21","passed","","","","","","","","","","","","","","","","","ballFalling","500","479.92114317029973","330.87","6","fallScene","false","","","","82","",""
"","","","","","html-keyboard-response","227","771421","0.0-22.0-1.9","652ebf9490189b8b57f1ce35","6796e1c0ff24ca17c453c51c","67c71ac70ca87dc786b3dd21","passed","","411","","","","","","","","","","","","","","f","yesOrNo","","","","6","","","mid","700","","82","499","300"
"","","","","","html-keyboard-response","228","772979","0.0-22.0-0.10","652ebf9490189b8b57f1ce35","6796e1c0ff24ca17c453c51c","67c71ac70ca87dc786b3dd21","passed","","","","","","","","","","","","","","","","","ballFalling","322.3","356.42114317029973","357.87","4","fallScene","false","","","","83","",""
"","","","","","html-keyboard-response","229","773682","0.0-22.0-1.10","652ebf9490189b8b57f1ce35","6796e1c0ff24ca17c453c51c","67c71ac70ca87dc786b3dd21","passed","","458","","","","","","","","","","","","","","j","yesOrNo","","","","4","","","mid","700","","83","390.27114317029975","300"
"","","","","","html-keyboard-response","230","775471","0.0-22.0-0.11","652ebf9490189b8b57f1ce35","6796e1c0ff24ca17c453c51c","67c71ac70ca87dc786b3dd21","passed","","","","","","","","","","","","","","","","","ballFalling","322.3","308.07114317029976","253.89","2","fallScene","true","","","","84","",""
"","","","","","html-keyboard-response","231","776174","0.0-22.0-1.11","652ebf9490189b8b57f1ce35","6796e1c0ff24ca17c453c51c","67c71ac70ca87dc786b3dd21","passed","","518","","","","","","","","","","","","","","f","yesOrNo","","","","2","","","mid","700","","84","321.3","300"
"","","","","","html-keyboard-response","232","778180","0.0-22.0-0.12","652ebf9490189b8b57f1ce35","6796e1c0ff24ca17c453c51c","67c71ac70ca87dc786b3dd21","passed","","","","","","","","","","","","","","","","","ballFalling","500","510.8711431702997","369.03","8","fallScene","true","","","","85","",""
"","","","","","html-keyboard-response","233","778884","0.0-22.0-1.12","652ebf9490189b8b57f1ce35","6796e1c0ff24ca17c453c51c","67c71ac70ca87dc786b3dd21","passed","","379","","","","","","","","","","","","","","j","yesOrNo","","","","8","","","mid","700","","85","501","300"
"","","","","","html-keyboard-response","234","780375","0.0-22.0-0.13","652ebf9490189b8b57f1ce35","6796e1c0ff24ca17c453c51c","67c71ac70ca87dc786b3dd21","passed","","","","","","","","","","","","","","","","","ballFalling","604.4000000000001","667.6211431702998","201.78","9","fallScene","false","","","","86","",""
"","","","","","html-keyboard-response","235","781078","0.0-22.0-1.13","652ebf9490189b8b57f1ce35","6796e1c0ff24ca17c453c51c","67c71ac70ca87dc786b3dd21","passed","","537","","","","","","","","","","","","","","f","yesOrNo","","","","9","","","lp","700","","86","605.4000000000001","151"
"","","","","","html-keyboard-response","236","782866","0.0-22.0-0.14","652ebf9490189b8b57f1ce35","6796e1c0ff24ca17c453c51c","67c71ac70ca87dc786b3dd21","passed","","","","","","","","","","","","","","","","","ballFalling","322.3","308.07114317029976","253.89","2","fallScene","true","","","","87","",""
"","","","","","html-keyboard-response","237","783567","0.0-22.0-1.14","652ebf9490189b8b57f1ce35","6796e1c0ff24ca17c453c51c","67c71ac70ca87dc786b3dd21","passed","","385","","","","","","","","","","","","","","j","yesOrNo","","","","2","","","lp","700","","87","321.3","151"
"","","","","","html-keyboard-response","238","785127","0.0-22.0-0.15","652ebf9490189b8b57f1ce35","6796e1c0ff24ca17c453c51c","67c71ac70ca87dc786b3dd21","passed","","","","","","","","","","","","","","","","","ballFalling","604.4000000000001","575.4211431702997","266.76","12","fallScene","true","","","","88","",""
"","","","","","html-keyboard-response","239","785831","0.0-22.0-1.15","652ebf9490189b8b57f1ce35","6796e1c0ff24ca17c453c51c","67c71ac70ca87dc786b3dd21","passed","","481","","","","","","","","","","","","","","f","yesOrNo","","","","12","","","lp","700","","88","603.4000000000001","151"
"","","","","","html-keyboard-response","240","787389","0.0-22.0-0.16","652ebf9490189b8b57f1ce35","6796e1c0ff24ca17c453c51c","67c71ac70ca87dc786b3dd21","passed","","","","","","","","","","","","","","","","","ballFalling","604.4000000000001","575.4211431702997","266.76","12","fallScene","false","","","","89","",""
"","","","","","html-keyboard-response","241","788091","0.0-22.0-1.16","652ebf9490189b8b57f1ce35","6796e1c0ff24ca17c453c51c","67c71ac70ca87dc786b3dd21","passed","","427","","","","","","","","","","","","","","f","yesOrNo","","","","12","","","gt","700","","89","575.4211431702997","266.76"
"","","","","","html-keyboard-response","242","789650","0.0-22.0-0.17","652ebf9490189b8b57f1ce35","6796e1c0ff24ca17c453c51c","67c71ac70ca87dc786b3dd21","passed","","","","","","","","","","","","","","","","","ballFalling","322.3","296.07114317029976","371.46","3","fallScene","true","","","","90","",""
"","","","","","html-keyboard-response","243","790353","0.0-22.0-1.17","652ebf9490189b8b57f1ce35","6796e1c0ff24ca17c453c51c","67c71ac70ca87dc786b3dd21","passed","","585","","","","","","","","","","","","","","j","yesOrNo","","","","3","","","gt","700","","90","296.07114317029976","371.46"
"","","","","","html-keyboard-response","244","792141","0.0-22.0-0.18","652ebf9490189b8b57f1ce35","6796e1c0ff24ca17c453c51c","67c71ac70ca87dc786b3dd21","passed","","","","","","","","","","","","","","","","","ballFalling","322.3","308.07114317029976","253.89","2","fallScene","true","","","","91","",""
"","","","","","html-keyboard-response","245","792843","0.0-22.0-1.18","652ebf9490189b8b57f1ce35","6796e1c0ff24ca17c453c51c","67c71ac70ca87dc786b3dd21","passed","","428","","","","","","","","","","","","","","f","yesOrNo","","","","2","","","lp","700","","91","321.3","151"
"","","","","","html-keyboard-response","246","794402","0.0-22.0-0.19","652ebf9490189b8b57f1ce35","6796e1c0ff24ca17c453c51c","67c71ac70ca87dc786b3dd21","passed","","","","","","","","","","","","","","","","","ballFalling","604.4000000000001","575.4211431702997","266.76","12","fallScene","true","","","","92","",""
"","","","","","html-keyboard-response","247","795105","0.0-22.0-1.19","652ebf9490189b8b57f1ce35","6796e1c0ff24ca17c453c51c","67c71ac70ca87dc786b3dd21","passed","","357","","","","","","","","","","","","","","j","yesOrNo","","","","12","","","mid","700","","92","536.4288568297004","300"
"","","","","","html-keyboard-response","248","797112","0.0-22.0-0.20","652ebf9490189b8b57f1ce35","6796e1c0ff24ca17c453c51c","67c71ac70ca87dc786b3dd21","passed","","","","","","","","","","","","","","","","","ballFalling","500","510.8711431702997","369.03","8","fallScene","false","","","","93","",""
"","","","","","html-keyboard-response","249","797815","0.0-22.0-1.20","652ebf9490189b8b57f1ce35","6796e1c0ff24ca17c453c51c","67c71ac70ca87dc786b3dd21","passed","","357","","","","","","","","","","","","","","f","yesOrNo","","","","8","","","lp","700","","93","501","151"
"","","","","","html-keyboard-response","250","799822","0.0-22.0-0.21","652ebf9490189b8b57f1ce35","6796e1c0ff24ca17c453c51c","67c71ac70ca87dc786b3dd21","passed","","","","","","","","","","","","","","","","","ballFalling","604.4000000000001","596.8711431702998","394.5","10","fallScene","true","","","","94","",""
"","","","","","html-keyboard-response","251","800525","0.0-22.0-1.21","652ebf9490189b8b57f1ce35","6796e1c0ff24ca17c453c51c","67c71ac70ca87dc786b3dd21","passed","","456","","","","","","","","","","","","","","j","yesOrNo","","","","10","","","mid","700","","94","536.4288568297004","300"
"","","","","","html-keyboard-response","252","802180","0.0-22.0-0.22","652ebf9490189b8b57f1ce35","6796e1c0ff24ca17c453c51c","67c71ac70ca87dc786b3dd21","passed","","","","","","","","","","","","","","","","","ballFalling","500","479.92114317029973","330.87","6","fallScene","false","","","","95","",""
"","","","","","html-keyboard-response","253","802883","0.0-22.0-1.22","652ebf9490189b8b57f1ce35","6796e1c0ff24ca17c453c51c","67c71ac70ca87dc786b3dd21","passed","","471","","","","","","","","","","","","","","j","yesOrNo","","","","6","","","gt","700","","95","479.9211431702998","330.87"
"","","","","","html-keyboard-response","254","804538","0.0-22.0-0.23","652ebf9490189b8b57f1ce35","6796e1c0ff24ca17c453c51c","67c71ac70ca87dc786b3dd21","passed","","","","","","","","","","","","","","","","","ballFalling","500","479.92114317029973","330.87","6","fallScene","false","","","","96","",""
"","","","","","html-keyboard-response","255","805241","0.0-22.0-1.23","652ebf9490189b8b57f1ce35","6796e1c0ff24ca17c453c51c","67c71ac70ca87dc786b3dd21","passed","","344","","","","","","","","","","","","","","f","yesOrNo","","","","6","","","lp","700","","96","499","189.92909825697632"
"","","","","","html-keyboard-response","256","806277","0.0-23.0","652ebf9490189b8b57f1ce35","6796e1c0ff24ca17c453c51c","67c71ac70ca87dc786b3dd21","passed","","1036","","","","","","","","","","","","","<p><span style=""font-size:40px;"">BLOCK 5</span></p><p><span style=""font-size:25px;"">You have <b style=""color: #FF644F;""><strong>3 second(s)</strong></b> to respond to the following trials.</span><br></p><p></p> <!-- Blank line -->
                <p id=""blinking-text"" style=""font-weight; animation: blink 2s infinite;"">Press Space to continue</p>
                <style>
                    @keyframes blink {
                        50% {
                            opacity: 0;
                        }
                    }
                </style></p>"," ","","","","","","","","","","","","",""
"","","","","","html-keyboard-response","257","807836","0.0-24.0-0.0","652ebf9490189b8b57f1ce35","6796e1c0ff24ca17c453c51c","67c71ac70ca87dc786b3dd21","passed","","","","","","","","","","","","","","","","","ballFalling","604.4000000000001","650.0211431702996","404.58000000000004","11","fallScene","true","","","","97","",""
"","","","","","html-keyboard-response","258","810836","0.0-24.0-1.0","652ebf9490189b8b57f1ce35","6796e1c0ff24ca17c453c51c","67c71ac70ca87dc786b3dd21","passed","","2132","","","","","","","","","","","","","","j","yesOrNo","","","","11","","","lp","3000","","97","605.4000000000001","372.6340973215488"
"","","","","","html-keyboard-response","259","812407","0.0-24.0-0.1","652ebf9490189b8b57f1ce35","6796e1c0ff24ca17c453c51c","67c71ac70ca87dc786b3dd21","passed","","","","","","","","","","","","","","","","","ballFalling","500","553.4711431702997","282.51","7","fallScene","false","","","","98","",""
"","","","","","html-keyboard-response","260","815407","0.0-24.0-1.1","652ebf9490189b8b57f1ce35","6796e1c0ff24ca17c453c51c","67c71ac70ca87dc786b3dd21","passed","","635","","","","","","","","","","","","","","j","yesOrNo","","","","7","","","gt","3000","","98","553.4711431702997","282.51"
"","","","","","html-keyboard-response","261","817196","0.0-24.0-0.2","652ebf9490189b8b57f1ce35","6796e1c0ff24ca17c453c51c","67c71ac70ca87dc786b3dd21","passed","","","","","","","","","","","","","","","","","ballFalling","322.3","308.07114317029976","253.89","2","fallScene","false","","","","99","",""
"","","","","","html-keyboard-response","262","820196","0.0-24.0-1.2","652ebf9490189b8b57f1ce35","6796e1c0ff24ca17c453c51c","67c71ac70ca87dc786b3dd21","passed","","513","","","","","","","","","","","","","","j","yesOrNo","","","","2","","","lp","3000","","99","321.3","151"
"","","","","","html-keyboard-response","263","821851","0.0-24.0-0.3","652ebf9490189b8b57f1ce35","6796e1c0ff24ca17c453c51c","67c71ac70ca87dc786b3dd21","passed","","","","","","","","","","","","","","","","","ballFalling","500","479.92114317029973","330.87","6","fallScene","false","","","","100","",""
"","","","","","html-keyboard-response","264","824852","0.0-24.0-1.3","652ebf9490189b8b57f1ce35","6796e1c0ff24ca17c453c51c","67c71ac70ca87dc786b3dd21","passed","","2889","","","","","","","","","","","","","","f","yesOrNo","","","","6","","","lp","3000","","100","499","189.92909825697632"
"","","","","","html-keyboard-response","265","826858","0.0-24.0-0.4","652ebf9490189b8b57f1ce35","6796e1c0ff24ca17c453c51c","67c71ac70ca87dc786b3dd21","passed","","","","","","","","","","","","","","","","","ballFalling","604.4000000000001","596.8711431702998","394.5","10","fallScene","false","","","","101","",""
"","","","","","html-keyboard-response","266","829859","0.0-24.0-1.4","652ebf9490189b8b57f1ce35","6796e1c0ff24ca17c453c51c","67c71ac70ca87dc786b3dd21","passed","","2219","","","","","","","","","","","","","","j","yesOrNo","","","","10","","","mid","3000","","101","536.4288568297004","300"
"","","","","","html-keyboard-response","267","831429","0.0-24.0-0.5","652ebf9490189b8b57f1ce35","6796e1c0ff24ca17c453c51c","67c71ac70ca87dc786b3dd21","passed","","","","","","","","","","","","","","","","","ballFalling","500","553.4711431702997","282.51","7","fallScene","false","","","","102","",""
"","","","","","html-keyboard-response","268","834430","0.0-24.0-1.5","652ebf9490189b8b57f1ce35","6796e1c0ff24ca17c453c51c","67c71ac70ca87dc786b3dd21","passed","","1067","","","","","","","","","","","","","","f","yesOrNo","","","","7","","","lp","3000","","102","501","227.2843295913261"
"","","","","","html-keyboard-response","269","835988","0.0-24.0-0.6","652ebf9490189b8b57f1ce35","6796e1c0ff24ca17c453c51c","67c71ac70ca87dc786b3dd21","passed","","","","","","","","","","","","","","","","","ballFalling","322.3","296.07114317029976","371.46","3","fallScene","true","","","","103","",""
"","","","","","html-keyboard-response","270","838988","0.0-24.0-1.6","652ebf9490189b8b57f1ce35","6796e1c0ff24ca17c453c51c","67c71ac70ca87dc786b3dd21","passed","","1580","","","","","","","","","","","","","","j","yesOrNo","","","","3","","","lp","3000","","103","321.3","287.3327096511259"
"","","","","","html-keyboard-response","271","840995","0.0-24.0-0.7","652ebf9490189b8b57f1ce35","6796e1c0ff24ca17c453c51c","67c71ac70ca87dc786b3dd21","passed","","","","","","","","","","","","","","","","","ballFalling","500","510.8711431702997","369.03","8","fallScene","false","","","","104","",""
"","","","","","html-keyboard-response","272","843996","0.0-24.0-1.7","652ebf9490189b8b57f1ce35","6796e1c0ff24ca17c453c51c","67c71ac70ca87dc786b3dd21","passed","","684","","","","","","","","","","","","","","j","yesOrNo","","","","8","","","gt","3000","","104","510.8711431702997","369.03"
"","","","","","html-keyboard-response","273","845554","0.0-24.0-0.8","652ebf9490189b8b57f1ce35","6796e1c0ff24ca17c453c51c","67c71ac70ca87dc786b3dd21","passed","","","","","","","","","","","","","","","","","ballFalling","322.3","379.3711431702997","245.25","1","fallScene","true","","","","105","",""
"","","","","","html-keyboard-response","274","848554","0.0-24.0-1.8","652ebf9490189b8b57f1ce35","6796e1c0ff24ca17c453c51c","67c71ac70ca87dc786b3dd21","passed","","806","","","","","","","","","","","","","","j","yesOrNo","","","","1","","","mid","3000","","105","390.27114317029975","300"
"","","","","","html-keyboard-response","275","850112","0.0-24.0-0.9","652ebf9490189b8b57f1ce35","6796e1c0ff24ca17c453c51c","67c71ac70ca87dc786b3dd21","passed","","","","","","","","","","","","","","","","","ballFalling","322.3","356.42114317029973","357.87","4","fallScene","true","","","","106","",""
"","","","","","html-keyboard-response","276","853113","0.0-24.0-1.9","652ebf9490189b8b57f1ce35","6796e1c0ff24ca17c453c51c","67c71ac70ca87dc786b3dd21","passed","","1715","","","","","","","","","","","","","","j","yesOrNo","","","","4","","","gt","3000","","106","356.42114317029973","357.87"
"","","","","","html-keyboard-response","277","855126","0.0-24.0-0.10","652ebf9490189b8b57f1ce35","6796e1c0ff24ca17c453c51c","67c71ac70ca87dc786b3dd21","passed","","","","","","","","","","","","","","","","","ballFalling","500","510.8711431702997","369.03","8","fallScene","false","","","","107","",""
"","","","","","html-keyboard-response","278","858127","0.0-24.0-1.10","652ebf9490189b8b57f1ce35","6796e1c0ff24ca17c453c51c","67c71ac70ca87dc786b3dd21","passed","","2816","","","","","","","","","","","","","","f","yesOrNo","","","","8","","","gt","3000","","107","510.8711431702997","369.03"
"","","","","","html-keyboard-response","279","860139","0.0-24.0-0.11","652ebf9490189b8b57f1ce35","6796e1c0ff24ca17c453c51c","67c71ac70ca87dc786b3dd21","passed","","","","","","","","","","","","","","","","","ballFalling","500","510.8711431702997","369.03","8","fallScene","true","","","","108","",""
"","","","","","html-keyboard-response","280","863140","0.0-24.0-1.11","652ebf9490189b8b57f1ce35","6796e1c0ff24ca17c453c51c","67c71ac70ca87dc786b3dd21","passed","","1690","","","","","","","","","","","","","","j","yesOrNo","","","","8","","","mid","3000","","108","501","300"
"","","","","","html-keyboard-response","281","864698","0.0-24.0-0.12","652ebf9490189b8b57f1ce35","6796e1c0ff24ca17c453c51c","67c71ac70ca87dc786b3dd21","passed","","","","","","","","","","","","","","","","","ballFalling","322.3","379.3711431702997","245.25","1","fallScene","true","","","","109","",""
"","","","","","html-keyboard-response","282","867698","0.0-24.0-1.12","652ebf9490189b8b57f1ce35","6796e1c0ff24ca17c453c51c","67c71ac70ca87dc786b3dd21","passed","","1958","","","","","","","","","","","","","","f","yesOrNo","","","","1","","","gt","3000","","109","379.3711431702997","245.25"
"","","","","","html-keyboard-response","283","869256","0.0-24.0-0.13","652ebf9490189b8b57f1ce35","6796e1c0ff24ca17c453c51c","67c71ac70ca87dc786b3dd21","passed","","","","","","","","","","","","","","","","","ballFalling","322.3","379.3711431702997","245.25","1","fallScene","false","","","","110","",""
"","","","","","html-keyboard-response","284","872257","0.0-24.0-1.13","652ebf9490189b8b57f1ce35","6796e1c0ff24ca17c453c51c","67c71ac70ca87dc786b3dd21","passed","","734","","","","","","","","","","","","","","f","yesOrNo","","","","1","","","lp","3000","","110","323.3","217.74551669457017"
"","","","","","html-keyboard-response","285","873912","0.0-24.0-0.14","652ebf9490189b8b57f1ce35","6796e1c0ff24ca17c453c51c","67c71ac70ca87dc786b3dd21","passed","","","","","","","","","","","","","","","","","ballFalling","500","479.92114317029973","330.87","6","fallScene","false","","","","111","",""
"","","","","","html-keyboard-response","286","876912","0.0-24.0-1.14","652ebf9490189b8b57f1ce35","6796e1c0ff24ca17c453c51c","67c71ac70ca87dc786b3dd21","passed","","719","","","","","","","","","","","","","","j","yesOrNo","","","","6","","","gt","3000","","111","479.9211431702998","330.87"
"","","","","","html-keyboard-response","287","878919","0.0-24.0-0.15","652ebf9490189b8b57f1ce35","6796e1c0ff24ca17c453c51c","67c71ac70ca87dc786b3dd21","passed","","","","","","","","","","","","","","","","","ballFalling","604.4000000000001","596.8711431702998","394.5","10","fallScene","false","","","","112","",""
"","","","","","html-keyboard-response","288","881920","0.0-24.0-1.15","652ebf9490189b8b57f1ce35","6796e1c0ff24ca17c453c51c","67c71ac70ca87dc786b3dd21","passed","","1258","","","","","","","","","","","","","","f","yesOrNo","","","","10","","","lp","3000","","112","603.4000000000001","215.50214355555383"
"","","","","","html-keyboard-response","289","883411","0.0-24.0-0.16","652ebf9490189b8b57f1ce35","6796e1c0ff24ca17c453c51c","67c71ac70ca87dc786b3dd21","passed","","","","","","","","","","","","","","","","","ballFalling","604.4000000000001","667.6211431702998","201.78","9","fallScene","false","","","","113","",""
"","","","","","html-keyboard-response","290","886412","0.0-24.0-1.16","652ebf9490189b8b57f1ce35","6796e1c0ff24ca17c453c51c","67c71ac70ca87dc786b3dd21","passed","","887","","","","","","","","","","","","","","f","yesOrNo","","","","9","","","lp","3000","","113","605.4000000000001","151"
"","","","","","html-keyboard-response","291","887903","0.0-24.0-0.17","652ebf9490189b8b57f1ce35","6796e1c0ff24ca17c453c51c","67c71ac70ca87dc786b3dd21","passed","","","","","","","","","","","","","","","","","ballFalling","604.4000000000001","667.6211431702998","201.78","9","fallScene","false","","","","114","",""
"","","","","","html-keyboard-response","292","890904","0.0-24.0-1.17","652ebf9490189b8b57f1ce35","6796e1c0ff24ca17c453c51c","67c71ac70ca87dc786b3dd21","passed","","2368","","","","","","","","","","","","","","f","yesOrNo","","","","9","","","gt","3000","","114","667.6211431702998","201.78"
"","","","","","html-keyboard-response","293","892462","0.0-24.0-0.18","652ebf9490189b8b57f1ce35","6796e1c0ff24ca17c453c51c","67c71ac70ca87dc786b3dd21","passed","","","","","","","","","","","","","","","","","ballFalling","322.3","296.07114317029976","371.46","3","fallScene","true","","","","115","",""
"","","","","","html-keyboard-response","294","895462","0.0-24.0-1.18","652ebf9490189b8b57f1ce35","6796e1c0ff24ca17c453c51c","67c71ac70ca87dc786b3dd21","passed","","787","","","","","","","","","","","","","","f","yesOrNo","","","","3","","","mid","3000","","115","321.3","300"
"","","","","","html-keyboard-response","295","897020","0.0-24.0-0.19","652ebf9490189b8b57f1ce35","6796e1c0ff24ca17c453c51c","67c71ac70ca87dc786b3dd21","passed","","","","","","","","","","","","","","","","","ballFalling","604.4000000000001","575.4211431702997","266.76","12","fallScene","true","","","","116","",""
"","","","","","html-keyboard-response","296","900021","0.0-24.0-1.19","652ebf9490189b8b57f1ce35","6796e1c0ff24ca17c453c51c","67c71ac70ca87dc786b3dd21","passed","","549","","","","","","","","","","","","","","f","yesOrNo","","","","12","","","lp","3000","","116","603.4000000000001","151"
"","","","","","html-keyboard-response","297","901809","0.0-24.0-0.20","652ebf9490189b8b57f1ce35","6796e1c0ff24ca17c453c51c","67c71ac70ca87dc786b3dd21","passed","","","","","","","","","","","","","","","","","ballFalling","322.3","308.07114317029976","253.89","2","fallScene","false","","","","117","",""
"","","","","","html-keyboard-response","298","904810","0.0-24.0-1.20","652ebf9490189b8b57f1ce35","6796e1c0ff24ca17c453c51c","67c71ac70ca87dc786b3dd21","passed","","1023","","","","","","","","","","","","","","j","yesOrNo","","","","2","","","mid","3000","","117","321.3","300"
"","","","","","html-keyboard-response","299","906822","0.0-24.0-0.21","652ebf9490189b8b57f1ce35","6796e1c0ff24ca17c453c51c","67c71ac70ca87dc786b3dd21","passed","","","","","","","","","","","","","","","","","ballFalling","500","510.8711431702997","369.03","8","fallScene","false","","","","118","",""
"","","","","","html-keyboard-response","300","909823","0.0-24.0-1.21","652ebf9490189b8b57f1ce35","6796e1c0ff24ca17c453c51c","67c71ac70ca87dc786b3dd21","passed","","525","","","","","","","","","","","","","","j","yesOrNo","","","","8","","","lp","3000","","118","501","151"
"","","","","","html-keyboard-response","301","911381","0.0-24.0-0.22","652ebf9490189b8b57f1ce35","6796e1c0ff24ca17c453c51c","67c71ac70ca87dc786b3dd21","passed","","","","","","","","","","","","","","","","","ballFalling","322.3","356.42114317029973","357.87","4","fallScene","true","","","","119","",""
"","","","","","html-keyboard-response","302","914382","0.0-24.0-1.22","652ebf9490189b8b57f1ce35","6796e1c0ff24ca17c453c51c","67c71ac70ca87dc786b3dd21","passed","","1149","","","","","","","","","","","","","","j","yesOrNo","","","","4","","","gt","3000","","119","356.42114317029973","357.87"
"","","","","","html-keyboard-response","303","915873","0.0-24.0-0.23","652ebf9490189b8b57f1ce35","6796e1c0ff24ca17c453c51c","67c71ac70ca87dc786b3dd21","passed","","","","","","","","","","","","","","","","","ballFalling","604.4000000000001","667.6211431702998","201.78","9","fallScene","false","","","","120","",""
"","","","","","html-keyboard-response","304","918874","0.0-24.0-1.23","652ebf9490189b8b57f1ce35","6796e1c0ff24ca17c453c51c","67c71ac70ca87dc786b3dd21","passed","","2086","","","","","","","","","","","","","","j","yesOrNo","","","","9","","","mid","3000","","120","605.4000000000001","300"
"","","","","","html-keyboard-response","305","932411","0.0-25.0","652ebf9490189b8b57f1ce35","6796e1c0ff24ca17c453c51c","67c71ac70ca87dc786b3dd21","passed","","13537","","","","","","","","","","","","","<p><span style=""font-size:40px;"">BLOCK 6</span></p><p><span style=""font-size:25px;"">You have <b style=""color: #FF644F;""><strong>0.7 second(s)</strong></b> to respond to the following trials.</span><br></p><p></p> <!-- Blank line -->
                <p id=""blinking-text"" style=""font-weight; animation: blink 2s infinite;"">Press Space to continue</p>
                <style>
                    @keyframes blink {
                        50% {
                            opacity: 0;
                        }
                    }
                </style></p>"," ","","","","","","","","","","","","",""
"","","","","","html-keyboard-response","306","934423","0.0-26.0-0.0","652ebf9490189b8b57f1ce35","6796e1c0ff24ca17c453c51c","67c71ac70ca87dc786b3dd21","passed","","","","","","","","","","","","","","","","","ballFalling","500","510.8711431702997","369.03","8","fallScene","true","","","","121","",""
"","","","","","html-keyboard-response","307","935126","0.0-26.0-1.0","652ebf9490189b8b57f1ce35","6796e1c0ff24ca17c453c51c","67c71ac70ca87dc786b3dd21","passed","","379","","","","","","","","","","","","","","j","yesOrNo","","","","8","","","lp","700","","121","501","151"
