"success","timeout","failed_images","failed_audio","failed_video","trial_type","trial_index","time_elapsed","internal_node_id","subject_id","study_id","session_id","practiceTestResult","view_history","rt","width","height","webaudio","browser","browser_version","mobile","os","fullscreen","vsync_rate","webcam","microphone","url","stimulus","response","task","ball_X","obstacle_groundTruth_x","obstacle_groundTruth_y","stimulus_idx","trial_name","flipped","choice","timeLimit","question_order","currentTrial","obstacle_choice_x","obstacle_choice_y"
"true","false","[]","[]","[]","preload","0","1053","0.0-0.0","65e254b55a2803a51872aef0","6796e1c0ff24ca17c453c51c","67c7261aa0e51b4c07d279e3","passed","","","","","","","","","","","","","","","","","","","","","","","","","","","","",""
"","","","","","instructions","1","54751","0.0-1.0","65e254b55a2803a51872aef0","6796e1c0ff24ca17c453c51c","67c7261aa0e51b4c07d279e3","passed","[{""page_index"":0,""viewing_time"":53693}]","53696","","","","","","","","","","","","","","","","","","","","","","","","","","",""
"","","","","","browser-check","2","56722","0.0-2.0","65e254b55a2803a51872aef0","6796e1c0ff24ca17c453c51c","67c7261aa0e51b4c07d279e3","passed","","","1440","872","true","chrome","133.0.0","false","Windows 10","true","30.75","true","true","","","","","","","","","","","","","","","",""
"","","","","","external-html","3","94696","0.0-3.0","65e254b55a2803a51872aef0","6796e1c0ff24ca17c453c51c","67c7261aa0e51b4c07d279e3","passed","","37648","","","","","","","","","","","","consent.html","","","","","","","","","","","","","","",""
"true","","","","","fullscreen","4","427981","0.0-4.0","65e254b55a2803a51872aef0","6796e1c0ff24ca17c453c51c","67c7261aa0e51b4c07d279e3","passed","","332972","","","","","","","","","","","","","","","","","","","","","","","","","","",""
"","","","","","browser-check","5","428969","0.0-5.0","65e254b55a2803a51872aef0","6796e1c0ff24ca17c453c51c","67c7261aa0e51b4c07d279e3","passed","","","1440","960","true","chrome","133.0.0","false","Windows 10","true","60.87","true","true","","","","","","","","","","","","","","","",""
"","","","","","html-keyboard-response","6","435123","0.0-6.0","65e254b55a2803a51872aef0","6796e1c0ff24ca17c453c51c","67c7261aa0e51b4c07d279e3","passed","","6153","","","","","","","","","","","","","<p><b>This experiment requires keyboard input.</b></p> 
        <p><b>To ensure your response will be recorded successfully, please press 'Space' to continue.</b></p>
        <p>If you can't proceed, you won't be able to complete this study.</p>
        <p></p> <!-- Blank line -->
        <p id=""blinking-text"" style=""font-weight; animation: blink 2s infinite;"">Press Space to continue</p>
        <style>
            @keyframes blink {
                50% {
                    opacity: 0;
                }
            }
        </style>"," ","","","","","","","","","","","","",""
"","","","","","html-keyboard-response","7","440067","0.0-7.0","65e254b55a2803a51872aef0","6796e1c0ff24ca17c453c51c","67c7261aa0e51b4c07d279e3","passed","","4943","","","","","","","","","","","","","<p><b>This experiment requires keyboard input.</b></p> 
        <p><b>To ensure your response will be recorded successfully, please press the 'f' key to continue.</b></p>
        <p>If you can't proceed, you won't be able to complete this study.</p>
        <p></p> <!-- Blank line -->
        <p id=""blinking-text"" style=""font-weight; animation: blink 2s infinite;"">Press f to continue</p>
        <style>
            @keyframes blink {
                50% {
                    opacity: 0;
                }
            }
        </style>","f","","","","","","","","","","","","",""
"","","","","","html-keyboard-response","8","441354","0.0-8.0","65e254b55a2803a51872aef0","6796e1c0ff24ca17c453c51c","67c7261aa0e51b4c07d279e3","passed","","1285","","","","","","","","","","","","","<p><b>This experiment requires keyboard input.</b></p> 
        <p><b>To ensure your response will be recorded successfully, please press the 'j' key to continue.</b></p>
        <p>If you can't proceed, you won't be able to complete this study.</p>
        <p></p> <!-- Blank line -->
        <p id=""blinking-text"" style=""font-weight; animation: blink 2s infinite;"">Press j to continue</p>
        <style>
            @keyframes blink {
                50% {
                    opacity: 0;
                }
            }
        </style>","j","","","","","","","","","","","","",""
"","","","","","browser-check","9","442360","0.0-9.0","65e254b55a2803a51872aef0","6796e1c0ff24ca17c453c51c","67c7261aa0e51b4c07d279e3","passed","","","1440","960","true","chrome","133.0.0","false","Windows 10","true","60.01","true","true","","","","","","","","","","","","","","","",""
"","","","","","survey-text","10","448966","0.0-10.0","65e254b55a2803a51872aef0","6796e1c0ff24ca17c453c51c","67c7261aa0e51b4c07d279e3","passed","","6602","","","","","","","","","","","","","","{""prolificID"":""65e254b55a2803a51872aef0""}","","","","","","","","","","","","",""
"","","","","","instructions","11","547723","0.0-11.0-0.0-0.0","65e254b55a2803a51872aef0","6796e1c0ff24ca17c453c51c","67c7261aa0e51b4c07d279e3","passed","[{""page_index"":0,""viewing_time"":52777},{""page_index"":1,""viewing_time"":23038},{""page_index"":2,""viewing_time"":8819},{""page_index"":3,""viewing_time"":14123}]","98757","","","","","","","","","","","","","","","","","","","","","","","","","","",""
"","","","","","html-keyboard-response","12","675320","0.0-11.0-0.0-1.0","65e254b55a2803a51872aef0","6796e1c0ff24ca17c453c51c","67c7261aa0e51b4c07d279e3","passed","","127091","","","","","","","","","","","","","<br>Remember! After a ball falls, the screen will disappear, and you'll decide if the proposed position is where the hidden triangle was. <br>You will now practice this by watching a few videos and making decisions.<p>To respond:<br style=""margin-bottom: 5px; text-indent: -20px; padding-left: 20px;"">- Press <b style=""color: #12AD2B;"">J for Yes</b>, if you think the triangle is in the correct position.<br style=""margin-top: 0; text-indent: -20px; padding-left: 20px;"">- Press <b style=""color: orange;"">F for No</b>, if you think the triangle is not in the correct position.</p><p>In this practice round, there is no time limit. Focus on getting comfortable with the task first.<br>Press either J or F to begin your practice trials.</p><img src = ""YesOrNo_instruction.png"" style=""width: 65%;""></img>","f","","","","","","","","","","","","",""
"","","","","","html-keyboard-response","13","676826","0.0-11.0-0.0-2.0-0.0","65e254b55a2803a51872aef0","6796e1c0ff24ca17c453c51c","67c7261aa0e51b4c07d279e3","passed","","","","","","","","","","","","","","","","","ballFalling_prac","441","414","302","5","fallScene","true","","","","","",""
"","","","","","html-keyboard-response","14","678673","0.0-11.0-0.0-2.0-1.0","65e254b55a2803a51872aef0","6796e1c0ff24ca17c453c51c","67c7261aa0e51b4c07d279e3","passed","","1842","","","","","","","","","","","","","","j","yesOrNo_prac_noTimed","","","","5","","","close gt","NA","","","",""
"","","","","","html-keyboard-response","15","680226","0.0-11.0-0.0-2.0-0.1","65e254b55a2803a51872aef0","6796e1c0ff24ca17c453c51c","67c7261aa0e51b4c07d279e3","passed","","","","","","","","","","","","","","","","","ballFalling_prac","416","464","296","1","fallScene","false","","","","","",""
"","","","","","html-keyboard-response","16","681266","0.0-11.0-0.0-2.0-1.1","65e254b55a2803a51872aef0","6796e1c0ff24ca17c453c51c","67c7261aa0e51b4c07d279e3","passed","","1038","","","","","","","","","","","","","","j","yesOrNo_prac_noTimed","","","","1","","","gt","NA","","","",""
"","","","","","html-keyboard-response","17","683376","0.0-11.0-0.0-2.0-0.2","65e254b55a2803a51872aef0","6796e1c0ff24ca17c453c51c","67c7261aa0e51b4c07d279e3","passed","","","","","","","","","","","","","","","","","ballFalling_prac","660","666","350","3","fallScene","false","","","","","",""
"","","","","","html-keyboard-response","18","684682","0.0-11.0-0.0-2.0-1.2","65e254b55a2803a51872aef0","6796e1c0ff24ca17c453c51c","67c7261aa0e51b4c07d279e3","passed","","1304","","","","","","","","","","","","","","f","yesOrNo_prac_noTimed","","","","3","","","wrong direction","NA","","","",""
"","","","","","instructions","19","830926","0.0-11.0-0.0-3.0","65e254b55a2803a51872aef0","6796e1c0ff24ca17c453c51c","67c7261aa0e51b4c07d279e3","passed","[{""page_index"":0,""viewing_time"":118549},{""page_index"":1,""viewing_time"":27694}]","146243","","","","","","","","","","","","","","","","","","","","","","","","","","",""
"","","","","","html-button-response","20","836775","0.0-11.0-0.0-4.0","65e254b55a2803a51872aef0","6796e1c0ff24ca17c453c51c","67c7261aa0e51b4c07d279e3","passed","","5344","","","","","","","","","","","","","<p>To make sure you understood the task, we just have a <b>brief quiz</b> here.</p><p>If you need to review the instructions, click 'Previous'.</p><p>It's important to understand the task to do the study, so you have to pass the quiz to move to the study.</p>","1","","","","","","","","","","","","",""
"","","","","","survey-multi-choice","21","857780","0.0-11.0-1.0-0.0","65e254b55a2803a51872aef0","6796e1c0ff24ca17c453c51c","67c7261aa0e51b4c07d279e3","passed","","21002","","","","","","","","","","","","","","{""generalProcedure"":""Watch a video of a ball falling, some of it behind a gray screen. After each video, decide if the triangle is at the spot where the ball hit the triangle behind the screen. There is time limit for the response.""}","","","","","","","","","","[0]","","",""
"","","","","","survey-multi-choice","22","864555","0.0-11.0-1.0-1.0","65e254b55a2803a51872aef0","6796e1c0ff24ca17c453c51c","67c7261aa0e51b4c07d279e3","passed","","6774","","","","","","","","","","","","","","{""checkBallHitObstacle"":""Yes.""}","","","","","","","","","","[0]","","",""
"","","","","","survey-multi-choice","23","871512","0.0-11.0-1.0-2.0","65e254b55a2803a51872aef0","6796e1c0ff24ca17c453c51c","67c7261aa0e51b4c07d279e3","passed","","6955","","","","","","","","","","","","","","{""checkTriangleVisibility"":""No, the triangle is hidden behind the gray screen.""}","","","","","","","","","","[0]","","",""
"","","","","","survey-multi-choice","24","875938","0.0-11.0-1.0-3.0","65e254b55a2803a51872aef0","6796e1c0ff24ca17c453c51c","67c7261aa0e51b4c07d279e3","passed","","4424","","","","","","","","","","","","","","{""checkTimedResponse"":""Your response will not be recorded, and the trial will move to the next one.""}","","","","","","","","","","[0]","","",""
"","","","","","survey-multi-choice","25","881731","0.0-11.0-1.0-4.0","65e254b55a2803a51872aef0","6796e1c0ff24ca17c453c51c","67c7261aa0e51b4c07d279e3","passed","","5791","","","","","","","","","","","","","","{""checkTimeBlockNotice"":""At the beginning of each block.""}","","","","","","","","","","[0]","","",""
"","","","","","survey-multi-choice","26","888473","0.0-11.0-1.0-5.0","65e254b55a2803a51872aef0","6796e1c0ff24ca17c453c51c","67c7261aa0e51b4c07d279e3","passed","","6740","","","","","","","","","","","","","","{""checkTimeBlockSameness"":""Yes, the time limit is the same for all trials within a block.""}","","","","","","","","","","[0]","","",""
"","","","","","survey-multi-choice","27","910429","0.0-11.0-1.0-6.0","65e254b55a2803a51872aef0","6796e1c0ff24ca17c453c51c","67c7261aa0e51b4c07d279e3","passed","","21953","","","","","","","","","","","","","","{""checkTrianglePrecision"":""No. The proposed purple triangle is not in the correct position because it doesn't match the location of the white triangle exactly.""}","","","","","","","","","","[0]","","",""
"","","","","","instructions","28","932560","0.0-12.0","65e254b55a2803a51872aef0","6796e1c0ff24ca17c453c51c","67c7261aa0e51b4c07d279e3","passed","[{""page_index"":0,""viewing_time"":7735},{""page_index"":1,""viewing_time"":4898},{""page_index"":2,""viewing_time"":4896},{""page_index"":3,""viewing_time"":4600}]","22130","","","","","","","","","","","","","","","","","","","","","","","","","","",""
"","","","","","instructions","29","943693","0.0-13.0-0.0","65e254b55a2803a51872aef0","6796e1c0ff24ca17c453c51c","67c7261aa0e51b4c07d279e3","passed","[{""page_index"":0,""viewing_time"":11131}]","11132","","","","","","","","","","","","","","","","","","","","","","","","","","",""
"","","","","","html-keyboard-response","30","947458","0.0-13.0-1.0","65e254b55a2803a51872aef0","6796e1c0ff24ca17c453c51c","67c7261aa0e51b4c07d279e3","passed","","3764","","","","","","","","","","","","","<p><span style=""font-size:40px;"">Practice BLOCK 1</span></p><p><span style=""font-size:25px;"">You have <b style=""color: #FF644F;""><strong>3 second(s)</strong></b> to respond to the following trials.</span><br></p><p id=""blinking-text"" style=""font-weight; animation: blink 2s infinite;"">Press Space to continue</p><style>
                    @keyframes blink {
                        50% {
                            opacity: 0;
                        }
                    }
                </style>"," ","","","","","","","","","","","","",""
"","","","","","html-keyboard-response","31","949018","0.0-13.0-2.0-0.0","65e254b55a2803a51872aef0","6796e1c0ff24ca17c453c51c","67c7261aa0e51b4c07d279e3","passed","","","","","","","","","","","","","","","","","ballFalling_prac","584","536","296","1","fallScene","true","","","","","",""
"","","","","","html-keyboard-response","32","952033","0.0-13.0-2.0-1.0","65e254b55a2803a51872aef0","6796e1c0ff24ca17c453c51c","67c7261aa0e51b4c07d279e3","passed","","979","","","","","","","","","","","","","","f","yesOrNo_prac","","","","1","","","close gt","3000","","","",""
"","","","","","html-keyboard-response","33","953584","0.0-13.0-2.0-0.1","65e254b55a2803a51872aef0","6796e1c0ff24ca17c453c51c","67c7261aa0e51b4c07d279e3","passed","","","","","","","","","","","","","","","","","ballFalling_prac","416","464","296","1","fallScene","false","","","","","",""
"","","","","","html-keyboard-response","34","956594","0.0-13.0-2.0-1.1","65e254b55a2803a51872aef0","6796e1c0ff24ca17c453c51c","67c7261aa0e51b4c07d279e3","passed","","1135","","","","","","","","","","","","","","j","yesOrNo_prac","","","","1","","","far gt","3000","","","",""
"","","","","","html-keyboard-response","35","958167","0.0-13.0-2.0-0.2","65e254b55a2803a51872aef0","6796e1c0ff24ca17c453c51c","67c7261aa0e51b4c07d279e3","passed","","","","","","","","","","","","","","","","","ballFalling_prac","660","610","263","4","fallScene","false","","","","","",""
"","","","","","html-keyboard-response","36","961184","0.0-13.0-2.0-1.2","65e254b55a2803a51872aef0","6796e1c0ff24ca17c453c51c","67c7261aa0e51b4c07d279e3","passed","","2151","","","","","","","","","","","","","","f","yesOrNo_prac","","","","4","","","gt","3000","","","",""
"","","","","","html-keyboard-response","37","963285","0.0-13.0-3.0","65e254b55a2803a51872aef0","6796e1c0ff24ca17c453c51c","67c7261aa0e51b4c07d279e3","passed","","2101","","","","","","","","","","","","","<p><span style=""font-size:40px;"">Practice BLOCK 2</span></p><p><span style=""font-size:25px;"">You have <b style=""color: #FF644F;""><strong>0.7 second(s)</strong></b> to respond to the following trials.</span><br></p><p id=""blinking-text"" style=""font-weight; animation: blink 2s infinite;"">Press Space to continue</p><style>
                    @keyframes blink {
                        50% {
                            opacity: 0;
                        }
                    }
                </style>"," ","","","","","","","","","","","","",""
"","","","","","html-keyboard-response","38","964850","0.0-13.0-4.0-0.0","65e254b55a2803a51872aef0","6796e1c0ff24ca17c453c51c","67c7261aa0e51b4c07d279e3","passed","","","","","","","","","","","","","","","","","ballFalling_prac","441","500","317","6","fallScene","true","","","","","",""
"","","","","","html-keyboard-response","39","965565","0.0-13.0-4.0-1.0","65e254b55a2803a51872aef0","6796e1c0ff24ca17c453c51c","67c7261aa0e51b4c07d279e3","passed","","459","","","","","","","","","","","","","","f","yesOrNo_prac","","","","6","","","gt","700","","","",""
"","","","","","html-keyboard-response","40","967134","0.0-13.0-4.0-0.1","65e254b55a2803a51872aef0","6796e1c0ff24ca17c453c51c","67c7261aa0e51b4c07d279e3","passed","","","","","","","","","","","","","","","","","ballFalling_prac","660","610","263","4","fallScene","false","","","","","",""
"","","","","","html-keyboard-response","41","967838","0.0-13.0-4.0-1.1","65e254b55a2803a51872aef0","6796e1c0ff24ca17c453c51c","67c7261aa0e51b4c07d279e3","passed","","479","","","","","","","","","","","","","","j","yesOrNo_prac","","","","4","","","far gt","700","","","",""
"","","","","","html-keyboard-response","42","969951","0.0-13.0-4.0-0.2","65e254b55a2803a51872aef0","6796e1c0ff24ca17c453c51c","67c7261aa0e51b4c07d279e3","passed","","","","","","","","","","","","","","","","","ballFalling_prac","340","334","350","3","fallScene","true","","","","","",""
"","","","","","html-keyboard-response","43","970657","0.0-13.0-4.0-1.2","65e254b55a2803a51872aef0","6796e1c0ff24ca17c453c51c","67c7261aa0e51b4c07d279e3","passed","","472","","","","","","","","","","","","","","f","yesOrNo_prac","","","","3","","","close gt","700","","","",""
"","","","","","instructions","44","980311","0.0-13.0-5.0","65e254b55a2803a51872aef0","6796e1c0ff24ca17c453c51c","67c7261aa0e51b4c07d279e3","passed","[{""page_index"":0,""viewing_time"":9653}]","9654","","","","","","","","","","","","","","","","","","","","","","","","","","",""
"","","","","","html-keyboard-response","45","983831","0.0-13.0-6.0","65e254b55a2803a51872aef0","6796e1c0ff24ca17c453c51c","67c7261aa0e51b4c07d279e3","passed","","3519","","","","","","","","","","","","","<p><span style=""font-size:40px;"">Practice Test BLOCK 1</span></p><p><span style=""font-size:25px;"">You have <b style=""color: #FF644F;""><strong>0.7 second(s)</strong></b> to respond to the following trials.</span><br></p><p id=""blinking-text"" style=""font-weight; animation: blink 2s infinite;"">Press Space to continue</p><style>
                    @keyframes blink {
                        50% {
                            opacity: 0;
                        }
                    }
                </style>"," ","","","","","","","","","","","","",""
"","","","","","html-keyboard-response","46","985401","0.0-13.0-7.0-0.0","65e254b55a2803a51872aef0","6796e1c0ff24ca17c453c51c","67c7261aa0e51b4c07d279e3","passed","","","","","","","","","","","","","","","","","ballFalling_prac","559","586","302","5","fallScene","false","","","","","",""
"","","","","","html-keyboard-response","47","986117","0.0-13.0-7.0-1.0","65e254b55a2803a51872aef0","6796e1c0ff24ca17c453c51c","67c7261aa0e51b4c07d279e3","passed","","375","","","","","","","","","","","","","","j","yesOrNo_prac","","","","5","","","gt","700","","","",""
"","","","","","html-keyboard-response","48","987684","0.0-13.0-7.0-0.1","65e254b55a2803a51872aef0","6796e1c0ff24ca17c453c51c","67c7261aa0e51b4c07d279e3","passed","","","","","","","","","","","","","","","","","ballFalling_prac","441","500","317","6","fallScene","true","","","","","",""
"","","","","","html-keyboard-response","49","988392","0.0-13.0-7.0-1.1","65e254b55a2803a51872aef0","6796e1c0ff24ca17c453c51c","67c7261aa0e51b4c07d279e3","passed","","525","","","","","","","","","","","","","","j","yesOrNo_prac","","","","6","","","close gt","700","","","",""
"","","","","","html-keyboard-response","50","989967","0.0-13.0-7.0-0.2","65e254b55a2803a51872aef0","6796e1c0ff24ca17c453c51c","67c7261aa0e51b4c07d279e3","passed","","","","","","","","","","","","","","","","","ballFalling_prac","340","390","263","4","fallScene","true","","","","","",""
"","","","","","html-keyboard-response","51","990674","0.0-13.0-7.0-1.2","65e254b55a2803a51872aef0","6796e1c0ff24ca17c453c51c","67c7261aa0e51b4c07d279e3","passed","","496","","","","","","","","","","","","","","f","yesOrNo_prac","","","","4","","","far gt","700","","","",""
"","","","","","html-keyboard-response","52","993397","0.0-13.0-8.0","65e254b55a2803a51872aef0","6796e1c0ff24ca17c453c51c","67c7261aa0e51b4c07d279e3","passed","","2722","","","","","","","","","","","","","<p><span style=""font-size:40px;"">Practice Test BLOCK 2</span></p><p><span style=""font-size:25px;"">You have <b style=""color: #FF644F;""><strong>3 second(s)</strong></b> to respond to the following trials.</span><br></p><p id=""blinking-text"" style=""font-weight; animation: blink 2s infinite;"">Press Space to continue</p><style>
                    @keyframes blink {
                        50% {
                            opacity: 0;
                        }
                    }
                </style>"," ","","","","","","","","","","","","",""
"","","","","","html-keyboard-response","53","994967","0.0-13.0-9.0-0.0","65e254b55a2803a51872aef0","6796e1c0ff24ca17c453c51c","67c7261aa0e51b4c07d279e3","passed","","","","","","","","","","","","","","","","","ballFalling_prac","416","365","249","2","fallScene","false","","","","","",""
"","","","","","html-keyboard-response","54","997978","0.0-13.0-9.0-1.0","65e254b55a2803a51872aef0","6796e1c0ff24ca17c453c51c","67c7261aa0e51b4c07d279e3","passed","","1237","","","","","","","","","","","","","","j","yesOrNo_prac","","","","2","","","gt","3000","","","",""
"","","","","","html-keyboard-response","55","999550","0.0-13.0-9.0-0.1","65e254b55a2803a51872aef0","6796e1c0ff24ca17c453c51c","67c7261aa0e51b4c07d279e3","passed","","","","","","","","","","","","","","","","","ballFalling_prac","340","390","263","4","fallScene","true","","","","","",""
"","","","","","html-keyboard-response","56","1002562","0.0-13.0-9.0-1.1","65e254b55a2803a51872aef0","6796e1c0ff24ca17c453c51c","67c7261aa0e51b4c07d279e3","passed","","923","","","","","","","","","","","","","","j","yesOrNo_prac","","","","4","","","close gt","3000","","","",""
"","","","","","html-keyboard-response","57","1004134","0.0-13.0-9.0-0.2","65e254b55a2803a51872aef0","6796e1c0ff24ca17c453c51c","67c7261aa0e51b4c07d279e3","passed","","","","","","","","","","","","","","","","","ballFalling_prac","559","586","302","5","fallScene","false","","","","","",""
"","","","","","html-keyboard-response","58","1007143","0.0-13.0-9.0-1.2","65e254b55a2803a51872aef0","6796e1c0ff24ca17c453c51c","67c7261aa0e51b4c07d279e3","passed","","701","","","","","","","","","","","","","","f","yesOrNo_prac","","","","5","","","far gt","3000","","","",""
"","","","","","instructions","59","1063378","0.0-14.0","65e254b55a2803a51872aef0","6796e1c0ff24ca17c453c51c","67c7261aa0e51b4c07d279e3","passed","[{""page_index"":0,""viewing_time"":56233}]","56234","","","","","","","","","","","","","","","","","","","","","","","","","","",""
"","","","","","html-keyboard-response","60","1065552","0.0-15.0","65e254b55a2803a51872aef0","6796e1c0ff24ca17c453c51c","67c7261aa0e51b4c07d279e3","passed","","2172","","","","","","","","","","","","","<p><span style=""font-size:40px;"">BLOCK 1</span></p><p><span style=""font-size:25px;"">You have <b style=""color: #FF644F;""><strong>0.7 second(s)</strong></b> to respond to the following trials.</span><br></p><p></p> <!-- Blank line -->
                <p id=""blinking-text"" style=""font-weight; animation: blink 2s infinite;"">Press Space to continue</p>
                <style>
                    @keyframes blink {
                        50% {
                            opacity: 0;
                        }
                    }
                </style></p>"," ","","","","","","","","","","","","",""
"","","","","","html-keyboard-response","61","1067117","0.0-16.0-0.0","65e254b55a2803a51872aef0","6796e1c0ff24ca17c453c51c","67c7261aa0e51b4c07d279e3","passed","","","","","","","","","","","","","","","","","ballFalling","604.4000000000001","650.0211431702996","404.58000000000004","11","fallScene","true","","","","1","",""
"","","","","","html-keyboard-response","62","1067824","0.0-16.0-1.0","65e254b55a2803a51872aef0","6796e1c0ff24ca17c453c51c","67c7261aa0e51b4c07d279e3","passed","","399","","","","","","","","","","","","","","j","yesOrNo","","","","11","","","gt","700","","1","650.0211431702996","404.58"
"","","","","","html-keyboard-response","63","1069384","0.0-16.0-0.1","65e254b55a2803a51872aef0","6796e1c0ff24ca17c453c51c","67c7261aa0e51b4c07d279e3","passed","","","","","","","","","","","","","","","","","ballFalling","604.4000000000001","650.0211431702996","404.58000000000004","11","fallScene","false","","","","2","",""
"","","","","","html-keyboard-response","64","1070091","0.0-16.0-1.1","65e254b55a2803a51872aef0","6796e1c0ff24ca17c453c51c","67c7261aa0e51b4c07d279e3","passed","","509","","","","","","","","","","","","","","f","yesOrNo","","","","11","","","lp","700","","2","605.4000000000001","372.6340973215488"
"","","","","","html-keyboard-response","65","1071651","0.0-16.0-0.2","65e254b55a2803a51872aef0","6796e1c0ff24ca17c453c51c","67c7261aa0e51b4c07d279e3","passed","","","","","","","","","","","","","","","","","ballFalling","322.3","356.42114317029973","357.87","4","fallScene","false","","","","3","",""
"","","","","","html-keyboard-response","66","1072368","0.0-16.0-1.2","65e254b55a2803a51872aef0","6796e1c0ff24ca17c453c51c","67c7261aa0e51b4c07d279e3","passed","","442","","","","","","","","","","","","","","f","yesOrNo","","","","4","","","lp","700","","3","323.3","297.4070551689986"
"","","","","","html-keyboard-response","67","1073934","0.0-16.0-0.3","65e254b55a2803a51872aef0","6796e1c0ff24ca17c453c51c","67c7261aa0e51b4c07d279e3","passed","","","","","","","","","","","","","","","","","ballFalling","322.3","296.07114317029976","371.46","3","fallScene","false","","","","4","",""
"","","","","","html-keyboard-response","68","1074635","0.0-16.0-1.3","65e254b55a2803a51872aef0","6796e1c0ff24ca17c453c51c","67c7261aa0e51b4c07d279e3","passed","","343","","","","","","","","","","","","","","j","yesOrNo","","","","3","","","gt","700","","4","296.07114317029976","371.46"
"","","","","","html-keyboard-response","69","1076217","0.0-16.0-0.4","65e254b55a2803a51872aef0","6796e1c0ff24ca17c453c51c","67c7261aa0e51b4c07d279e3","passed","","","","","","","","","","","","","","","","","ballFalling","500","553.4711431702997","282.51","7","fallScene","false","","","","5","",""
"","","","","","html-keyboard-response","70","1076931","0.0-16.0-1.4","65e254b55a2803a51872aef0","6796e1c0ff24ca17c453c51c","67c7261aa0e51b4c07d279e3","passed","","435","","","","","","","","","","","","","","f","yesOrNo","","","","7","","","mid","700","","5","501","300"
"","","","","","html-keyboard-response","71","1078934","0.0-16.0-0.5","65e254b55a2803a51872aef0","6796e1c0ff24ca17c453c51c","67c7261aa0e51b4c07d279e3","passed","","","","","","","","","","","","","","","","","ballFalling","500","510.8711431702997","369.03","8","fallScene","true","","","","6","",""
"","","","","","html-keyboard-response","72","1079638","0.0-16.0-1.5","65e254b55a2803a51872aef0","6796e1c0ff24ca17c453c51c","67c7261aa0e51b4c07d279e3","passed","","463","","","","","","","","","","","","","","j","yesOrNo","","","","8","","","gt","700","","6","510.8711431702997","369.03"
"","","","","","html-keyboard-response","73","1081661","0.0-16.0-0.6","65e254b55a2803a51872aef0","6796e1c0ff24ca17c453c51c","67c7261aa0e51b4c07d279e3","passed","","","","","","","","","","","","","","","","","ballFalling","500","510.8711431702997","369.03","8","fallScene","true","","","","7","",""
"","","","","","html-keyboard-response","74","1082367","0.0-16.0-1.6","65e254b55a2803a51872aef0","6796e1c0ff24ca17c453c51c","67c7261aa0e51b4c07d279e3","passed","","402","","","","","","","","","","","","","","j","yesOrNo","","","","8","","","lp","700","","7","501","151"
"","","","","","html-keyboard-response","75","1083951","0.0-16.0-0.7","65e254b55a2803a51872aef0","6796e1c0ff24ca17c453c51c","67c7261aa0e51b4c07d279e3","passed","","","","","","","","","","","","","","","","","ballFalling","500","553.4711431702997","282.51","7","fallScene","false","","","","8","",""
"","","","","","html-keyboard-response","76","1084659","0.0-16.0-1.7","65e254b55a2803a51872aef0","6796e1c0ff24ca17c453c51c","67c7261aa0e51b4c07d279e3","passed","","418","","","","","","","","","","","","","","f","yesOrNo","","","","7","","","lp","700","","8","501","227.2843295913261"
"","","","","","html-keyboard-response","77","1086217","0.0-16.0-0.8","65e254b55a2803a51872aef0","6796e1c0ff24ca17c453c51c","67c7261aa0e51b4c07d279e3","passed","","","","","","","","","","","","","","","","","ballFalling","500","453.67114317029973","210.33","5","fallScene","true","","","","9","",""
"","","","","","html-keyboard-response","78","1086932","0.0-16.0-1.8","65e254b55a2803a51872aef0","6796e1c0ff24ca17c453c51c","67c7261aa0e51b4c07d279e3","passed","","403","","","","","","","","","","","","","","f","yesOrNo","","","","5","","","mid","700","","9","499","300"
"","","","","","html-keyboard-response","79","1088584","0.0-16.0-0.9","65e254b55a2803a51872aef0","6796e1c0ff24ca17c453c51c","67c7261aa0e51b4c07d279e3","passed","","","","","","","","","","","","","","","","","ballFalling","500","479.92114317029973","330.87","6","fallScene","true","","","","10","",""
"","","","","","html-keyboard-response","80","1089299","0.0-16.0-1.9","65e254b55a2803a51872aef0","6796e1c0ff24ca17c453c51c","67c7261aa0e51b4c07d279e3","passed","","483","","","","","","","","","","","","","","j","yesOrNo","","","","6","","","lp","700","","10","499","189.92909825697632"
"","","","","","html-keyboard-response","81","1090784","0.0-16.0-0.10","65e254b55a2803a51872aef0","6796e1c0ff24ca17c453c51c","67c7261aa0e51b4c07d279e3","passed","","","","","","","","","","","","","","","","","ballFalling","604.4000000000001","667.6211431702998","201.78","9","fallScene","false","","","","11","",""
"","","","","","html-keyboard-response","82","1091489","0.0-16.0-1.10","65e254b55a2803a51872aef0","6796e1c0ff24ca17c453c51c","67c7261aa0e51b4c07d279e3","passed","","441","","","","","","","","","","","","","","j","yesOrNo","","","","9","","","gt","700","","11","667.6211431702998","201.78"
"","","","","","html-keyboard-response","83","1093058","0.0-16.0-0.11","65e254b55a2803a51872aef0","6796e1c0ff24ca17c453c51c","67c7261aa0e51b4c07d279e3","passed","","","","","","","","","","","","","","","","","ballFalling","322.3","379.3711431702997","245.25","1","fallScene","false","","","","12","",""
"","","","","","html-keyboard-response","84","1093767","0.0-16.0-1.11","65e254b55a2803a51872aef0","6796e1c0ff24ca17c453c51c","67c7261aa0e51b4c07d279e3","passed","","448","","","","","","","","","","","","","","f","yesOrNo","","","","1","","","mid","700","","12","390.27114317029975","300"
"","","","","","html-keyboard-response","85","1095768","0.0-16.0-0.12","65e254b55a2803a51872aef0","6796e1c0ff24ca17c453c51c","67c7261aa0e51b4c07d279e3","passed","","","","","","","","","","","","","","","","","ballFalling","604.4000000000001","596.8711431702998","394.5","10","fallScene","false","","","","13","",""
"","","","","","html-keyboard-response","86","1096483","0.0-16.0-1.12","65e254b55a2803a51872aef0","6796e1c0ff24ca17c453c51c","67c7261aa0e51b4c07d279e3","passed","","566","","","","","","","","","","","","","","f","yesOrNo","","","","10","","","mid","700","","13","536.4288568297004","300"
"","","","","","html-keyboard-response","87","1098034","0.0-16.0-0.13","65e254b55a2803a51872aef0","6796e1c0ff24ca17c453c51c","67c7261aa0e51b4c07d279e3","passed","","","","","","","","","","","","","","","","","ballFalling","500","453.67114317029973","210.33","5","fallScene","true","","","","14","",""
"","","","","","html-keyboard-response","88","1098740","0.0-16.0-1.13","65e254b55a2803a51872aef0","6796e1c0ff24ca17c453c51c","67c7261aa0e51b4c07d279e3","passed","","418","","","","","","","","","","","","","","f","yesOrNo","","","","5","","","mid","700","","14","499","300"
"","","","","","html-keyboard-response","89","1100301","0.0-16.0-0.14","65e254b55a2803a51872aef0","6796e1c0ff24ca17c453c51c","67c7261aa0e51b4c07d279e3","passed","","","","","","","","","","","","","","","","","ballFalling","604.4000000000001","575.4211431702997","266.76","12","fallScene","false","","","","15","",""
"","","","","","html-keyboard-response","90","1101008","0.0-16.0-1.14","65e254b55a2803a51872aef0","6796e1c0ff24ca17c453c51c","67c7261aa0e51b4c07d279e3","passed","","437","","","","","","","","","","","","","","f","yesOrNo","","","","12","","","mid","700","","15","536.4288568297004","300"
"","","","","","html-keyboard-response","91","1102567","0.0-16.0-0.15","65e254b55a2803a51872aef0","6796e1c0ff24ca17c453c51c","67c7261aa0e51b4c07d279e3","passed","","","","","","","","","","","","","","","","","ballFalling","604.4000000000001","650.0211431702996","404.58000000000004","11","fallScene","false","","","","16","",""
"","","","","","html-keyboard-response","92","1103271","0.0-16.0-1.15","65e254b55a2803a51872aef0","6796e1c0ff24ca17c453c51c","67c7261aa0e51b4c07d279e3","passed","","457","","","","","","","","","","","","","","j","yesOrNo","","","","11","","","mid","700","","16","605.4000000000001","300"
"","","","","","html-keyboard-response","93","1104834","0.0-16.0-0.16","65e254b55a2803a51872aef0","6796e1c0ff24ca17c453c51c","67c7261aa0e51b4c07d279e3","passed","","","","","","","","","","","","","","","","","ballFalling","322.3","356.42114317029973","357.87","4","fallScene","false","","","","17","",""
"","","","","","html-keyboard-response","94","1105544","0.0-16.0-1.16","65e254b55a2803a51872aef0","6796e1c0ff24ca17c453c51c","67c7261aa0e51b4c07d279e3","passed","","501","","","","","","","","","","","","","","j","yesOrNo","","","","4","","","lp","700","","17","323.3","297.4070551689986"
"","","","","","html-keyboard-response","95","1107100","0.0-16.0-0.17","65e254b55a2803a51872aef0","6796e1c0ff24ca17c453c51c","67c7261aa0e51b4c07d279e3","passed","","","","","","","","","","","","","","","","","ballFalling","604.4000000000001","575.4211431702997","266.76","12","fallScene","true","","","","18","",""
"","","","","","html-keyboard-response","96","1107814","0.0-16.0-1.17","65e254b55a2803a51872aef0","6796e1c0ff24ca17c453c51c","67c7261aa0e51b4c07d279e3","passed","","391","","","","","","","","","","","","","","j","yesOrNo","","","","12","","","gt","700","","18","575.4211431702997","266.76"
"","","","","","html-keyboard-response","97","1109368","0.0-16.0-0.18","65e254b55a2803a51872aef0","6796e1c0ff24ca17c453c51c","67c7261aa0e51b4c07d279e3","passed","","","","","","","","","","","","","","","","","ballFalling","322.3","379.3711431702997","245.25","1","fallScene","true","","","","19","",""
"","","","","","html-keyboard-response","98","1110081","0.0-16.0-1.18","65e254b55a2803a51872aef0","6796e1c0ff24ca17c453c51c","67c7261aa0e51b4c07d279e3","passed","","465","","","","","","","","","","","","","","f","yesOrNo","","","","1","","","lp","700","","19","323.3","217.74551669457017"
"","","","","","html-keyboard-response","99","1111567","0.0-16.0-0.19","65e254b55a2803a51872aef0","6796e1c0ff24ca17c453c51c","67c7261aa0e51b4c07d279e3","passed","","","","","","","","","","","","","","","","","ballFalling","604.4000000000001","667.6211431702998","201.78","9","fallScene","true","","","","20","",""
"","","","","","html-keyboard-response","100","1112272","0.0-16.0-1.19","65e254b55a2803a51872aef0","6796e1c0ff24ca17c453c51c","67c7261aa0e51b4c07d279e3","passed","","437","","","","","","","","","","","","","","f","yesOrNo","","","","9","","","mid","700","","20","605.4000000000001","300"
"","","","","","html-keyboard-response","101","1113850","0.0-16.0-0.20","65e254b55a2803a51872aef0","6796e1c0ff24ca17c453c51c","67c7261aa0e51b4c07d279e3","passed","","","","","","","","","","","","","","","","","ballFalling","500","553.4711431702997","282.51","7","fallScene","false","","","","21","",""
"","","","","","html-keyboard-response","102","1114555","0.0-16.0-1.20","65e254b55a2803a51872aef0","6796e1c0ff24ca17c453c51c","67c7261aa0e51b4c07d279e3","passed","","467","","","","","","","","","","","","","","f","yesOrNo","","","","7","","","lp","700","","21","501","227.2843295913261"
"","","","","","html-keyboard-response","103","1116126","0.0-16.0-0.21","65e254b55a2803a51872aef0","6796e1c0ff24ca17c453c51c","67c7261aa0e51b4c07d279e3","passed","","","","","","","","","","","","","","","","","ballFalling","322.3","296.07114317029976","371.46","3","fallScene","false","","","","22","",""
"","","","","","html-keyboard-response","104","1116833","0.0-16.0-1.21","65e254b55a2803a51872aef0","6796e1c0ff24ca17c453c51c","67c7261aa0e51b4c07d279e3","passed","","424","","","","","","","","","","","","","","j","yesOrNo","","","","3","","","lp","700","","22","321.3","287.3327096511259"
"","","","","","html-keyboard-response","105","1118495","0.0-16.0-0.22","65e254b55a2803a51872aef0","6796e1c0ff24ca17c453c51c","67c7261aa0e51b4c07d279e3","passed","","","","","","","","","","","","","","","","","ballFalling","500","479.92114317029973","330.87","6","fallScene","true","","","","23","",""
"","","","","","html-keyboard-response","106","1119201","0.0-16.0-1.22","65e254b55a2803a51872aef0","6796e1c0ff24ca17c453c51c","67c7261aa0e51b4c07d279e3","passed","","392","","","","","","","","","","","","","","j","yesOrNo","","","","6","","","gt","700","","23","479.9211431702998","330.87"
"","","","","","html-keyboard-response","107","1120867","0.0-16.0-0.23","65e254b55a2803a51872aef0","6796e1c0ff24ca17c453c51c","67c7261aa0e51b4c07d279e3","passed","","","","","","","","","","","","","","","","","ballFalling","500","479.92114317029973","330.87","6","fallScene","false","","","","24","",""
"","","","","","html-keyboard-response","108","1121579","0.0-16.0-1.23","65e254b55a2803a51872aef0","6796e1c0ff24ca17c453c51c","67c7261aa0e51b4c07d279e3","passed","","529","","","","","","","","","","","","","","f","yesOrNo","","","","6","","","gt","700","","24","479.9211431702998","330.87"
"","","","","","html-keyboard-response","109","1123413","0.0-17.0","65e254b55a2803a51872aef0","6796e1c0ff24ca17c453c51c","67c7261aa0e51b4c07d279e3","passed","","1834","","","","","","","","","","","","","<p><span style=""font-size:40px;"">BLOCK 2</span></p><p><span style=""font-size:25px;"">You have <b style=""color: #FF644F;""><strong>3 second(s)</strong></b> to respond to the following trials.</span><br></p><p></p> <!-- Blank line -->
                <p id=""blinking-text"" style=""font-weight; animation: blink 2s infinite;"">Press Space to continue</p>
                <style>
                    @keyframes blink {
                        50% {
                            opacity: 0;
                        }
                    }
                </style></p>"," ","","","","","","","","","","","","",""
"","","","","","html-keyboard-response","110","1125067","0.0-18.0-0.0","65e254b55a2803a51872aef0","6796e1c0ff24ca17c453c51c","67c7261aa0e51b4c07d279e3","passed","","","","","","","","","","","","","","","","","ballFalling","500","479.92114317029973","330.87","6","fallScene","false","","","","25","",""
"","","","","","html-keyboard-response","111","1128069","0.0-18.0-1.0","65e254b55a2803a51872aef0","6796e1c0ff24ca17c453c51c","67c7261aa0e51b4c07d279e3","passed","","621","","","","","","","","","","","","","","f","yesOrNo","","","","6","","","lp","3000","","25","499","189.92909825697632"
"","","","","","html-keyboard-response","112","1129634","0.0-18.0-0.1","65e254b55a2803a51872aef0","6796e1c0ff24ca17c453c51c","67c7261aa0e51b4c07d279e3","passed","","","","","","","","","","","","","","","","","ballFalling","604.4000000000001","650.0211431702996","404.58000000000004","11","fallScene","false","","","","26","",""
"","","","","","html-keyboard-response","113","1132641","0.0-18.0-1.1","65e254b55a2803a51872aef0","6796e1c0ff24ca17c453c51c","67c7261aa0e51b4c07d279e3","passed","","841","","","","","","","","","","","","","","f","yesOrNo","","","","11","","","gt","3000","","26","650.0211431702996","404.58"
"","","","","","html-keyboard-response","114","1134213","0.0-18.0-0.2","65e254b55a2803a51872aef0","6796e1c0ff24ca17c453c51c","67c7261aa0e51b4c07d279e3","passed","","","","","","","","","","","","","","","","","ballFalling","604.4000000000001","650.0211431702996","404.58000000000004","11","fallScene","false","","","","27","",""
"","","","","","html-keyboard-response","115","1137215","0.0-18.0-1.2","65e254b55a2803a51872aef0","6796e1c0ff24ca17c453c51c","67c7261aa0e51b4c07d279e3","passed","","1106","","","","","","","","","","","","","","j","yesOrNo","","","","11","","","mid","3000","","27","605.4000000000001","300"
"","","","","","html-keyboard-response","116","1138784","0.0-18.0-0.3","65e254b55a2803a51872aef0","6796e1c0ff24ca17c453c51c","67c7261aa0e51b4c07d279e3","passed","","","","","","","","","","","","","","","","","ballFalling","500","553.4711431702997","282.51","7","fallScene","false","","","","28","",""
"","","","","","html-keyboard-response","117","1141792","0.0-18.0-1.3","65e254b55a2803a51872aef0","6796e1c0ff24ca17c453c51c","67c7261aa0e51b4c07d279e3","passed","","1336","","","","","","","","","","","","","","j","yesOrNo","","","","7","","","mid","3000","","28","501","300"
"","","","","","html-keyboard-response","118","1143368","0.0-18.0-0.4","65e254b55a2803a51872aef0","6796e1c0ff24ca17c453c51c","67c7261aa0e51b4c07d279e3","passed","","","","","","","","","","","","","","","","","ballFalling","500","553.4711431702997","282.51","7","fallScene","true","","","","29","",""
"","","","","","html-keyboard-response","119","1146380","0.0-18.0-1.4","65e254b55a2803a51872aef0","6796e1c0ff24ca17c453c51c","67c7261aa0e51b4c07d279e3","passed","","628","","","","","","","","","","","","","","j","yesOrNo","","","","7","","","mid","3000","","29","501","300"
"","","","","","html-keyboard-response","120","1147934","0.0-18.0-0.5","65e254b55a2803a51872aef0","6796e1c0ff24ca17c453c51c","67c7261aa0e51b4c07d279e3","passed","","","","","","","","","","","","","","","","","ballFalling","500","453.67114317029973","210.33","5","fallScene","false","","","","30","",""
"","","","","","html-keyboard-response","121","1150944","0.0-18.0-1.5","65e254b55a2803a51872aef0","6796e1c0ff24ca17c453c51c","67c7261aa0e51b4c07d279e3","passed","","579","","","","","","","","","","","","","","j","yesOrNo","","","","5","","","mid","3000","","30","499","300"
"","","","","","html-keyboard-response","122","1152734","0.0-18.0-0.6","65e254b55a2803a51872aef0","6796e1c0ff24ca17c453c51c","67c7261aa0e51b4c07d279e3","passed","","","","","","","","","","","","","","","","","ballFalling","322.3","308.07114317029976","253.89","2","fallScene","false","","","","31","",""
"","","","","","html-keyboard-response","123","1155737","0.0-18.0-1.6","65e254b55a2803a51872aef0","6796e1c0ff24ca17c453c51c","67c7261aa0e51b4c07d279e3","passed","","783","","","","","","","","","","","","","","j","yesOrNo","","","","2","","","gt","3000","","31","308.07114317029976","253.89"
"","","","","","html-keyboard-response","124","1157750","0.0-18.0-0.7","65e254b55a2803a51872aef0","6796e1c0ff24ca17c453c51c","67c7261aa0e51b4c07d279e3","passed","","","","","","","","","","","","","","","","","ballFalling","500","510.8711431702997","369.03","8","fallScene","true","","","","32","",""
"","","","","","html-keyboard-response","125","1160753","0.0-18.0-1.7","65e254b55a2803a51872aef0","6796e1c0ff24ca17c453c51c","67c7261aa0e51b4c07d279e3","passed","","815","","","","","","","","","","","","","","j","yesOrNo","","","","8","","","mid","3000","","32","501","300"
"","","","","","html-keyboard-response","126","1162317","0.0-18.0-0.8","65e254b55a2803a51872aef0","6796e1c0ff24ca17c453c51c","67c7261aa0e51b4c07d279e3","passed","","","","","","","","","","","","","","","","","ballFalling","604.4000000000001","650.0211431702996","404.58000000000004","11","fallScene","false","","","","33","",""
"","","","","","html-keyboard-response","127","1165325","0.0-18.0-1.8","65e254b55a2803a51872aef0","6796e1c0ff24ca17c453c51c","67c7261aa0e51b4c07d279e3","passed","","2078","","","","","","","","","","","","","","j","yesOrNo","","","","11","","","lp","3000","","33","605.4000000000001","372.6340973215488"
"","","","","","html-keyboard-response","128","1166883","0.0-18.0-0.9","65e254b55a2803a51872aef0","6796e1c0ff24ca17c453c51c","67c7261aa0e51b4c07d279e3","passed","","","","","","","","","","","","","","","","","ballFalling","604.4000000000001","575.4211431702997","266.76","12","fallScene","true","","","","34","",""
"","","","","","html-keyboard-response","129","1169899","0.0-18.0-1.9","65e254b55a2803a51872aef0","6796e1c0ff24ca17c453c51c","67c7261aa0e51b4c07d279e3","passed","","548","","","","","","","","","","","","","","f","yesOrNo","","","","12","","","lp","3000","","34","603.4000000000001","151"
"","","","","","html-keyboard-response","130","1171900","0.0-18.0-0.10","65e254b55a2803a51872aef0","6796e1c0ff24ca17c453c51c","67c7261aa0e51b4c07d279e3","passed","","","","","","","","","","","","","","","","","ballFalling","500","510.8711431702997","369.03","8","fallScene","true","","","","35","",""
"","","","","","html-keyboard-response","131","1174904","0.0-18.0-1.10","65e254b55a2803a51872aef0","6796e1c0ff24ca17c453c51c","67c7261aa0e51b4c07d279e3","passed","","613","","","","","","","","","","","","","","f","yesOrNo","","","","8","","","lp","3000","","35","501","151"
"","","","","","html-keyboard-response","132","1176467","0.0-18.0-0.11","65e254b55a2803a51872aef0","6796e1c0ff24ca17c453c51c","67c7261aa0e51b4c07d279e3","passed","","","","","","","","","","","","","","","","","ballFalling","322.3","356.42114317029973","357.87","4","fallScene","false","","","","36","",""
"","","","","","html-keyboard-response","133","1179482","0.0-18.0-1.11","65e254b55a2803a51872aef0","6796e1c0ff24ca17c453c51c","67c7261aa0e51b4c07d279e3","passed","","667","","","","","","","","","","","","","","j","yesOrNo","","","","4","","","gt","3000","","36","356.42114317029973","357.87"
"","","","","","html-keyboard-response","134","1181034","0.0-18.0-0.12","65e254b55a2803a51872aef0","6796e1c0ff24ca17c453c51c","67c7261aa0e51b4c07d279e3","passed","","","","","","","","","","","","","","","","","ballFalling","604.4000000000001","575.4211431702997","266.76","12","fallScene","true","","","","37","",""
"","","","","","html-keyboard-response","135","1184050","0.0-18.0-1.12","65e254b55a2803a51872aef0","6796e1c0ff24ca17c453c51c","67c7261aa0e51b4c07d279e3","passed","","642","","","","","","","","","","","","","","f","yesOrNo","","","","12","","","mid","3000","","37","536.4288568297004","300"
"","","","","","html-keyboard-response","136","1185717","0.0-18.0-0.13","65e254b55a2803a51872aef0","6796e1c0ff24ca17c453c51c","67c7261aa0e51b4c07d279e3","passed","","","","","","","","","","","","","","","","","ballFalling","500","479.92114317029973","330.87","6","fallScene","true","","","","38","",""
"","","","","","html-keyboard-response","137","1188725","0.0-18.0-1.13","65e254b55a2803a51872aef0","6796e1c0ff24ca17c453c51c","67c7261aa0e51b4c07d279e3","passed","","602","","","","","","","","","","","","","","f","yesOrNo","","","","6","","","lp","3000","","38","499","189.92909825697632"
"","","","","","html-keyboard-response","138","1190284","0.0-18.0-0.14","65e254b55a2803a51872aef0","6796e1c0ff24ca17c453c51c","67c7261aa0e51b4c07d279e3","passed","","","","","","","","","","","","","","","","","ballFalling","322.3","356.42114317029973","357.87","4","fallScene","true","","","","39","",""
"","","","","","html-keyboard-response","139","1193289","0.0-18.0-1.14","65e254b55a2803a51872aef0","6796e1c0ff24ca17c453c51c","67c7261aa0e51b4c07d279e3","passed","","793","","","","","","","","","","","","","","j","yesOrNo","","","","4","","","lp","3000","","39","323.3","297.4070551689986"
"","","","","","html-keyboard-response","140","1194851","0.0-18.0-0.15","65e254b55a2803a51872aef0","6796e1c0ff24ca17c453c51c","67c7261aa0e51b4c07d279e3","passed","","","","","","","","","","","","","","","","","ballFalling","500","453.67114317029973","210.33","5","fallScene","false","","","","40","",""
"","","","","","html-keyboard-response","141","1197862","0.0-18.0-1.15","65e254b55a2803a51872aef0","6796e1c0ff24ca17c453c51c","67c7261aa0e51b4c07d279e3","passed","","575","","","","","","","","","","","","","","f","yesOrNo","","","","5","","","lp","3000","","40","499","151"
"","","","","","html-keyboard-response","142","1199417","0.0-18.0-0.16","65e254b55a2803a51872aef0","6796e1c0ff24ca17c453c51c","67c7261aa0e51b4c07d279e3","passed","","","","","","","","","","","","","","","","","ballFalling","322.3","356.42114317029973","357.87","4","fallScene","true","","","","41","",""
"","","","","","html-keyboard-response","143","1202428","0.0-18.0-1.16","65e254b55a2803a51872aef0","6796e1c0ff24ca17c453c51c","67c7261aa0e51b4c07d279e3","passed","","485","","","","","","","","","","","","","","j","yesOrNo","","","","4","","","gt","3000","","41","356.42114317029973","357.87"
"","","","","","html-keyboard-response","144","1204084","0.0-18.0-0.17","65e254b55a2803a51872aef0","6796e1c0ff24ca17c453c51c","67c7261aa0e51b4c07d279e3","passed","","","","","","","","","","","","","","","","","ballFalling","500","479.92114317029973","330.87","6","fallScene","false","","","","42","",""
"","","","","","html-keyboard-response","145","1207087","0.0-18.0-1.17","65e254b55a2803a51872aef0","6796e1c0ff24ca17c453c51c","67c7261aa0e51b4c07d279e3","passed","","669","","","","","","","","","","","","","","j","yesOrNo","","","","6","","","mid","3000","","42","499","300"
"","","","","","html-keyboard-response","146","1209100","0.0-18.0-0.18","65e254b55a2803a51872aef0","6796e1c0ff24ca17c453c51c","67c7261aa0e51b4c07d279e3","passed","","","","","","","","","","","","","","","","","ballFalling","604.4000000000001","596.8711431702998","394.5","10","fallScene","true","","","","43","",""
"","","","","","html-keyboard-response","147","1212103","0.0-18.0-1.18","65e254b55a2803a51872aef0","6796e1c0ff24ca17c453c51c","67c7261aa0e51b4c07d279e3","passed","","1542","","","","","","","","","","","","","","f","yesOrNo","","","","10","","","lp","3000","","43","603.4000000000001","215.50214355555383"
"","","","","","html-keyboard-response","148","1213900","0.0-18.0-0.19","65e254b55a2803a51872aef0","6796e1c0ff24ca17c453c51c","67c7261aa0e51b4c07d279e3","passed","","","","","","","","","","","","","","","","","ballFalling","322.3","308.07114317029976","253.89","2","fallScene","true","","","","44","",""
"","","","","","html-keyboard-response","149","1216916","0.0-18.0-1.19","65e254b55a2803a51872aef0","6796e1c0ff24ca17c453c51c","67c7261aa0e51b4c07d279e3","passed","","921","","","","","","","","","","","","","","j","yesOrNo","","","","2","","","mid","3000","","44","321.3","300"
"","","","","","html-keyboard-response","150","1218917","0.0-18.0-0.20","65e254b55a2803a51872aef0","6796e1c0ff24ca17c453c51c","67c7261aa0e51b4c07d279e3","passed","","","","","","","","","","","","","","","","","ballFalling","604.4000000000001","596.8711431702998","394.5","10","fallScene","false","","","","45","",""
"","","","","","html-keyboard-response","151","1221933","0.0-18.0-1.20","65e254b55a2803a51872aef0","6796e1c0ff24ca17c453c51c","67c7261aa0e51b4c07d279e3","passed","","855","","","","","","","","","","","","","","f","yesOrNo","","","","10","","","lp","3000","","45","603.4000000000001","215.50214355555383"
"","","","","","html-keyboard-response","152","1223584","0.0-18.0-0.21","65e254b55a2803a51872aef0","6796e1c0ff24ca17c453c51c","67c7261aa0e51b4c07d279e3","passed","","","","","","","","","","","","","","","","","ballFalling","500","479.92114317029973","330.87","6","fallScene","true","","","","46","",""
"","","","","","html-keyboard-response","153","1226588","0.0-18.0-1.21","65e254b55a2803a51872aef0","6796e1c0ff24ca17c453c51c","67c7261aa0e51b4c07d279e3","passed","","646","","","","","","","","","","","","","","j","yesOrNo","","","","6","","","mid","3000","","46","499","300"
"","","","","","html-keyboard-response","154","1228150","0.0-18.0-0.22","65e254b55a2803a51872aef0","6796e1c0ff24ca17c453c51c","67c7261aa0e51b4c07d279e3","passed","","","","","","","","","","","","","","","","","ballFalling","500","453.67114317029973","210.33","5","fallScene","true","","","","47","",""
"","","","","","html-keyboard-response","155","1231155","0.0-18.0-1.22","65e254b55a2803a51872aef0","6796e1c0ff24ca17c453c51c","67c7261aa0e51b4c07d279e3","passed","","1051","","","","","","","","","","","","","","j","yesOrNo","","","","5","","","gt","3000","","47","453.6711431702998","210.33"
"","","","","","html-keyboard-response","156","1232650","0.0-18.0-0.23","65e254b55a2803a51872aef0","6796e1c0ff24ca17c453c51c","67c7261aa0e51b4c07d279e3","passed","","","","","","","","","","","","","","","","","ballFalling","604.4000000000001","667.6211431702998","201.78","9","fallScene","false","","","","48","",""
"","","","","","html-keyboard-response","157","1235664","0.0-18.0-1.23","65e254b55a2803a51872aef0","6796e1c0ff24ca17c453c51c","67c7261aa0e51b4c07d279e3","passed","","938","","","","","","","","","","","","","","f","yesOrNo","","","","9","","","lp","3000","","48","605.4000000000001","151"
"","","","","","html-keyboard-response","158","1237465","0.0-19.0","65e254b55a2803a51872aef0","6796e1c0ff24ca17c453c51c","67c7261aa0e51b4c07d279e3","passed","","1799","","","","","","","","","","","","","<p><span style=""font-size:40px;"">BLOCK 3</span></p><p><span style=""font-size:25px;"">You have <b style=""color: #FF644F;""><strong>3 second(s)</strong></b> to respond to the following trials.</span><br></p><p></p> <!-- Blank line -->
                <p id=""blinking-text"" style=""font-weight; animation: blink 2s infinite;"">Press Space to continue</p>
                <style>
                    @keyframes blink {
                        50% {
                            opacity: 0;
                        }
                    }
                </style></p>"," ","","","","","","","","","","","","",""
"","","","","","html-keyboard-response","159","1239017","0.0-20.0-0.0","65e254b55a2803a51872aef0","6796e1c0ff24ca17c453c51c","67c7261aa0e51b4c07d279e3","passed","","","","","","","","","","","","","","","","","ballFalling","322.3","379.3711431702997","245.25","1","fallScene","true","","","","49","",""
"","","","","","html-keyboard-response","160","1242020","0.0-20.0-1.0","65e254b55a2803a51872aef0","6796e1c0ff24ca17c453c51c","67c7261aa0e51b4c07d279e3","passed","","1106","","","","","","","","","","","","","","j","yesOrNo","","","","1","","","gt","3000","","49","379.3711431702997","245.25"
"","","","","","html-keyboard-response","161","1243584","0.0-20.0-0.1","65e254b55a2803a51872aef0","6796e1c0ff24ca17c453c51c","67c7261aa0e51b4c07d279e3","passed","","","","","","","","","","","","","","","","","ballFalling","322.3","296.07114317029976","371.46","3","fallScene","true","","","","50","",""
"","","","","","html-keyboard-response","162","1246587","0.0-20.0-1.1","65e254b55a2803a51872aef0","6796e1c0ff24ca17c453c51c","67c7261aa0e51b4c07d279e3","passed","","712","","","","","","","","","","","","","","j","yesOrNo","","","","3","","","mid","3000","","50","321.3","300"
"","","","","","html-keyboard-response","163","1248084","0.0-20.0-0.2","65e254b55a2803a51872aef0","6796e1c0ff24ca17c453c51c","67c7261aa0e51b4c07d279e3","passed","","","","","","","","","","","","","","","","","ballFalling","604.4000000000001","667.6211431702998","201.78","9","fallScene","false","","","","51","",""
"","","","","","html-keyboard-response","164","1251090","0.0-20.0-1.2","65e254b55a2803a51872aef0","6796e1c0ff24ca17c453c51c","67c7261aa0e51b4c07d279e3","passed","","1101","","","","","","","","","","","","","","j","yesOrNo","","","","9","","","gt","3000","","51","667.6211431702998","201.78"
"","","","","","html-keyboard-response","165","1252650","0.0-20.0-0.3","65e254b55a2803a51872aef0","6796e1c0ff24ca17c453c51c","67c7261aa0e51b4c07d279e3","passed","","","","","","","","","","","","","","","","","ballFalling","322.3","296.07114317029976","371.46","3","fallScene","false","","","","52","",""
"","","","","","html-keyboard-response","166","1255665","0.0-20.0-1.3","65e254b55a2803a51872aef0","6796e1c0ff24ca17c453c51c","67c7261aa0e51b4c07d279e3","passed","","1722","","","","","","","","","","","","","","j","yesOrNo","","","","3","","","lp","3000","","52","321.3","287.3327096511259"
"","","","","","html-keyboard-response","167","1257217","0.0-20.0-0.4","65e254b55a2803a51872aef0","6796e1c0ff24ca17c453c51c","67c7261aa0e51b4c07d279e3","passed","","","","","","","","","","","","","","","","","ballFalling","322.3","356.42114317029973","357.87","4","fallScene","true","","","","53","",""
"","","","","","html-keyboard-response","168","1260229","0.0-20.0-1.4","65e254b55a2803a51872aef0","6796e1c0ff24ca17c453c51c","67c7261aa0e51b4c07d279e3","passed","","1802","","","","","","","","","","","","","","f","yesOrNo","","","","4","","","mid","3000","","53","390.27114317029975","300"
"","","","","","html-keyboard-response","169","1261783","0.0-20.0-0.5","65e254b55a2803a51872aef0","6796e1c0ff24ca17c453c51c","67c7261aa0e51b4c07d279e3","passed","","","","","","","","","","","","","","","","","ballFalling","604.4000000000001","575.4211431702997","266.76","12","fallScene","false","","","","54","",""
"","","","","","html-keyboard-response","170","1264786","0.0-20.0-1.5","65e254b55a2803a51872aef0","6796e1c0ff24ca17c453c51c","67c7261aa0e51b4c07d279e3","passed","","817","","","","","","","","","","","","","","j","yesOrNo","","","","12","","","gt","3000","","54","575.4211431702997","266.76"
"","","","","","html-keyboard-response","171","1266450","0.0-20.0-0.6","65e254b55a2803a51872aef0","6796e1c0ff24ca17c453c51c","67c7261aa0e51b4c07d279e3","passed","","","","","","","","","","","","","","","","","ballFalling","500","479.92114317029973","330.87","6","fallScene","true","","","","55","",""
"","","","","","html-keyboard-response","172","1269456","0.0-20.0-1.6","65e254b55a2803a51872aef0","6796e1c0ff24ca17c453c51c","67c7261aa0e51b4c07d279e3","passed","","1148","","","","","","","","","","","","","","f","yesOrNo","","","","6","","","gt","3000","","55","479.9211431702998","330.87"
"","","","","","html-keyboard-response","173","1271017","0.0-20.0-0.7","65e254b55a2803a51872aef0","6796e1c0ff24ca17c453c51c","67c7261aa0e51b4c07d279e3","passed","","","","","","","","","","","","","","","","","ballFalling","604.4000000000001","575.4211431702997","266.76","12","fallScene","false","","","","56","",""
"","","","","","html-keyboard-response","174","1274022","0.0-20.0-1.7","65e254b55a2803a51872aef0","6796e1c0ff24ca17c453c51c","67c7261aa0e51b4c07d279e3","passed","","615","","","","","","","","","","","","","","f","yesOrNo","","","","12","","","lp","3000","","56","603.4000000000001","151"
"","","","","","html-keyboard-response","175","1275584","0.0-20.0-0.8","65e254b55a2803a51872aef0","6796e1c0ff24ca17c453c51c","67c7261aa0e51b4c07d279e3","passed","","","","","","","","","","","","","","","","","ballFalling","322.3","296.07114317029976","371.46","3","fallScene","false","","","","57","",""
"","","","","","html-keyboard-response","176","1278594","0.0-20.0-1.8","65e254b55a2803a51872aef0","6796e1c0ff24ca17c453c51c","67c7261aa0e51b4c07d279e3","passed","","1015","","","","","","","","","","","","","","f","yesOrNo","","","","3","","","lp","3000","","57","321.3","287.3327096511259"
"","","","","","html-keyboard-response","177","1280150","0.0-20.0-0.9","65e254b55a2803a51872aef0","6796e1c0ff24ca17c453c51c","67c7261aa0e51b4c07d279e3","passed","","","","","","","","","","","","","","","","","ballFalling","322.3","379.3711431702997","245.25","1","fallScene","false","","","","58","",""
"","","","","","html-keyboard-response","178","1283157","0.0-20.0-1.9","65e254b55a2803a51872aef0","6796e1c0ff24ca17c453c51c","67c7261aa0e51b4c07d279e3","passed","","665","","","","","","","","","","","","","","j","yesOrNo","","","","1","","","lp","3000","","58","323.3","217.74551669457017"
"","","","","","html-keyboard-response","179","1284718","0.0-20.0-0.10","65e254b55a2803a51872aef0","6796e1c0ff24ca17c453c51c","67c7261aa0e51b4c07d279e3","passed","","","","","","","","","","","","","","","","","ballFalling","604.4000000000001","650.0211431702996","404.58000000000004","11","fallScene","false","","","","59","",""
"","","","","","html-keyboard-response","180","1287729","0.0-20.0-1.10","65e254b55a2803a51872aef0","6796e1c0ff24ca17c453c51c","67c7261aa0e51b4c07d279e3","passed","","745","","","","","","","","","","","","","","j","yesOrNo","","","","11","","","mid","3000","","59","605.4000000000001","300"
"","","","","","html-keyboard-response","181","1289284","0.0-20.0-0.11","65e254b55a2803a51872aef0","6796e1c0ff24ca17c453c51c","67c7261aa0e51b4c07d279e3","passed","","","","","","","","","","","","","","","","","ballFalling","322.3","379.3711431702997","245.25","1","fallScene","true","","","","60","",""
"","","","","","html-keyboard-response","182","1292289","0.0-20.0-1.11","65e254b55a2803a51872aef0","6796e1c0ff24ca17c453c51c","67c7261aa0e51b4c07d279e3","passed","","761","","","","","","","","","","","","","","j","yesOrNo","","","","1","","","lp","3000","","60","323.3","217.74551669457017"
"","","","","","html-keyboard-response","183","1294084","0.0-20.0-0.12","65e254b55a2803a51872aef0","6796e1c0ff24ca17c453c51c","67c7261aa0e51b4c07d279e3","passed","","","","","","","","","","","","","","","","","ballFalling","322.3","308.07114317029976","253.89","2","fallScene","true","","","","61","",""
"","","","","","html-keyboard-response","184","1297098","0.0-20.0-1.12","65e254b55a2803a51872aef0","6796e1c0ff24ca17c453c51c","67c7261aa0e51b4c07d279e3","passed","","1172","","","","","","","","","","","","","","j","yesOrNo","","","","2","","","lp","3000","","61","321.3","151"
"","","","","","html-keyboard-response","185","1298650","0.0-20.0-0.13","65e254b55a2803a51872aef0","6796e1c0ff24ca17c453c51c","67c7261aa0e51b4c07d279e3","passed","","","","","","","","","","","","","","","","","ballFalling","500","453.67114317029973","210.33","5","fallScene","true","","","","62","",""
"","","","","","html-keyboard-response","186","1301653","0.0-20.0-1.13","65e254b55a2803a51872aef0","6796e1c0ff24ca17c453c51c","67c7261aa0e51b4c07d279e3","passed","","1119","","","","","","","","","","","","","","j","yesOrNo","","","","5","","","mid","3000","","62","499","300"
"","","","","","html-keyboard-response","187","1303668","0.0-20.0-0.14","65e254b55a2803a51872aef0","6796e1c0ff24ca17c453c51c","67c7261aa0e51b4c07d279e3","passed","","","","","","","","","","","","","","","","","ballFalling","604.4000000000001","596.8711431702998","394.5","10","fallScene","false","","","","63","",""
"","","","","","html-keyboard-response","188","1306678","0.0-20.0-1.14","65e254b55a2803a51872aef0","6796e1c0ff24ca17c453c51c","67c7261aa0e51b4c07d279e3","passed","","892","","","","","","","","","","","","","","f","yesOrNo","","","","10","","","mid","3000","","63","536.4288568297004","300"
"","","","","","html-keyboard-response","189","1308250","0.0-20.0-0.15","65e254b55a2803a51872aef0","6796e1c0ff24ca17c453c51c","67c7261aa0e51b4c07d279e3","passed","","","","","","","","","","","","","","","","","ballFalling","500","553.4711431702997","282.51","7","fallScene","false","","","","64","",""
"","","","","","html-keyboard-response","190","1311252","0.0-20.0-1.15","65e254b55a2803a51872aef0","6796e1c0ff24ca17c453c51c","67c7261aa0e51b4c07d279e3","passed","","895","","","","","","","","","","","","","","j","yesOrNo","","","","7","","","gt","3000","","64","553.4711431702997","282.51"
"","","","","","html-keyboard-response","191","1312751","0.0-20.0-0.16","65e254b55a2803a51872aef0","6796e1c0ff24ca17c453c51c","67c7261aa0e51b4c07d279e3","passed","","","","","","","","","","","","","","","","","ballFalling","604.4000000000001","667.6211431702998","201.78","9","fallScene","false","","","","65","",""
"","","","","","html-keyboard-response","192","1315754","0.0-20.0-1.16","65e254b55a2803a51872aef0","6796e1c0ff24ca17c453c51c","67c7261aa0e51b4c07d279e3","passed","","819","","","","","","","","","","","","","","j","yesOrNo","","","","9","","","mid","3000","","65","605.4000000000001","300"
"","","","","","html-keyboard-response","193","1317317","0.0-20.0-0.17","65e254b55a2803a51872aef0","6796e1c0ff24ca17c453c51c","67c7261aa0e51b4c07d279e3","passed","","","","","","","","","","","","","","","","","ballFalling","604.4000000000001","650.0211431702996","404.58000000000004","11","fallScene","false","","","","66","",""
"","","","","","html-keyboard-response","194","1320325","0.0-20.0-1.17","65e254b55a2803a51872aef0","6796e1c0ff24ca17c453c51c","67c7261aa0e51b4c07d279e3","passed","","930","","","","","","","","","","","","","","f","yesOrNo","","","","11","","","gt","3000","","66","650.0211431702996","404.58"
"","","","","","html-keyboard-response","195","1322333","0.0-20.0-0.18","65e254b55a2803a51872aef0","6796e1c0ff24ca17c453c51c","67c7261aa0e51b4c07d279e3","passed","","","","","","","","","","","","","","","","","ballFalling","500","510.8711431702997","369.03","8","fallScene","true","","","","67","",""
"","","","","","html-keyboard-response","196","1325344","0.0-20.0-1.18","65e254b55a2803a51872aef0","6796e1c0ff24ca17c453c51c","67c7261aa0e51b4c07d279e3","passed","","939","","","","","","","","","","","","","","f","yesOrNo","","","","8","","","mid","3000","","67","501","300"
"","","","","","html-keyboard-response","197","1326900","0.0-20.0-0.19","65e254b55a2803a51872aef0","6796e1c0ff24ca17c453c51c","67c7261aa0e51b4c07d279e3","passed","","","","","","","","","","","","","","","","","ballFalling","500","453.67114317029973","210.33","5","fallScene","false","","","","68","",""
"","","","","","html-keyboard-response","198","1329903","0.0-20.0-1.19","65e254b55a2803a51872aef0","6796e1c0ff24ca17c453c51c","67c7261aa0e51b4c07d279e3","passed","","800","","","","","","","","","","","","","","j","yesOrNo","","","","5","","","gt","3000","","68","453.6711431702998","210.33"
"","","","","","html-keyboard-response","199","1331483","0.0-20.0-0.20","65e254b55a2803a51872aef0","6796e1c0ff24ca17c453c51c","67c7261aa0e51b4c07d279e3","passed","","","","","","","","","","","","","","","","","ballFalling","500","553.4711431702997","282.51","7","fallScene","true","","","","69","",""
"","","","","","html-keyboard-response","200","1334486","0.0-20.0-1.20","65e254b55a2803a51872aef0","6796e1c0ff24ca17c453c51c","67c7261aa0e51b4c07d279e3","passed","","867","","","","","","","","","","","","","","j","yesOrNo","","","","7","","","gt","3000","","69","553.4711431702997","282.51"
"","","","","","html-keyboard-response","201","1336050","0.0-20.0-0.21","65e254b55a2803a51872aef0","6796e1c0ff24ca17c453c51c","67c7261aa0e51b4c07d279e3","passed","","","","","","","","","","","","","","","","","ballFalling","322.3","296.07114317029976","371.46","3","fallScene","false","","","","70","",""
"","","","","","html-keyboard-response","202","1339057","0.0-20.0-1.21","65e254b55a2803a51872aef0","6796e1c0ff24ca17c453c51c","67c7261aa0e51b4c07d279e3","passed","","749","","","","","","","","","","","","","","f","yesOrNo","","","","3","","","gt","3000","","70","296.07114317029976","371.46"
"","","","","","html-keyboard-response","203","1340617","0.0-20.0-0.22","65e254b55a2803a51872aef0","6796e1c0ff24ca17c453c51c","67c7261aa0e51b4c07d279e3","passed","","","","","","","","","","","","","","","","","ballFalling","322.3","379.3711431702997","245.25","1","fallScene","true","","","","71","",""
"","","","","","html-keyboard-response","204","1343620","0.0-20.0-1.22","65e254b55a2803a51872aef0","6796e1c0ff24ca17c453c51c","67c7261aa0e51b4c07d279e3","passed","","768","","","","","","","","","","","","","","f","yesOrNo","","","","1","","","mid","3000","","71","390.27114317029975","300"
"","","","","","html-keyboard-response","205","1345200","0.0-20.0-0.23","65e254b55a2803a51872aef0","6796e1c0ff24ca17c453c51c","67c7261aa0e51b4c07d279e3","passed","","","","","","","","","","","","","","","","","ballFalling","500","553.4711431702997","282.51","7","fallScene","true","","","","72","",""
"","","","","","html-keyboard-response","206","1348210","0.0-20.0-1.23","65e254b55a2803a51872aef0","6796e1c0ff24ca17c453c51c","67c7261aa0e51b4c07d279e3","passed","","851","","","","","","","","","","","","","","f","yesOrNo","","","","7","","","lp","3000","","72","501","227.2843295913261"
"","","","","","html-keyboard-response","207","1349848","0.0-21.0","65e254b55a2803a51872aef0","6796e1c0ff24ca17c453c51c","67c7261aa0e51b4c07d279e3","passed","","1637","","","","","","","","","","","","","<p><span style=""font-size:40px;"">BLOCK 4</span></p><p><span style=""font-size:25px;"">You have <b style=""color: #FF644F;""><strong>0.7 second(s)</strong></b> to respond to the following trials.</span><br></p><p></p> <!-- Blank line -->
                <p id=""blinking-text"" style=""font-weight; animation: blink 2s infinite;"">Press Space to continue</p>
                <style>
                    @keyframes blink {
                        50% {
                            opacity: 0;
                        }
                    }
                </style></p>"," ","","","","","","","","","","","","",""
"","","","","","html-keyboard-response","208","1351400","0.0-22.0-0.0","65e254b55a2803a51872aef0","6796e1c0ff24ca17c453c51c","67c7261aa0e51b4c07d279e3","passed","","","","","","","","","","","","","","","","","ballFalling","604.4000000000001","575.4211431702997","266.76","12","fallScene","true","","","","73","",""
"","","","","","html-keyboard-response","209","1352102","0.0-22.0-1.0","65e254b55a2803a51872aef0","6796e1c0ff24ca17c453c51c","67c7261aa0e51b4c07d279e3","passed","","364","","","","","","","","","","","","","","f","yesOrNo","","","","12","","","gt","700","","73","575.4211431702997","266.76"
"","","","","","html-keyboard-response","210","1353767","0.0-22.0-0.1","65e254b55a2803a51872aef0","6796e1c0ff24ca17c453c51c","67c7261aa0e51b4c07d279e3","passed","","","","","","","","","","","","","","","","","ballFalling","500","479.92114317029973","330.87","6","fallScene","false","","","","74","",""
"","","","","","html-keyboard-response","211","1354480","0.0-22.0-1.1","65e254b55a2803a51872aef0","6796e1c0ff24ca17c453c51c","67c7261aa0e51b4c07d279e3","passed","","467","","","","","","","","","","","","","","f","yesOrNo","","","","6","","","lp","700","","74","499","189.92909825697632"
"","","","","","html-keyboard-response","212","1356050","0.0-22.0-0.2","65e254b55a2803a51872aef0","6796e1c0ff24ca17c453c51c","67c7261aa0e51b4c07d279e3","passed","","","","","","","","","","","","","","","","","ballFalling","500","553.4711431702997","282.51","7","fallScene","false","","","","75","",""
"","","","","","html-keyboard-response","213","1356760","0.0-22.0-1.2","65e254b55a2803a51872aef0","6796e1c0ff24ca17c453c51c","67c7261aa0e51b4c07d279e3","passed","","402","","","","","","","","","","","","","","j","yesOrNo","","","","7","","","mid","700","","75","501","300"
"","","","","","html-keyboard-response","214","1358318","0.0-22.0-0.3","65e254b55a2803a51872aef0","6796e1c0ff24ca17c453c51c","67c7261aa0e51b4c07d279e3","passed","","","","","","","","","","","","","","","","","ballFalling","322.3","296.07114317029976","371.46","3","fallScene","true","","","","76","",""
"","","","","","html-keyboard-response","215","1359024","0.0-22.0-1.3","65e254b55a2803a51872aef0","6796e1c0ff24ca17c453c51c","67c7261aa0e51b4c07d279e3","passed","","457","","","","","","","","","","","","","","f","yesOrNo","","","","3","","","mid","700","","76","321.3","300"
"","","","","","html-keyboard-response","216","1361033","0.0-22.0-0.4","65e254b55a2803a51872aef0","6796e1c0ff24ca17c453c51c","67c7261aa0e51b4c07d279e3","passed","","","","","","","","","","","","","","","","","ballFalling","500","510.8711431702997","369.03","8","fallScene","true","","","","77","",""
"","","","","","html-keyboard-response","217","1361741","0.0-22.0-1.4","65e254b55a2803a51872aef0","6796e1c0ff24ca17c453c51c","67c7261aa0e51b4c07d279e3","passed","","423","","","","","","","","","","","","","","j","yesOrNo","","","","8","","","lp","700","","77","501","151"
"","","","","","html-keyboard-response","218","1363751","0.0-22.0-0.5","65e254b55a2803a51872aef0","6796e1c0ff24ca17c453c51c","67c7261aa0e51b4c07d279e3","passed","","","","","","","","","","","","","","","","","ballFalling","604.4000000000001","596.8711431702998","394.5","10","fallScene","false","","","","78","",""
"","","","","","html-keyboard-response","219","1364463","0.0-22.0-1.5","65e254b55a2803a51872aef0","6796e1c0ff24ca17c453c51c","67c7261aa0e51b4c07d279e3","passed","","443","","","","","","","","","","","","","","f","yesOrNo","","","","10","","","mid","700","","78","536.4288568297004","300"
"","","","","","html-keyboard-response","220","1365950","0.0-22.0-0.6","65e254b55a2803a51872aef0","6796e1c0ff24ca17c453c51c","67c7261aa0e51b4c07d279e3","passed","","","","","","","","","","","","","","","","","ballFalling","604.4000000000001","667.6211431702998","201.78","9","fallScene","false","","","","79","",""
"","","","","","html-keyboard-response","221","1366654","0.0-22.0-1.6","65e254b55a2803a51872aef0","6796e1c0ff24ca17c453c51c","67c7261aa0e51b4c07d279e3","passed","","430","","","","","","","","","","","","","","j","yesOrNo","","","","9","","","mid","700","","79","605.4000000000001","300"
"","","","","","html-keyboard-response","222","1368217","0.0-22.0-0.7","65e254b55a2803a51872aef0","6796e1c0ff24ca17c453c51c","67c7261aa0e51b4c07d279e3","passed","","","","","","","","","","","","","","","","","ballFalling","500","453.67114317029973","210.33","5","fallScene","false","","","","80","",""
"","","","","","html-keyboard-response","223","1368930","0.0-22.0-1.7","65e254b55a2803a51872aef0","6796e1c0ff24ca17c453c51c","67c7261aa0e51b4c07d279e3","passed","","484","","","","","","","","","","","","","","f","yesOrNo","","","","5","","","lp","700","","80","499","151"
"","","","","","html-keyboard-response","224","1370584","0.0-22.0-0.8","65e254b55a2803a51872aef0","6796e1c0ff24ca17c453c51c","67c7261aa0e51b4c07d279e3","passed","","","","","","","","","","","","","","","","","ballFalling","500","479.92114317029973","330.87","6","fallScene","false","","","","81","",""
"","","","","","html-keyboard-response","225","1371287","0.0-22.0-1.8","65e254b55a2803a51872aef0","6796e1c0ff24ca17c453c51c","67c7261aa0e51b4c07d279e3","passed","","491","","","","","","","","","","","","","","j","yesOrNo","","","","6","","","mid","700","","81","499","300"
"","","","","","html-keyboard-response","226","1372867","0.0-22.0-0.9","65e254b55a2803a51872aef0","6796e1c0ff24ca17c453c51c","67c7261aa0e51b4c07d279e3","passed","","","","","","","","","","","","","","","","","ballFalling","500","553.4711431702997","282.51","7","fallScene","true","","","","82","",""
"","","","","","html-keyboard-response","227","1373572","0.0-22.0-1.9","65e254b55a2803a51872aef0","6796e1c0ff24ca17c453c51c","67c7261aa0e51b4c07d279e3","passed","","552","","","","","","","","","","","","","","f","yesOrNo","","","","7","","","gt","700","","82","553.4711431702997","282.51"
"","","","","","html-keyboard-response","228","1375367","0.0-22.0-0.10","65e254b55a2803a51872aef0","6796e1c0ff24ca17c453c51c","67c7261aa0e51b4c07d279e3","passed","","","","","","","","","","","","","","","","","ballFalling","322.3","308.07114317029976","253.89","2","fallScene","false","","","","83","",""
"","","","","","html-keyboard-response","229","1376069","0.0-22.0-1.10","65e254b55a2803a51872aef0","6796e1c0ff24ca17c453c51c","67c7261aa0e51b4c07d279e3","passed","","386","","","","","","","","","","","","","","f","yesOrNo","","","","2","","","gt","700","","83","308.07114317029976","253.89"
"","","","","","html-keyboard-response","230","1377634","0.0-22.0-0.11","65e254b55a2803a51872aef0","6796e1c0ff24ca17c453c51c","67c7261aa0e51b4c07d279e3","passed","","","","","","","","","","","","","","","","","ballFalling","500","453.67114317029973","210.33","5","fallScene","false","","","","84","",""
"","","","","","html-keyboard-response","231","1378336","0.0-22.0-1.11","65e254b55a2803a51872aef0","6796e1c0ff24ca17c453c51c","67c7261aa0e51b4c07d279e3","passed","","495","","","","","","","","","","","","","","f","yesOrNo","","","","5","","","gt","700","","84","453.6711431702998","210.33"
"","","","","","html-keyboard-response","232","1379901","0.0-22.0-0.12","65e254b55a2803a51872aef0","6796e1c0ff24ca17c453c51c","67c7261aa0e51b4c07d279e3","passed","","","","","","","","","","","","","","","","","ballFalling","500","453.67114317029973","210.33","5","fallScene","true","","","","85","",""
"","","","","","html-keyboard-response","233","1380617","0.0-22.0-1.12","65e254b55a2803a51872aef0","6796e1c0ff24ca17c453c51c","67c7261aa0e51b4c07d279e3","passed","","377","","","","","","","","","","","","","","j","yesOrNo","","","","5","","","gt","700","","85","453.6711431702998","210.33"
"","","","","","html-keyboard-response","234","1382633","0.0-22.0-0.13","65e254b55a2803a51872aef0","6796e1c0ff24ca17c453c51c","67c7261aa0e51b4c07d279e3","passed","","","","","","","","","","","","","","","","","ballFalling","604.4000000000001","596.8711431702998","394.5","10","fallScene","true","","","","86","",""
"","","","","","html-keyboard-response","235","1383337","0.0-22.0-1.13","65e254b55a2803a51872aef0","6796e1c0ff24ca17c453c51c","67c7261aa0e51b4c07d279e3","passed","","526","","","","","","","","","","","","","","f","yesOrNo","","","","10","","","gt","700","","86","596.8711431702998","394.5"
"","","","","","html-keyboard-response","236","1384900","0.0-22.0-0.14","65e254b55a2803a51872aef0","6796e1c0ff24ca17c453c51c","67c7261aa0e51b4c07d279e3","passed","","","","","","","","","","","","","","","","","ballFalling","604.4000000000001","575.4211431702997","266.76","12","fallScene","true","","","","87","",""
"","","","","","html-keyboard-response","237","1385614","0.0-22.0-1.14","65e254b55a2803a51872aef0","6796e1c0ff24ca17c453c51c","67c7261aa0e51b4c07d279e3","passed","","464","","","","","","","","","","","","","","f","yesOrNo","","","","12","","","lp","700","","87","603.4000000000001","151"
"","","","","","html-keyboard-response","238","1387167","0.0-22.0-0.15","65e254b55a2803a51872aef0","6796e1c0ff24ca17c453c51c","67c7261aa0e51b4c07d279e3","passed","","","","","","","","","","","","","","","","","ballFalling","322.3","379.3711431702997","245.25","1","fallScene","false","","","","88","",""
"","","","","","html-keyboard-response","239","1387872","0.0-22.0-1.15","65e254b55a2803a51872aef0","6796e1c0ff24ca17c453c51c","67c7261aa0e51b4c07d279e3","passed","","429","","","","","","","","","","","","","","j","yesOrNo","","","","1","","","lp","700","","88","323.3","217.74551669457017"
"","","","","","html-keyboard-response","240","1389367","0.0-22.0-0.16","65e254b55a2803a51872aef0","6796e1c0ff24ca17c453c51c","67c7261aa0e51b4c07d279e3","passed","","","","","","","","","","","","","","","","","ballFalling","604.4000000000001","667.6211431702998","201.78","9","fallScene","true","","","","89","",""
"","","","","","html-keyboard-response","241","1390074","0.0-22.0-1.16","65e254b55a2803a51872aef0","6796e1c0ff24ca17c453c51c","67c7261aa0e51b4c07d279e3","passed","","446","","","","","","","","","","","","","","j","yesOrNo","","","","9","","","gt","700","","89","667.6211431702998","201.78"
"","","","","","html-keyboard-response","242","1391867","0.0-22.0-0.17","65e254b55a2803a51872aef0","6796e1c0ff24ca17c453c51c","67c7261aa0e51b4c07d279e3","passed","","","","","","","","","","","","","","","","","ballFalling","322.3","308.07114317029976","253.89","2","fallScene","true","","","","90","",""
"","","","","","html-keyboard-response","243","1392581","0.0-22.0-1.17","65e254b55a2803a51872aef0","6796e1c0ff24ca17c453c51c","67c7261aa0e51b4c07d279e3","passed","","404","","","","","","","","","","","","","","f","yesOrNo","","","","2","","","lp","700","","90","321.3","151"
"","","","","","html-keyboard-response","244","1394134","0.0-22.0-0.18","65e254b55a2803a51872aef0","6796e1c0ff24ca17c453c51c","67c7261aa0e51b4c07d279e3","passed","","","","","","","","","","","","","","","","","ballFalling","322.3","356.42114317029973","357.87","4","fallScene","true","","","","91","",""
"","","","","","html-keyboard-response","245","1394838","0.0-22.0-1.18","65e254b55a2803a51872aef0","6796e1c0ff24ca17c453c51c","67c7261aa0e51b4c07d279e3","passed","","562","","","","","","","","","","","","","","f","yesOrNo","","","","4","","","gt","700","","91","356.42114317029973","357.87"
"","","","","","html-keyboard-response","246","1396634","0.0-22.0-0.19","65e254b55a2803a51872aef0","6796e1c0ff24ca17c453c51c","67c7261aa0e51b4c07d279e3","passed","","","","","","","","","","","","","","","","","ballFalling","322.3","308.07114317029976","253.89","2","fallScene","true","","","","92","",""
"","","","","","html-keyboard-response","247","1397337","0.0-22.0-1.19","65e254b55a2803a51872aef0","6796e1c0ff24ca17c453c51c","67c7261aa0e51b4c07d279e3","passed","","382","","","","","","","","","","","","","","j","yesOrNo","","","","2","","","mid","700","","92","321.3","300"
"","","","","","html-keyboard-response","248","1398900","0.0-22.0-0.20","65e254b55a2803a51872aef0","6796e1c0ff24ca17c453c51c","67c7261aa0e51b4c07d279e3","passed","","","","","","","","","","","","","","","","","ballFalling","322.3","356.42114317029973","357.87","4","fallScene","true","","","","93","",""
"","","","","","html-keyboard-response","249","1399602","0.0-22.0-1.20","65e254b55a2803a51872aef0","6796e1c0ff24ca17c453c51c","67c7261aa0e51b4c07d279e3","passed","","440","","","","","","","","","","","","","","j","yesOrNo","","","","4","","","gt","700","","93","356.42114317029973","357.87"
"","","","","","html-keyboard-response","250","1401167","0.0-22.0-0.21","65e254b55a2803a51872aef0","6796e1c0ff24ca17c453c51c","67c7261aa0e51b4c07d279e3","passed","","","","","","","","","","","","","","","","","ballFalling","322.3","296.07114317029976","371.46","3","fallScene","true","","","","94","",""
"","","","","","html-keyboard-response","251","1401870","0.0-22.0-1.21","65e254b55a2803a51872aef0","6796e1c0ff24ca17c453c51c","67c7261aa0e51b4c07d279e3","passed","","495","","","","","","","","","","","","","","j","yesOrNo","","","","3","","","mid","700","","94","321.3","300"
"","","","","","html-keyboard-response","252","1403434","0.0-22.0-0.22","65e254b55a2803a51872aef0","6796e1c0ff24ca17c453c51c","67c7261aa0e51b4c07d279e3","passed","","","","","","","","","","","","","","","","","ballFalling","322.3","356.42114317029973","357.87","4","fallScene","false","","","","95","",""
"","","","","","html-keyboard-response","253","1404147","0.0-22.0-1.22","65e254b55a2803a51872aef0","6796e1c0ff24ca17c453c51c","67c7261aa0e51b4c07d279e3","passed","","552","","","","","","","","","","","","","","j","yesOrNo","","","","4","","","mid","700","","95","390.27114317029975","300"
"","","","","","html-keyboard-response","254","1405701","0.0-22.0-0.23","65e254b55a2803a51872aef0","6796e1c0ff24ca17c453c51c","67c7261aa0e51b4c07d279e3","passed","","","","","","","","","","","","","","","","","ballFalling","322.3","379.3711431702997","245.25","1","fallScene","false","","","","96","",""
"","","","","","html-keyboard-response","255","1406416","0.0-22.0-1.23","65e254b55a2803a51872aef0","6796e1c0ff24ca17c453c51c","67c7261aa0e51b4c07d279e3","passed","","399","","","","","","","","","","","","","","j","yesOrNo","","","","1","","","mid","700","","96","390.27114317029975","300"
"","","","","","html-keyboard-response","256","1419696","0.0-23.0","65e254b55a2803a51872aef0","6796e1c0ff24ca17c453c51c","67c7261aa0e51b4c07d279e3","passed","","13280","","","","","","","","","","","","","<p><span style=""font-size:40px;"">BLOCK 5</span></p><p><span style=""font-size:25px;"">You have <b style=""color: #FF644F;""><strong>0.7 second(s)</strong></b> to respond to the following trials.</span><br></p><p></p> <!-- Blank line -->
                <p id=""blinking-text"" style=""font-weight; animation: blink 2s infinite;"">Press Space to continue</p>
                <style>
                    @keyframes blink {
                        50% {
                            opacity: 0;
                        }
                    }
                </style></p>"," ","","","","","","","","","","","","",""
"","","","","","html-keyboard-response","257","1421250","0.0-24.0-0.0","65e254b55a2803a51872aef0","6796e1c0ff24ca17c453c51c","67c7261aa0e51b4c07d279e3","passed","","","","","","","","","","","","","","","","","ballFalling","322.3","296.07114317029976","371.46","3","fallScene","true","","","","97","",""
"","","","","","html-keyboard-response","258","1421952","0.0-24.0-1.0","65e254b55a2803a51872aef0","6796e1c0ff24ca17c453c51c","67c7261aa0e51b4c07d279e3","passed","","443","","","","","","","","","","","","","","j","yesOrNo","","","","3","","","lp","700","","97","321.3","287.3327096511259"
"","","","","","html-keyboard-response","259","1423968","0.0-24.0-0.1","65e254b55a2803a51872aef0","6796e1c0ff24ca17c453c51c","67c7261aa0e51b4c07d279e3","passed","","","","","","","","","","","","","","","","","ballFalling","500","510.8711431702997","369.03","8","fallScene","false","","","","98","",""
"","","","","","html-keyboard-response","260","1424681","0.0-24.0-1.1","65e254b55a2803a51872aef0","6796e1c0ff24ca17c453c51c","67c7261aa0e51b4c07d279e3","passed","","377","","","","","","","","","","","","","","j","yesOrNo","","","","8","","","mid","700","","98","501","300"
"","","","","","html-keyboard-response","261","1426233","0.0-24.0-0.2","65e254b55a2803a51872aef0","6796e1c0ff24ca17c453c51c","67c7261aa0e51b4c07d279e3","passed","","","","","","","","","","","","","","","","","ballFalling","604.4000000000001","575.4211431702997","266.76","12","fallScene","true","","","","99","",""
"","","","","","html-keyboard-response","262","1426948","0.0-24.0-1.2","65e254b55a2803a51872aef0","6796e1c0ff24ca17c453c51c","67c7261aa0e51b4c07d279e3","passed","","415","","","","","","","","","","","","","","f","yesOrNo","","","","12","","","lp","700","","99","603.4000000000001","151"
"","","","","","html-keyboard-response","263","1428502","0.0-24.0-0.3","65e254b55a2803a51872aef0","6796e1c0ff24ca17c453c51c","67c7261aa0e51b4c07d279e3","passed","","","","","","","","","","","","","","","","","ballFalling","322.3","296.07114317029976","371.46","3","fallScene","true","","","","100","",""
"","","","","","html-keyboard-response","264","1429213","0.0-24.0-1.3","65e254b55a2803a51872aef0","6796e1c0ff24ca17c453c51c","67c7261aa0e51b4c07d279e3","passed","","384","","","","","","","","","","","","","","j","yesOrNo","","","","3","","","gt","700","","100","296.07114317029976","371.46"
"","","","","","html-keyboard-response","265","1430701","0.0-24.0-0.4","65e254b55a2803a51872aef0","6796e1c0ff24ca17c453c51c","67c7261aa0e51b4c07d279e3","passed","","","","","","","","","","","","","","","","","ballFalling","604.4000000000001","667.6211431702998","201.78","9","fallScene","true","","","","101","",""
"","","","","","html-keyboard-response","266","1431416","0.0-24.0-1.4","65e254b55a2803a51872aef0","6796e1c0ff24ca17c453c51c","67c7261aa0e51b4c07d279e3","passed","","495","","","","","","","","","","","","","","f","yesOrNo","","","","9","","","lp","700","","101","605.4000000000001","151"
"","","","","","html-keyboard-response","267","1432967","0.0-24.0-0.5","65e254b55a2803a51872aef0","6796e1c0ff24ca17c453c51c","67c7261aa0e51b4c07d279e3","passed","","","","","","","","","","","","","","","","","ballFalling","322.3","356.42114317029973","357.87","4","fallScene","true","","","","102","",""
"","","","","","html-keyboard-response","268","1433681","0.0-24.0-1.5","65e254b55a2803a51872aef0","6796e1c0ff24ca17c453c51c","67c7261aa0e51b4c07d279e3","passed","","459","","","","","","","","","","","","","","f","yesOrNo","","","","4","","","mid","700","","102","390.27114317029975","300"
"","","","","","html-keyboard-response","269","1435691","0.0-24.0-0.6","65e254b55a2803a51872aef0","6796e1c0ff24ca17c453c51c","67c7261aa0e51b4c07d279e3","passed","","","","","","","","","","","","","","","","","ballFalling","500","510.8711431702997","369.03","8","fallScene","true","","","","103","",""
"","","","","","html-keyboard-response","270","1436395","0.0-24.0-1.6","65e254b55a2803a51872aef0","6796e1c0ff24ca17c453c51c","67c7261aa0e51b4c07d279e3","passed","","497","","","","","","","","","","","","","","f","yesOrNo","","","","8","","","gt","700","","103","510.8711431702997","369.03"
"","","","","","html-keyboard-response","271","1437952","0.0-24.0-0.7","65e254b55a2803a51872aef0","6796e1c0ff24ca17c453c51c","67c7261aa0e51b4c07d279e3","passed","","","","","","","","","","","","","","","","","ballFalling","604.4000000000001","650.0211431702996","404.58000000000004","11","fallScene","true","","","","104","",""
"","","","","","html-keyboard-response","272","1438654","0.0-24.0-1.7","65e254b55a2803a51872aef0","6796e1c0ff24ca17c453c51c","67c7261aa0e51b4c07d279e3","passed","","471","","","","","","","","","","","","","","f","yesOrNo","","","","11","","","mid","700","","104","605.4000000000001","300"
"","","","","","html-keyboard-response","273","1440451","0.0-24.0-0.8","65e254b55a2803a51872aef0","6796e1c0ff24ca17c453c51c","67c7261aa0e51b4c07d279e3","passed","","","","","","","","","","","","","","","","","ballFalling","322.3","308.07114317029976","253.89","2","fallScene","true","","","","105","",""
"","","","","","html-keyboard-response","274","1441167","0.0-24.0-1.8","65e254b55a2803a51872aef0","6796e1c0ff24ca17c453c51c","67c7261aa0e51b4c07d279e3","passed","","383","","","","","","","","","","","","","","j","yesOrNo","","","","2","","","gt","700","","105","308.07114317029976","253.89"
"","","","","","html-keyboard-response","275","1442967","0.0-24.0-0.9","65e254b55a2803a51872aef0","6796e1c0ff24ca17c453c51c","67c7261aa0e51b4c07d279e3","passed","","","","","","","","","","","","","","","","","ballFalling","322.3","308.07114317029976","253.89","2","fallScene","true","","","","106","",""
"","","","","","html-keyboard-response","276","1443683","0.0-24.0-1.9","65e254b55a2803a51872aef0","6796e1c0ff24ca17c453c51c","67c7261aa0e51b4c07d279e3","passed","","375","","","","","","","","","","","","","","j","yesOrNo","","","","2","","","lp","700","","106","321.3","151"
"","","","","","html-keyboard-response","277","1445233","0.0-24.0-0.10","65e254b55a2803a51872aef0","6796e1c0ff24ca17c453c51c","67c7261aa0e51b4c07d279e3","passed","","","","","","","","","","","","","","","","","ballFalling","322.3","379.3711431702997","245.25","1","fallScene","false","","","","107","",""
"","","","","","html-keyboard-response","278","1445950","0.0-24.0-1.10","65e254b55a2803a51872aef0","6796e1c0ff24ca17c453c51c","67c7261aa0e51b4c07d279e3","passed","","484","","","","","","","","","","","","","","f","yesOrNo","","","","1","","","gt","700","","107","379.3711431702997","245.25"
"","","","","","html-keyboard-response","279","1447501","0.0-24.0-0.11","65e254b55a2803a51872aef0","6796e1c0ff24ca17c453c51c","67c7261aa0e51b4c07d279e3","passed","","","","","","","","","","","","","","","","","ballFalling","604.4000000000001","650.0211431702996","404.58000000000004","11","fallScene","false","","","","108","",""
"","","","","","html-keyboard-response","280","1448213","0.0-24.0-1.11","65e254b55a2803a51872aef0","6796e1c0ff24ca17c453c51c","67c7261aa0e51b4c07d279e3","passed","","509","","","","","","","","","","","","","","f","yesOrNo","","","","11","","","gt","700","","108","650.0211431702996","404.58"
"","","","","","html-keyboard-response","281","1450217","0.0-24.0-0.12","65e254b55a2803a51872aef0","6796e1c0ff24ca17c453c51c","67c7261aa0e51b4c07d279e3","passed","","","","","","","","","","","","","","","","","ballFalling","604.4000000000001","596.8711431702998","394.5","10","fallScene","false","","","","109","",""
"","","","","","html-keyboard-response","282","1450922","0.0-24.0-1.12","65e254b55a2803a51872aef0","6796e1c0ff24ca17c453c51c","67c7261aa0e51b4c07d279e3","passed","","446","","","","","","","","","","","","","","f","yesOrNo","","","","10","","","gt","700","","109","596.8711431702998","394.5"
"","","","","","html-keyboard-response","283","1452934","0.0-24.0-0.13","65e254b55a2803a51872aef0","6796e1c0ff24ca17c453c51c","67c7261aa0e51b4c07d279e3","passed","","","","","","","","","","","","","","","","","ballFalling","500","510.8711431702997","369.03","8","fallScene","false","","","","110","",""
"","","","","","html-keyboard-response","284","1453643","0.0-24.0-1.13","65e254b55a2803a51872aef0","6796e1c0ff24ca17c453c51c","67c7261aa0e51b4c07d279e3","passed","","450","","","","","","","","","","","","","","j","yesOrNo","","","","8","","","mid","700","","110","501","300"
"","","","","","html-keyboard-response","285","1455434","0.0-24.0-0.14","65e254b55a2803a51872aef0","6796e1c0ff24ca17c453c51c","67c7261aa0e51b4c07d279e3","passed","","","","","","","","","","","","","","","","","ballFalling","322.3","308.07114317029976","253.89","2","fallScene","true","","","","111","",""
"","","","","","html-keyboard-response","286","1456149","0.0-24.0-1.14","65e254b55a2803a51872aef0","6796e1c0ff24ca17c453c51c","67c7261aa0e51b4c07d279e3","passed","","432","","","","","","","","","","","","","","j","yesOrNo","","","","2","","","mid","700","","111","321.3","300"
"","","","","","html-keyboard-response","287","1457700","0.0-24.0-0.15","65e254b55a2803a51872aef0","6796e1c0ff24ca17c453c51c","67c7261aa0e51b4c07d279e3","passed","","","","","","","","","","","","","","","","","ballFalling","322.3","379.3711431702997","245.25","1","fallScene","true","","","","112","",""
"","","","","","html-keyboard-response","288","1458413","0.0-24.0-1.15","65e254b55a2803a51872aef0","6796e1c0ff24ca17c453c51c","67c7261aa0e51b4c07d279e3","passed","","508","","","","","","","","","","","","","","j","yesOrNo","","","","1","","","gt","700","","112","379.3711431702997","245.25"
"","","","","","html-keyboard-response","289","1460068","0.0-24.0-0.16","65e254b55a2803a51872aef0","6796e1c0ff24ca17c453c51c","67c7261aa0e51b4c07d279e3","passed","","","","","","","","","","","","","","","","","ballFalling","500","479.92114317029973","330.87","6","fallScene","true","","","","113","",""
"","","","","","html-keyboard-response","290","1460783","0.0-24.0-1.16","65e254b55a2803a51872aef0","6796e1c0ff24ca17c453c51c","67c7261aa0e51b4c07d279e3","passed","","423","","","","","","","","","","","","","","j","yesOrNo","","","","6","","","mid","700","","113","499","300"
"","","","","","html-keyboard-response","291","1462351","0.0-24.0-0.17","65e254b55a2803a51872aef0","6796e1c0ff24ca17c453c51c","67c7261aa0e51b4c07d279e3","passed","","","","","","","","","","","","","","","","","ballFalling","604.4000000000001","575.4211431702997","266.76","12","fallScene","true","","","","114","",""
"","","","","","html-keyboard-response","292","1463066","0.0-24.0-1.17","65e254b55a2803a51872aef0","6796e1c0ff24ca17c453c51c","67c7261aa0e51b4c07d279e3","passed","","528","","","","","","","","","","","","","","f","yesOrNo","","","","12","","","mid","700","","114","536.4288568297004","300"
"","","","","","html-keyboard-response","293","1465067","0.0-24.0-0.18","65e254b55a2803a51872aef0","6796e1c0ff24ca17c453c51c","67c7261aa0e51b4c07d279e3","passed","","","","","","","","","","","","","","","","","ballFalling","604.4000000000001","596.8711431702998","394.5","10","fallScene","true","","","","115","",""
"","","","","","html-keyboard-response","294","1465772","0.0-24.0-1.18","65e254b55a2803a51872aef0","6796e1c0ff24ca17c453c51c","67c7261aa0e51b4c07d279e3","passed","","394","","","","","","","","","","","","","","j","yesOrNo","","","","10","","","lp","700","","115","603.4000000000001","215.50214355555383"
"","","","","","html-keyboard-response","295","1467280","0.0-24.0-0.19","65e254b55a2803a51872aef0","6796e1c0ff24ca17c453c51c","67c7261aa0e51b4c07d279e3","passed","","","","","","","","","","","","","","","","","ballFalling","604.4000000000001","667.6211431702998","201.78","9","fallScene","false","","","","116","",""
"","","","","","html-keyboard-response","296","1467983","0.0-24.0-1.19","65e254b55a2803a51872aef0","6796e1c0ff24ca17c453c51c","67c7261aa0e51b4c07d279e3","passed","","371","","","","","","","","","","","","","","j","yesOrNo","","","","9","","","lp","700","","116","605.4000000000001","151"
"","","","","","html-keyboard-response","297","1469534","0.0-24.0-0.20","65e254b55a2803a51872aef0","6796e1c0ff24ca17c453c51c","67c7261aa0e51b4c07d279e3","passed","","","","","","","","","","","","","","","","","ballFalling","500","453.67114317029973","210.33","5","fallScene","false","","","","117","",""
"","","","","","html-keyboard-response","298","1470240","0.0-24.0-1.20","65e254b55a2803a51872aef0","6796e1c0ff24ca17c453c51c","67c7261aa0e51b4c07d279e3","passed","","425","","","","","","","","","","","","","","j","yesOrNo","","","","5","","","lp","700","","117","499","151"
"","","","","","html-keyboard-response","299","1471800","0.0-24.0-0.21","65e254b55a2803a51872aef0","6796e1c0ff24ca17c453c51c","67c7261aa0e51b4c07d279e3","passed","","","","","","","","","","","","","","","","","ballFalling","604.4000000000001","650.0211431702996","404.58000000000004","11","fallScene","false","","","","118","",""
"","","","","","html-keyboard-response","300","1472510","0.0-24.0-1.21","65e254b55a2803a51872aef0","6796e1c0ff24ca17c453c51c","67c7261aa0e51b4c07d279e3","passed","","483","","","","","","","","","","","","","","f","yesOrNo","","","","11","","","lp","700","","118","605.4000000000001","372.6340973215488"
"","","","","","html-keyboard-response","301","1474517","0.0-24.0-0.22","65e254b55a2803a51872aef0","6796e1c0ff24ca17c453c51c","67c7261aa0e51b4c07d279e3","passed","","","","","","","","","","","","","","","","","ballFalling","604.4000000000001","596.8711431702998","394.5","10","fallScene","false","","","","119","",""
"","","","","","html-keyboard-response","302","1475233","0.0-24.0-1.22","65e254b55a2803a51872aef0","6796e1c0ff24ca17c453c51c","67c7261aa0e51b4c07d279e3","passed","","388","","","","","","","","","","","","","","j","yesOrNo","","","","10","","","lp","700","","119","603.4000000000001","215.50214355555383"
"","","","","","html-keyboard-response","303","1476800","0.0-24.0-0.23","65e254b55a2803a51872aef0","6796e1c0ff24ca17c453c51c","67c7261aa0e51b4c07d279e3","passed","","","","","","","","","","","","","","","","","ballFalling","500","553.4711431702997","282.51","7","fallScene","false","","","","120","",""
"","","","","","html-keyboard-response","304","1477511","0.0-24.0-1.23","65e254b55a2803a51872aef0","6796e1c0ff24ca17c453c51c","67c7261aa0e51b4c07d279e3","passed","","460","","","","","","","","","","","","","","f","yesOrNo","","","","7","","","gt","700","","120","553.4711431702997","282.51"
"","","","","","html-keyboard-response","305","1479565","0.0-25.0","65e254b55a2803a51872aef0","6796e1c0ff24ca17c453c51c","67c7261aa0e51b4c07d279e3","passed","","2053","","","","","","","","","","","","","<p><span style=""font-size:40px;"">BLOCK 6</span></p><p><span style=""font-size:25px;"">You have <b style=""color: #FF644F;""><strong>3 second(s)</strong></b> to respond to the following trials.</span><br></p><p></p> <!-- Blank line -->
                <p id=""blinking-text"" style=""font-weight; animation: blink 2s infinite;"">Press Space to continue</p>
                <style>
                    @keyframes blink {
                        50% {
                            opacity: 0;
                        }
                    }
                </style></p>"," ","","","","","","","","","","","","",""
"","","","","","html-keyboard-response","306","1481117","0.0-26.0-0.0","65e254b55a2803a51872aef0","6796e1c0ff24ca17c453c51c","67c7261aa0e51b4c07d279e3","passed","","","","","","","","","","","","","","","","","ballFalling","604.4000000000001","575.4211431702997","266.76","12","fallScene","true","","","","121","",""
