"success","timeout","failed_images","failed_audio","failed_video","trial_type","trial_index","time_elapsed","internal_node_id","subject_id","study_id","session_id","practiceTestResult","view_history","rt","width","height","webaudio","browser","browser_version","mobile","os","fullscreen","vsync_rate","webcam","microphone","url","stimulus","response","task","ball_X","obstacle_groundTruth_x","obstacle_groundTruth_y","stimulus_idx","trial_name","flipped","choice","timeLimit","question_order","comprehensionCheck","currentTrial","obstacle_choice_x","obstacle_choice_y"
"true","false","[]","[]","[]","preload","0","523","0.0-0.0","663a77b9f973602bcedaf526","6796e1c0ff24ca17c453c51c","67c71dfd3fc2aa50703c8644","passed","","","","","","","","","","","","","","","","","","","","","","","","","","","","","",""
"","","","","","instructions","1","39379","0.0-1.0","663a77b9f973602bcedaf526","6796e1c0ff24ca17c453c51c","67c71dfd3fc2aa50703c8644","passed","[{""page_index"":0,""viewing_time"":38857}]","38858","","","","","","","","","","","","","","","","","","","","","","","","","","","",""
"","","","","","browser-check","2","40365","0.0-2.0","663a77b9f973602bcedaf526","6796e1c0ff24ca17c453c51c","67c71dfd3fc2aa50703c8644","passed","","","1434","781","true","chrome","133.0.0","false","Mac OS","true","60.99","true","true","","","","","","","","","","","","","","","","",""
"","","","","","external-html","3","45645","0.0-3.0","663a77b9f973602bcedaf526","6796e1c0ff24ca17c453c51c","67c71dfd3fc2aa50703c8644","passed","","5038","","","","","","","","","","","","consent.html","","","","","","","","","","","","","","","",""
"true","","","","","fullscreen","4","49730","0.0-4.0","663a77b9f973602bcedaf526","6796e1c0ff24ca17c453c51c","67c71dfd3fc2aa50703c8644","passed","","3782","","","","","","","","","","","","","","","","","","","","","","","","","","","",""
"","","","","","browser-check","5","50715","0.0-5.0","663a77b9f973602bcedaf526","6796e1c0ff24ca17c453c51c","67c71dfd3fc2aa50703c8644","passed","","","1434","868","true","chrome","133.0.0","false","Mac OS","true","60.94","true","true","","","","","","","","","","","","","","","","",""
"","","","","","html-keyboard-response","6","55016","0.0-6.0","663a77b9f973602bcedaf526","6796e1c0ff24ca17c453c51c","67c71dfd3fc2aa50703c8644","passed","","4284","","","","","","","","","","","","","<p><b>This experiment requires keyboard input.</b></p> 
        <p><b>To ensure your response will be recorded successfully, please press 'Space' to continue.</b></p>
        <p>If you can't proceed, you won't be able to complete this study.</p>
        <p></p> <!-- Blank line -->
        <p id=""blinking-text"" style=""font-weight; animation: blink 2s infinite;"">Press Space to continue</p>
        <style>
            @keyframes blink {
                50% {
                    opacity: 0;
                }
            }
        </style>"," ","","","","","","","","","","","","","",""
"","","","","","html-keyboard-response","7","57573","0.0-7.0","663a77b9f973602bcedaf526","6796e1c0ff24ca17c453c51c","67c71dfd3fc2aa50703c8644","passed","","2525","","","","","","","","","","","","","<p><b>This experiment requires keyboard input.</b></p> 
        <p><b>To ensure your response will be recorded successfully, please press the 'f' key to continue.</b></p>
        <p>If you can't proceed, you won't be able to complete this study.</p>
        <p></p> <!-- Blank line -->
        <p id=""blinking-text"" style=""font-weight; animation: blink 2s infinite;"">Press f to continue</p>
        <style>
            @keyframes blink {
                50% {
                    opacity: 0;
                }
            }
        </style>","f","","","","","","","","","","","","","",""
"","","","","","html-keyboard-response","8","58670","0.0-8.0","663a77b9f973602bcedaf526","6796e1c0ff24ca17c453c51c","67c71dfd3fc2aa50703c8644","passed","","1097","","","","","","","","","","","","","<p><b>This experiment requires keyboard input.</b></p> 
        <p><b>To ensure your response will be recorded successfully, please press the 'j' key to continue.</b></p>
        <p>If you can't proceed, you won't be able to complete this study.</p>
        <p></p> <!-- Blank line -->
        <p id=""blinking-text"" style=""font-weight; animation: blink 2s infinite;"">Press j to continue</p>
        <style>
            @keyframes blink {
                50% {
                    opacity: 0;
                }
            }
        </style>","j","","","","","","","","","","","","","",""
"","","","","","browser-check","9","59681","0.0-9.0","663a77b9f973602bcedaf526","6796e1c0ff24ca17c453c51c","67c71dfd3fc2aa50703c8644","passed","","","1440","900","true","chrome","133.0.0","false","Mac OS","true","60.01","true","true","","","","","","","","","","","","","","","","",""
"","","","","","survey-text","10","73201","0.0-10.0","663a77b9f973602bcedaf526","6796e1c0ff24ca17c453c51c","67c71dfd3fc2aa50703c8644","passed","","13508","","","","","","","","","","","","","","{""prolificID"":""663a77b9f973602bcedaf526""}","","","","","","","","","","","","","",""
"","","","","","instructions","11","138744","0.0-11.0-0.0-0.0","663a77b9f973602bcedaf526","6796e1c0ff24ca17c453c51c","67c71dfd3fc2aa50703c8644","passed","[{""page_index"":0,""viewing_time"":37078},{""page_index"":1,""viewing_time"":11199},{""page_index"":2,""viewing_time"":8766},{""page_index"":3,""viewing_time"":8501}]","65544","","","","","","","","","","","","","","","","","","","","","","","","","","","",""
"","","","","","html-keyboard-response","12","161946","0.0-11.0-0.0-1.0","663a77b9f973602bcedaf526","6796e1c0ff24ca17c453c51c","67c71dfd3fc2aa50703c8644","passed","","22698","","","","","","","","","","","","","<br>Remember! After a ball falls, the screen will disappear, and you'll decide if the proposed position is where the hidden triangle was. <br>You will now practice this by watching a few videos and making decisions.<p>To respond:<br style=""margin-bottom: 5px; text-indent: -20px; padding-left: 20px;"">- Press <b style=""color: #12AD2B;"">J for Yes</b>, if you think the triangle is in the correct position.<br style=""margin-top: 0; text-indent: -20px; padding-left: 20px;"">- Press <b style=""color: orange;"">F for No</b>, if you think the triangle is not in the correct position.</p><p>In this practice round, there is no time limit. Focus on getting comfortable with the task first.<br>Press either J or F to begin your practice trials.</p><img src = ""YesOrNo_instruction.png"" style=""width: 65%;""></img>","f","","","","","","","","","","","","","",""
"","","","","","html-keyboard-response","13","163915","0.0-11.0-0.0-2.0-0.0","663a77b9f973602bcedaf526","6796e1c0ff24ca17c453c51c","67c71dfd3fc2aa50703c8644","passed","","","","","","","","","","","","","","","","","ballFalling_prac","416","464","296","1","fallScene","false","","","","","","",""
"","","","","","html-keyboard-response","14","165324","0.0-11.0-0.0-2.0-1.0","663a77b9f973602bcedaf526","6796e1c0ff24ca17c453c51c","67c71dfd3fc2aa50703c8644","passed","","1404","","","","","","","","","","","","","","j","yesOrNo_prac_noTimed","","","","1","","","gt","NA","","","","",""
"","","","","","html-keyboard-response","15","167432","0.0-11.0-0.0-2.0-0.1","663a77b9f973602bcedaf526","6796e1c0ff24ca17c453c51c","67c71dfd3fc2aa50703c8644","passed","","","","","","","","","","","","","","","","","ballFalling_prac","660","666","350","3","fallScene","false","","","","","","",""
"","","","","","html-keyboard-response","16","171566","0.0-11.0-0.0-2.0-1.1","663a77b9f973602bcedaf526","6796e1c0ff24ca17c453c51c","67c71dfd3fc2aa50703c8644","passed","","4132","","","","","","","","","","","","","","f","yesOrNo_prac_noTimed","","","","3","","","wrong direction","NA","","","","",""
"","","","","","html-keyboard-response","17","173147","0.0-11.0-0.0-2.0-0.2","663a77b9f973602bcedaf526","6796e1c0ff24ca17c453c51c","67c71dfd3fc2aa50703c8644","passed","","","","","","","","","","","","","","","","","ballFalling_prac","441","414","302","5","fallScene","true","","","","","","",""
"","","","","","html-keyboard-response","18","174471","0.0-11.0-0.0-2.0-1.2","663a77b9f973602bcedaf526","6796e1c0ff24ca17c453c51c","67c71dfd3fc2aa50703c8644","passed","","1322","","","","","","","","","","","","","","j","yesOrNo_prac_noTimed","","","","5","","","close gt","NA","","","","",""
"","","","","","instructions","19","199729","0.0-11.0-0.0-3.0","663a77b9f973602bcedaf526","6796e1c0ff24ca17c453c51c","67c71dfd3fc2aa50703c8644","passed","[{""page_index"":0,""viewing_time"":9256},{""page_index"":1,""viewing_time"":16001}]","25257","","","","","","","","","","","","","","","","","","","","","","","","","","","",""
"","","","","","html-button-response","20","206059","0.0-11.0-0.0-4.0","663a77b9f973602bcedaf526","6796e1c0ff24ca17c453c51c","67c71dfd3fc2aa50703c8644","passed","","5829","","","","","","","","","","","","","<p>To make sure you understood the task, we just have a <b>brief quiz</b> here.</p><p>If you need to review the instructions, click 'Previous'.</p><p>It's important to understand the task to do the study, so you have to pass the quiz to move to the study.</p>","1","","","","","","","","","","","","","",""
"","","","","","survey-multi-choice","21","220780","0.0-11.0-1.0-0.0","663a77b9f973602bcedaf526","6796e1c0ff24ca17c453c51c","67c71dfd3fc2aa50703c8644","passed","","14719","","","","","","","","","","","","","","{""generalProcedure"":""Watch a video of a ball falling, some of it behind a gray screen. After each video, decide if the triangle is at the spot where the ball hit the triangle behind the screen. There is time limit for the response.""}","","","","","","","","","","[0]","","","",""
"","","","","","survey-multi-choice","22","228878","0.0-11.0-1.0-1.0","663a77b9f973602bcedaf526","6796e1c0ff24ca17c453c51c","67c71dfd3fc2aa50703c8644","passed","","8094","","","","","","","","","","","","","","{""checkBallHitObstacle"":""Yes.""}","","","","","","","","","","[0]","","","",""
"","","","","","survey-multi-choice","23","233361","0.0-11.0-1.0-2.0","663a77b9f973602bcedaf526","6796e1c0ff24ca17c453c51c","67c71dfd3fc2aa50703c8644","passed","","4481","","","","","","","","","","","","","","{""checkTriangleVisibility"":""No, the triangle is hidden behind the gray screen.""}","","","","","","","","","","[0]","","","",""
"","","","","","survey-multi-choice","24","239196","0.0-11.0-1.0-3.0","663a77b9f973602bcedaf526","6796e1c0ff24ca17c453c51c","67c71dfd3fc2aa50703c8644","passed","","5833","","","","","","","","","","","","","","{""checkTimedResponse"":""The trial will wait for your response.""}","","","","","","","","","","[0]","","","",""
"","","","","","survey-multi-choice","25","247961","0.0-11.0-1.0-4.0","663a77b9f973602bcedaf526","6796e1c0ff24ca17c453c51c","67c71dfd3fc2aa50703c8644","passed","","8764","","","","","","","","","","","","","","{""checkTimeBlockNotice"":""At the beginning of each block.""}","","","","","","","","","","[0]","","","",""
"","","","","","survey-multi-choice","26","254276","0.0-11.0-1.0-5.0","663a77b9f973602bcedaf526","6796e1c0ff24ca17c453c51c","67c71dfd3fc2aa50703c8644","passed","","6314","","","","","","","","","","","","","","{""checkTimeBlockSameness"":""Yes, the time limit is the same for all trials within a block.""}","","","","","","","","","","[0]","","","",""
"","","","","","survey-multi-choice","27","279511","0.0-11.0-1.0-6.0","663a77b9f973602bcedaf526","6796e1c0ff24ca17c453c51c","67c71dfd3fc2aa50703c8644","passed","","25235","","","","","","","","","","","","","","{""checkTrianglePrecision"":""No. The proposed purple triangle is not in the correct position because it doesn't match the location of the white triangle exactly.""}","","","","","","","","","","[0]","","","",""
"","","","","","html-button-response","28","281643","0.0-11.0-2.0-0.0","663a77b9f973602bcedaf526","6796e1c0ff24ca17c453c51c","67c71dfd3fc2aa50703c8644","passed","","2128","","","","","","","","","","","","","<p>Oops! You did not pass the quiz.</p><p>You will now repeat the instructions and practice.</p>","0","","","","","","","","","","","failed","","",""
"","","","","","instructions","29","290294","0.0-11.1-0.1-0.1","663a77b9f973602bcedaf526","6796e1c0ff24ca17c453c51c","67c71dfd3fc2aa50703c8644","passed","[{""page_index"":0,""viewing_time"":1515},{""page_index"":1,""viewing_time"":1183},{""page_index"":2,""viewing_time"":3268},{""page_index"":3,""viewing_time"":2684}]","8651","","","","","","","","","","","","","","","","","","","","","","","","","","","",""
"","","","","","html-keyboard-response","30","293842","0.0-11.1-0.1-1.1","663a77b9f973602bcedaf526","6796e1c0ff24ca17c453c51c","67c71dfd3fc2aa50703c8644","passed","","3044","","","","","","","","","","","","","<br>Remember! After a ball falls, the screen will disappear, and you'll decide if the proposed position is where the hidden triangle was. <br>You will now practice this by watching a few videos and making decisions.<p>To respond:<br style=""margin-bottom: 5px; text-indent: -20px; padding-left: 20px;"">- Press <b style=""color: #12AD2B;"">J for Yes</b>, if you think the triangle is in the correct position.<br style=""margin-top: 0; text-indent: -20px; padding-left: 20px;"">- Press <b style=""color: orange;"">F for No</b>, if you think the triangle is not in the correct position.</p><p>In this practice round, there is no time limit. Focus on getting comfortable with the task first.<br>Press either J or F to begin your practice trials.</p><img src = ""YesOrNo_instruction.png"" style=""width: 65%;""></img>","j","","","","","","","","","","","","","",""
"","","","","","html-keyboard-response","31","295946","0.0-11.1-0.1-2.1-0.3","663a77b9f973602bcedaf526","6796e1c0ff24ca17c453c51c","67c71dfd3fc2aa50703c8644","passed","","","","","","","","","","","","","","","","","ballFalling_prac","660","666","350","3","fallScene","false","","","","","","",""
"","","","","","html-keyboard-response","32","298310","0.0-11.1-0.1-2.1-1.3","663a77b9f973602bcedaf526","6796e1c0ff24ca17c453c51c","67c71dfd3fc2aa50703c8644","passed","","2361","","","","","","","","","","","","","","f","yesOrNo_prac_noTimed","","","","3","","","wrong direction","NA","","","","",""
"","","","","","html-keyboard-response","33","299880","0.0-11.1-0.1-2.1-0.4","663a77b9f973602bcedaf526","6796e1c0ff24ca17c453c51c","67c71dfd3fc2aa50703c8644","passed","","","","","","","","","","","","","","","","","ballFalling_prac","441","414","302","5","fallScene","true","","","","","","",""
"","","","","","html-keyboard-response","34","300699","0.0-11.1-0.1-2.1-1.4","663a77b9f973602bcedaf526","6796e1c0ff24ca17c453c51c","67c71dfd3fc2aa50703c8644","passed","","816","","","","","","","","","","","","","","j","yesOrNo_prac_noTimed","","","","5","","","close gt","NA","","","","",""
"","","","","","html-keyboard-response","35","302262","0.0-11.1-0.1-2.1-0.5","663a77b9f973602bcedaf526","6796e1c0ff24ca17c453c51c","67c71dfd3fc2aa50703c8644","passed","","","","","","","","","","","","","","","","","ballFalling_prac","416","464","296","1","fallScene","false","","","","","","",""
"","","","","","html-keyboard-response","36","303694","0.0-11.1-0.1-2.1-1.5","663a77b9f973602bcedaf526","6796e1c0ff24ca17c453c51c","67c71dfd3fc2aa50703c8644","passed","","1431","","","","","","","","","","","","","","j","yesOrNo_prac_noTimed","","","","1","","","gt","NA","","","","",""
"","","","","","instructions","37","308726","0.0-11.1-0.1-3.1","663a77b9f973602bcedaf526","6796e1c0ff24ca17c453c51c","67c71dfd3fc2aa50703c8644","passed","[{""page_index"":0,""viewing_time"":2663},{""page_index"":1,""viewing_time"":2367}]","5031","","","","","","","","","","","","","","","","","","","","","","","","","","","",""
"","","","","","html-button-response","38","310459","0.0-11.1-0.1-4.1","663a77b9f973602bcedaf526","6796e1c0ff24ca17c453c51c","67c71dfd3fc2aa50703c8644","passed","","1231","","","","","","","","","","","","","<p>To make sure you understood the task, we just have a <b>brief quiz</b> here.</p><p>If you need to review the instructions, click 'Previous'.</p><p>It's important to understand the task to do the study, so you have to pass the quiz to move to the study.</p>","1","","","","","","","","","","","","","",""
"","","","","","survey-multi-choice","39","313560","0.0-11.1-1.1-0.1","663a77b9f973602bcedaf526","6796e1c0ff24ca17c453c51c","67c71dfd3fc2aa50703c8644","passed","","3100","","","","","","","","","","","","","","{""generalProcedure"":""Watch a video of a ball falling, some of it behind a gray screen. After each video, decide if the triangle is at the spot where the ball hit the triangle behind the screen. There is time limit for the response.""}","","","","","","","","","","[0]","","","",""
"","","","","","survey-multi-choice","40","319370","0.0-11.1-1.1-1.1","663a77b9f973602bcedaf526","6796e1c0ff24ca17c453c51c","67c71dfd3fc2aa50703c8644","passed","","5809","","","","","","","","","","","","","","{""checkBallHitObstacle"":""Yes.""}","","","","","","","","","","[0]","","","",""
"","","","","","survey-multi-choice","41","321475","0.0-11.1-1.1-2.1","663a77b9f973602bcedaf526","6796e1c0ff24ca17c453c51c","67c71dfd3fc2aa50703c8644","passed","","2105","","","","","","","","","","","","","","{""checkTriangleVisibility"":""No, the triangle is hidden behind the gray screen.""}","","","","","","","","","","[0]","","","",""
"","","","","","survey-multi-choice","42","325042","0.0-11.1-1.1-3.1","663a77b9f973602bcedaf526","6796e1c0ff24ca17c453c51c","67c71dfd3fc2aa50703c8644","passed","","3567","","","","","","","","","","","","","","{""checkTimedResponse"":""The trial will wait for your response.""}","","","","","","","","","","[0]","","","",""
"","","","","","survey-multi-choice","43","328109","0.0-11.1-1.1-4.1","663a77b9f973602bcedaf526","6796e1c0ff24ca17c453c51c","67c71dfd3fc2aa50703c8644","passed","","3066","","","","","","","","","","","","","","{""checkTimeBlockNotice"":""At the beginning of each block.""}","","","","","","","","","","[0]","","","",""
"","","","","","survey-multi-choice","44","330829","0.0-11.1-1.1-5.1","663a77b9f973602bcedaf526","6796e1c0ff24ca17c453c51c","67c71dfd3fc2aa50703c8644","passed","","2720","","","","","","","","","","","","","","{""checkTimeBlockSameness"":""Yes, the time limit is the same for all trials within a block.""}","","","","","","","","","","[0]","","","",""
"","","","","","survey-multi-choice","45","333561","0.0-11.1-1.1-6.1","663a77b9f973602bcedaf526","6796e1c0ff24ca17c453c51c","67c71dfd3fc2aa50703c8644","passed","","2731","","","","","","","","","","","","","","{""checkTrianglePrecision"":""Yes. The proposed purple triangle is very close to the correct position, so I should choose 'Yes.'""}","","","","","","","","","","[0]","","","",""
"","","","","","html-button-response","46","335176","0.0-11.1-2.1-0.1","663a77b9f973602bcedaf526","6796e1c0ff24ca17c453c51c","67c71dfd3fc2aa50703c8644","passed","","1612","","","","","","","","","","","","","<p>Oops! You did not pass the quiz.</p><p>You will now repeat the instructions and practice.</p>","0","","","","","","","","","","","failed","","",""
"","","","","","instructions","47","342625","0.0-11.2-0.2-0.2","663a77b9f973602bcedaf526","6796e1c0ff24ca17c453c51c","67c71dfd3fc2aa50703c8644","passed","[{""page_index"":0,""viewing_time"":1180},{""page_index"":1,""viewing_time"":502},{""page_index"":2,""viewing_time"":2982},{""page_index"":3,""viewing_time"":2783}]","7448","","","","","","","","","","","","","","","","","","","","","","","","","","","",""
"","","","","","html-keyboard-response","48","349974","0.0-11.2-0.2-1.2","663a77b9f973602bcedaf526","6796e1c0ff24ca17c453c51c","67c71dfd3fc2aa50703c8644","passed","","6846","","","","","","","","","","","","","<br>Remember! After a ball falls, the screen will disappear, and you'll decide if the proposed position is where the hidden triangle was. <br>You will now practice this by watching a few videos and making decisions.<p>To respond:<br style=""margin-bottom: 5px; text-indent: -20px; padding-left: 20px;"">- Press <b style=""color: #12AD2B;"">J for Yes</b>, if you think the triangle is in the correct position.<br style=""margin-top: 0; text-indent: -20px; padding-left: 20px;"">- Press <b style=""color: orange;"">F for No</b>, if you think the triangle is not in the correct position.</p><p>In this practice round, there is no time limit. Focus on getting comfortable with the task first.<br>Press either J or F to begin your practice trials.</p><img src = ""YesOrNo_instruction.png"" style=""width: 65%;""></img>","j","","","","","","","","","","","","","",""
"","","","","","html-keyboard-response","49","351546","0.0-11.2-0.2-2.2-0.6","663a77b9f973602bcedaf526","6796e1c0ff24ca17c453c51c","67c71dfd3fc2aa50703c8644","passed","","","","","","","","","","","","","","","","","ballFalling_prac","441","414","302","5","fallScene","true","","","","","","",""
"","","","","","html-keyboard-response","50","352544","0.0-11.2-0.2-2.2-1.6","663a77b9f973602bcedaf526","6796e1c0ff24ca17c453c51c","67c71dfd3fc2aa50703c8644","passed","","996","","","","","","","","","","","","","","j","yesOrNo_prac_noTimed","","","","5","","","close gt","NA","","","","",""
"","","","","","html-keyboard-response","51","354645","0.0-11.2-0.2-2.2-0.7","663a77b9f973602bcedaf526","6796e1c0ff24ca17c453c51c","67c71dfd3fc2aa50703c8644","passed","","","","","","","","","","","","","","","","","ballFalling_prac","660","666","350","3","fallScene","false","","","","","","",""
"","","","","","html-keyboard-response","52","358352","0.0-11.2-0.2-2.2-1.7","663a77b9f973602bcedaf526","6796e1c0ff24ca17c453c51c","67c71dfd3fc2aa50703c8644","passed","","3705","","","","","","","","","","","","","","f","yesOrNo_prac_noTimed","","","","3","","","wrong direction","NA","","","","",""
"","","","","","html-keyboard-response","53","359912","0.0-11.2-0.2-2.2-0.8","663a77b9f973602bcedaf526","6796e1c0ff24ca17c453c51c","67c71dfd3fc2aa50703c8644","passed","","","","","","","","","","","","","","","","","ballFalling_prac","416","464","296","1","fallScene","false","","","","","","",""
"","","","","","html-keyboard-response","54","360749","0.0-11.2-0.2-2.2-1.8","663a77b9f973602bcedaf526","6796e1c0ff24ca17c453c51c","67c71dfd3fc2aa50703c8644","passed","","833","","","","","","","","","","","","","","j","yesOrNo_prac_noTimed","","","","1","","","gt","NA","","","","",""
"","","","","","instructions","55","363942","0.0-11.2-0.2-3.2","663a77b9f973602bcedaf526","6796e1c0ff24ca17c453c51c","67c71dfd3fc2aa50703c8644","passed","[{""page_index"":0,""viewing_time"":1458},{""page_index"":1,""viewing_time"":1734}]","3193","","","","","","","","","","","","","","","","","","","","","","","","","","","",""
"","","","","","html-button-response","56","366041","0.0-11.2-0.2-4.2","663a77b9f973602bcedaf526","6796e1c0ff24ca17c453c51c","67c71dfd3fc2aa50703c8644","passed","","1596","","","","","","","","","","","","","<p>To make sure you understood the task, we just have a <b>brief quiz</b> here.</p><p>If you need to review the instructions, click 'Previous'.</p><p>It's important to understand the task to do the study, so you have to pass the quiz to move to the study.</p>","1","","","","","","","","","","","","","",""
"","","","","","survey-multi-choice","57","368375","0.0-11.2-1.2-0.2","663a77b9f973602bcedaf526","6796e1c0ff24ca17c453c51c","67c71dfd3fc2aa50703c8644","passed","","2334","","","","","","","","","","","","","","{""generalProcedure"":""Watch a video of a ball falling, some of it behind a gray screen. After each video, decide if the triangle is at the spot where the ball hit the triangle behind the screen. There is time limit for the response.""}","","","","","","","","","","[0]","","","",""
"","","","","","survey-multi-choice","58","371760","0.0-11.2-1.2-1.2","663a77b9f973602bcedaf526","6796e1c0ff24ca17c453c51c","67c71dfd3fc2aa50703c8644","passed","","3384","","","","","","","","","","","","","","{""checkBallHitObstacle"":""Yes.""}","","","","","","","","","","[0]","","","",""
"","","","","","survey-multi-choice","59","373960","0.0-11.2-1.2-2.2","663a77b9f973602bcedaf526","6796e1c0ff24ca17c453c51c","67c71dfd3fc2aa50703c8644","passed","","2198","","","","","","","","","","","","","","{""checkTriangleVisibility"":""No, the triangle is hidden behind the gray screen.""}","","","","","","","","","","[0]","","","",""
"","","","","","survey-multi-choice","60","375844","0.0-11.2-1.2-3.2","663a77b9f973602bcedaf526","6796e1c0ff24ca17c453c51c","67c71dfd3fc2aa50703c8644","passed","","1883","","","","","","","","","","","","","","{""checkTimedResponse"":""The trial will wait for your response.""}","","","","","","","","","","[0]","","","",""
"","","","","","survey-multi-choice","61","377410","0.0-11.2-1.2-4.2","663a77b9f973602bcedaf526","6796e1c0ff24ca17c453c51c","67c71dfd3fc2aa50703c8644","passed","","1565","","","","","","","","","","","","","","{""checkTimeBlockNotice"":""At the beginning of each block.""}","","","","","","","","","","[0]","","","",""
"","","","","","survey-multi-choice","62","380274","0.0-11.2-1.2-5.2","663a77b9f973602bcedaf526","6796e1c0ff24ca17c453c51c","67c71dfd3fc2aa50703c8644","passed","","2863","","","","","","","","","","","","","","{""checkTimeBlockSameness"":""Yes, the time limit is the same for all trials within a block.""}","","","","","","","","","","[0]","","","",""
"","","","","","survey-multi-choice","63","404927","0.0-11.2-1.2-6.2","663a77b9f973602bcedaf526","6796e1c0ff24ca17c453c51c","67c71dfd3fc2aa50703c8644","passed","","24652","","","","","","","","","","","","","","{""checkTrianglePrecision"":""No. The proposed purple triangle is not in the correct position because it doesn't match the location of the white triangle exactly.""}","","","","","","","","","","[0]","","","",""
"","","","","","html-button-response","64","406576","0.0-11.2-2.2-0.2","663a77b9f973602bcedaf526","6796e1c0ff24ca17c453c51c","67c71dfd3fc2aa50703c8644","passed","","1646","","","","","","","","","","","","","<p>Oops! You did not pass the quiz.</p><p>You will now repeat the instructions and practice.</p>","0","","","","","","","","","","","failed","","",""
"","","","","","instructions","65","415260","0.0-11.3-0.3-0.3","663a77b9f973602bcedaf526","6796e1c0ff24ca17c453c51c","67c71dfd3fc2aa50703c8644","passed","[{""page_index"":0,""viewing_time"":1232},{""page_index"":1,""viewing_time"":2182},{""page_index"":2,""viewing_time"":3200},{""page_index"":3,""viewing_time"":2069}]","8683","","","","","","","","","","","","","","","","","","","","","","","","","","","",""
"","","","","","html-keyboard-response","66","417630","0.0-11.3-0.3-1.3","663a77b9f973602bcedaf526","6796e1c0ff24ca17c453c51c","67c71dfd3fc2aa50703c8644","passed","","1868","","","","","","","","","","","","","<br>Remember! After a ball falls, the screen will disappear, and you'll decide if the proposed position is where the hidden triangle was. <br>You will now practice this by watching a few videos and making decisions.<p>To respond:<br style=""margin-bottom: 5px; text-indent: -20px; padding-left: 20px;"">- Press <b style=""color: #12AD2B;"">J for Yes</b>, if you think the triangle is in the correct position.<br style=""margin-top: 0; text-indent: -20px; padding-left: 20px;"">- Press <b style=""color: orange;"">F for No</b>, if you think the triangle is not in the correct position.</p><p>In this practice round, there is no time limit. Focus on getting comfortable with the task first.<br>Press either J or F to begin your practice trials.</p><img src = ""YesOrNo_instruction.png"" style=""width: 65%;""></img>","f","","","","","","","","","","","","","",""
"","","","","","html-keyboard-response","67","419178","0.0-11.3-0.3-2.3-0.9","663a77b9f973602bcedaf526","6796e1c0ff24ca17c453c51c","67c71dfd3fc2aa50703c8644","passed","","","","","","","","","","","","","","","","","ballFalling_prac","416","464","296","1","fallScene","false","","","","","","",""
"","","","","","html-keyboard-response","68","419992","0.0-11.3-0.3-2.3-1.9","663a77b9f973602bcedaf526","6796e1c0ff24ca17c453c51c","67c71dfd3fc2aa50703c8644","passed","","811","","","","","","","","","","","","","","j","yesOrNo_prac_noTimed","","","","1","","","gt","NA","","","","",""
"","","","","","html-keyboard-response","69","422095","0.0-11.3-0.3-2.3-0.10","663a77b9f973602bcedaf526","6796e1c0ff24ca17c453c51c","67c71dfd3fc2aa50703c8644","passed","","","","","","","","","","","","","","","","","ballFalling_prac","660","666","350","3","fallScene","false","","","","","","",""
"","","","","","html-keyboard-response","70","424214","0.0-11.3-0.3-2.3-1.10","663a77b9f973602bcedaf526","6796e1c0ff24ca17c453c51c","67c71dfd3fc2aa50703c8644","passed","","2118","","","","","","","","","","","","","","f","yesOrNo_prac_noTimed","","","","3","","","wrong direction","NA","","","","",""
"","","","","","html-keyboard-response","71","425795","0.0-11.3-0.3-2.3-0.11","663a77b9f973602bcedaf526","6796e1c0ff24ca17c453c51c","67c71dfd3fc2aa50703c8644","passed","","","","","","","","","","","","","","","","","ballFalling_prac","441","414","302","5","fallScene","true","","","","","","",""
"","","","","","html-keyboard-response","72","427066","0.0-11.3-0.3-2.3-1.11","663a77b9f973602bcedaf526","6796e1c0ff24ca17c453c51c","67c71dfd3fc2aa50703c8644","passed","","1268","","","","","","","","","","","","","","j","yesOrNo_prac_noTimed","","","","5","","","close gt","NA","","","","",""
"","","","","","instructions","73","429893","0.0-11.3-0.3-3.3","663a77b9f973602bcedaf526","6796e1c0ff24ca17c453c51c","67c71dfd3fc2aa50703c8644","passed","[{""page_index"":0,""viewing_time"":1758},{""page_index"":1,""viewing_time"":1067}]","2826","","","","","","","","","","","","","","","","","","","","","","","","","","","",""
"","","","","","html-button-response","74","431192","0.0-11.3-0.3-4.3","663a77b9f973602bcedaf526","6796e1c0ff24ca17c453c51c","67c71dfd3fc2aa50703c8644","passed","","797","","","","","","","","","","","","","<p>To make sure you understood the task, we just have a <b>brief quiz</b> here.</p><p>If you need to review the instructions, click 'Previous'.</p><p>It's important to understand the task to do the study, so you have to pass the quiz to move to the study.</p>","1","","","","","","","","","","","","","",""
"","","","","","survey-multi-choice","75","434992","0.0-11.3-1.3-0.3","663a77b9f973602bcedaf526","6796e1c0ff24ca17c453c51c","67c71dfd3fc2aa50703c8644","passed","","3798","","","","","","","","","","","","","","{""generalProcedure"":""Watch a video of a ball falling, some of it behind a gray screen. After each video, decide if the triangle is at the spot where the ball hit the triangle behind the screen. There is time limit for the response.""}","","","","","","","","","","[0]","","","",""
"","","","","","survey-multi-choice","76","437059","0.0-11.3-1.3-1.3","663a77b9f973602bcedaf526","6796e1c0ff24ca17c453c51c","67c71dfd3fc2aa50703c8644","passed","","2065","","","","","","","","","","","","","","{""checkBallHitObstacle"":""Yes.""}","","","","","","","","","","[0]","","","",""
"","","","","","survey-multi-choice","77","439008","0.0-11.3-1.3-2.3","663a77b9f973602bcedaf526","6796e1c0ff24ca17c453c51c","67c71dfd3fc2aa50703c8644","passed","","1948","","","","","","","","","","","","","","{""checkTriangleVisibility"":""No, the triangle is hidden behind the gray screen.""}","","","","","","","","","","[0]","","","",""
"","","","","","survey-multi-choice","78","441526","0.0-11.3-1.3-3.3","663a77b9f973602bcedaf526","6796e1c0ff24ca17c453c51c","67c71dfd3fc2aa50703c8644","passed","","2517","","","","","","","","","","","","","","{""checkTimedResponse"":""The trial will wait for your response.""}","","","","","","","","","","[0]","","","",""
"","","","","","survey-multi-choice","79","443360","0.0-11.3-1.3-4.3","663a77b9f973602bcedaf526","6796e1c0ff24ca17c453c51c","67c71dfd3fc2aa50703c8644","passed","","1832","","","","","","","","","","","","","","{""checkTimeBlockNotice"":""At the beginning of each block.""}","","","","","","","","","","[0]","","","",""
"","","","","","survey-multi-choice","80","445776","0.0-11.3-1.3-5.3","663a77b9f973602bcedaf526","6796e1c0ff24ca17c453c51c","67c71dfd3fc2aa50703c8644","passed","","2414","","","","","","","","","","","","","","{""checkTimeBlockSameness"":""Yes, the time limit is the same for all trials within a block.""}","","","","","","","","","","[0]","","","",""
"","","","","","survey-multi-choice","81","454175","0.0-11.3-1.3-6.3","663a77b9f973602bcedaf526","6796e1c0ff24ca17c453c51c","67c71dfd3fc2aa50703c8644","passed","","8398","","","","","","","","","","","","","","{""checkTrianglePrecision"":""Yes. The proposed purple triangle is very close to the correct position, so I should choose 'Yes.'""}","","","","","","","","","","[0]","","","",""
"","","","","","html-button-response","82","455692","0.0-11.3-2.3-0.3","663a77b9f973602bcedaf526","6796e1c0ff24ca17c453c51c","67c71dfd3fc2aa50703c8644","passed","","1517","","","","","","","","","","","","","<p>Oops! You did not pass the quiz.</p><p>You will now repeat the instructions and practice.</p>","0","","","","","","","","","","","failed","","",""
"","","","","","instructions","83","460257","0.0-11.4-0.4-0.4","663a77b9f973602bcedaf526","6796e1c0ff24ca17c453c51c","67c71dfd3fc2aa50703c8644","passed","[{""page_index"":0,""viewing_time"":1065},{""page_index"":1,""viewing_time"":1768},{""page_index"":2,""viewing_time"":934},{""page_index"":3,""viewing_time"":798}]","4564","","","","","","","","","","","","","","","","","","","","","","","","","","","",""
"","","","","","html-keyboard-response","84","462287","0.0-11.4-0.4-1.4","663a77b9f973602bcedaf526","6796e1c0ff24ca17c453c51c","67c71dfd3fc2aa50703c8644","passed","","1526","","","","","","","","","","","","","<br>Remember! After a ball falls, the screen will disappear, and you'll decide if the proposed position is where the hidden triangle was. <br>You will now practice this by watching a few videos and making decisions.<p>To respond:<br style=""margin-bottom: 5px; text-indent: -20px; padding-left: 20px;"">- Press <b style=""color: #12AD2B;"">J for Yes</b>, if you think the triangle is in the correct position.<br style=""margin-top: 0; text-indent: -20px; padding-left: 20px;"">- Press <b style=""color: orange;"">F for No</b>, if you think the triangle is not in the correct position.</p><p>In this practice round, there is no time limit. Focus on getting comfortable with the task first.<br>Press either J or F to begin your practice trials.</p><img src = ""YesOrNo_instruction.png"" style=""width: 65%;""></img>","j","","","","","","","","","","","","","",""
"","","","","","html-keyboard-response","85","464378","0.0-11.4-0.4-2.4-0.12","663a77b9f973602bcedaf526","6796e1c0ff24ca17c453c51c","67c71dfd3fc2aa50703c8644","passed","","","","","","","","","","","","","","","","","ballFalling_prac","660","666","350","3","fallScene","false","","","","","","",""
"","","","","","html-keyboard-response","86","465830","0.0-11.4-0.4-2.4-1.12","663a77b9f973602bcedaf526","6796e1c0ff24ca17c453c51c","67c71dfd3fc2aa50703c8644","passed","","1451","","","","","","","","","","","","","","f","yesOrNo_prac_noTimed","","","","3","","","wrong direction","NA","","","","",""
"","","","","","html-keyboard-response","87","467395","0.0-11.4-0.4-2.4-0.13","663a77b9f973602bcedaf526","6796e1c0ff24ca17c453c51c","67c71dfd3fc2aa50703c8644","passed","","","","","","","","","","","","","","","","","ballFalling_prac","416","464","296","1","fallScene","false","","","","","","",""
"","","","","","html-keyboard-response","88","468218","0.0-11.4-0.4-2.4-1.13","663a77b9f973602bcedaf526","6796e1c0ff24ca17c453c51c","67c71dfd3fc2aa50703c8644","passed","","821","","","","","","","","","","","","","","j","yesOrNo_prac_noTimed","","","","1","","","gt","NA","","","","",""
"","","","","","html-keyboard-response","89","469795","0.0-11.4-0.4-2.4-0.14","663a77b9f973602bcedaf526","6796e1c0ff24ca17c453c51c","67c71dfd3fc2aa50703c8644","passed","","","","","","","","","","","","","","","","","ballFalling_prac","441","414","302","5","fallScene","true","","","","","","",""
"","","","","","html-keyboard-response","90","470579","0.0-11.4-0.4-2.4-1.14","663a77b9f973602bcedaf526","6796e1c0ff24ca17c453c51c","67c71dfd3fc2aa50703c8644","passed","","781","","","","","","","","","","","","","","j","yesOrNo_prac_noTimed","","","","5","","","close gt","NA","","","","",""
"","","","","","instructions","91","473459","0.0-11.4-0.4-3.4","663a77b9f973602bcedaf526","6796e1c0ff24ca17c453c51c","67c71dfd3fc2aa50703c8644","passed","[{""page_index"":0,""viewing_time"":1660},{""page_index"":1,""viewing_time"":1219}]","2879","","","","","","","","","","","","","","","","","","","","","","","","","","","",""
"","","","","","html-button-response","92","475241","0.0-11.4-0.4-4.4","663a77b9f973602bcedaf526","6796e1c0ff24ca17c453c51c","67c71dfd3fc2aa50703c8644","passed","","1279","","","","","","","","","","","","","<p>To make sure you understood the task, we just have a <b>brief quiz</b> here.</p><p>If you need to review the instructions, click 'Previous'.</p><p>It's important to understand the task to do the study, so you have to pass the quiz to move to the study.</p>","1","","","","","","","","","","","","","",""
"","","","","","survey-multi-choice","93","478441","0.0-11.4-1.4-0.4","663a77b9f973602bcedaf526","6796e1c0ff24ca17c453c51c","67c71dfd3fc2aa50703c8644","passed","","3200","","","","","","","","","","","","","","{""generalProcedure"":""Watch a video of a ball falling, some of it behind a gray screen. After each video, decide if the triangle is at the spot where the ball hit the triangle behind the screen. There is time limit for the response.""}","","","","","","","","","","[0]","","","",""
"","","","","","survey-multi-choice","94","480726","0.0-11.4-1.4-1.4","663a77b9f973602bcedaf526","6796e1c0ff24ca17c453c51c","67c71dfd3fc2aa50703c8644","passed","","2283","","","","","","","","","","","","","","{""checkBallHitObstacle"":""Yes.""}","","","","","","","","","","[0]","","","",""
"","","","","","survey-multi-choice","95","482240","0.0-11.4-1.4-2.4","663a77b9f973602bcedaf526","6796e1c0ff24ca17c453c51c","67c71dfd3fc2aa50703c8644","passed","","1513","","","","","","","","","","","","","","{""checkTriangleVisibility"":""No, the triangle is hidden behind the gray screen.""}","","","","","","","","","","[0]","","","",""
"","","","","","survey-multi-choice","96","483875","0.0-11.4-1.4-3.4","663a77b9f973602bcedaf526","6796e1c0ff24ca17c453c51c","67c71dfd3fc2aa50703c8644","passed","","1635","","","","","","","","","","","","","","{""checkTimedResponse"":""The trial will wait for your response.""}","","","","","","","","","","[0]","","","",""
"","","","","","survey-multi-choice","97","485892","0.0-11.4-1.4-4.4","663a77b9f973602bcedaf526","6796e1c0ff24ca17c453c51c","67c71dfd3fc2aa50703c8644","passed","","2015","","","","","","","","","","","","","","{""checkTimeBlockNotice"":""At the beginning of each block.""}","","","","","","","","","","[0]","","","",""
"","","","","","survey-multi-choice","98","488057","0.0-11.4-1.4-5.4","663a77b9f973602bcedaf526","6796e1c0ff24ca17c453c51c","67c71dfd3fc2aa50703c8644","passed","","2163","","","","","","","","","","","","","","{""checkTimeBlockSameness"":""Yes, the time limit is the same for all trials within a block.""}","","","","","","","","","","[0]","","","",""
"","","","","","survey-multi-choice","99","497990","0.0-11.4-1.4-6.4","663a77b9f973602bcedaf526","6796e1c0ff24ca17c453c51c","67c71dfd3fc2aa50703c8644","passed","","9933","","","","","","","","","","","","","","{""checkTrianglePrecision"":""No. The proposed purple triangle is not in the correct position because it doesn't match the location of the white triangle exactly.""}","","","","","","","","","","[0]","","","",""
"","","","","","html-button-response","100","536424","0.0-11.4-2.4-0.4","663a77b9f973602bcedaf526","6796e1c0ff24ca17c453c51c","67c71dfd3fc2aa50703c8644","passed","","38434","","","","","","","","","","","","","<p>Oops! You did not pass the quiz.</p><p>You will now repeat the instructions and practice.</p>","0","","","","","","","","","","","failed","","",""
"","","","","","instructions","101","540123","0.0-11.5-0.5-0.5","663a77b9f973602bcedaf526","6796e1c0ff24ca17c453c51c","67c71dfd3fc2aa50703c8644","passed","[{""page_index"":0,""viewing_time"":915},{""page_index"":1,""viewing_time"":666},{""page_index"":2,""viewing_time"":1434},{""page_index"":3,""viewing_time"":682}]","3697","","","","","","","","","","","","","","","","","","","","","","","","","","","",""
"","","","","","html-keyboard-response","102","542401","0.0-11.5-0.5-1.5","663a77b9f973602bcedaf526","6796e1c0ff24ca17c453c51c","67c71dfd3fc2aa50703c8644","passed","","1773","","","","","","","","","","","","","<br>Remember! After a ball falls, the screen will disappear, and you'll decide if the proposed position is where the hidden triangle was. <br>You will now practice this by watching a few videos and making decisions.<p>To respond:<br style=""margin-bottom: 5px; text-indent: -20px; padding-left: 20px;"">- Press <b style=""color: #12AD2B;"">J for Yes</b>, if you think the triangle is in the correct position.<br style=""margin-top: 0; text-indent: -20px; padding-left: 20px;"">- Press <b style=""color: orange;"">F for No</b>, if you think the triangle is not in the correct position.</p><p>In this practice round, there is no time limit. Focus on getting comfortable with the task first.<br>Press either J or F to begin your practice trials.</p><img src = ""YesOrNo_instruction.png"" style=""width: 65%;""></img>","j","","","","","","","","","","","","","",""
"","","","","","html-keyboard-response","103","544494","0.0-11.5-0.5-2.5-0.15","663a77b9f973602bcedaf526","6796e1c0ff24ca17c453c51c","67c71dfd3fc2aa50703c8644","passed","","","","","","","","","","","","","","","","","ballFalling_prac","660","666","350","3","fallScene","false","","","","","","",""
"","","","","","html-keyboard-response","104","545835","0.0-11.5-0.5-2.5-1.15","663a77b9f973602bcedaf526","6796e1c0ff24ca17c453c51c","67c71dfd3fc2aa50703c8644","passed","","1338","","","","","","","","","","","","","","f","yesOrNo_prac_noTimed","","","","3","","","wrong direction","NA","","","","",""
"","","","","","html-keyboard-response","105","547411","0.0-11.5-0.5-2.5-0.16","663a77b9f973602bcedaf526","6796e1c0ff24ca17c453c51c","67c71dfd3fc2aa50703c8644","passed","","","","","","","","","","","","","","","","","ballFalling_prac","441","414","302","5","fallScene","true","","","","","","",""
"","","","","","html-keyboard-response","106","548191","0.0-11.5-0.5-2.5-1.16","663a77b9f973602bcedaf526","6796e1c0ff24ca17c453c51c","67c71dfd3fc2aa50703c8644","passed","","777","","","","","","","","","","","","","","j","yesOrNo_prac_noTimed","","","","5","","","close gt","NA","","","","",""
"","","","","","html-keyboard-response","107","549745","0.0-11.5-0.5-2.5-0.17","663a77b9f973602bcedaf526","6796e1c0ff24ca17c453c51c","67c71dfd3fc2aa50703c8644","passed","","","","","","","","","","","","","","","","","ballFalling_prac","416","464","296","1","fallScene","false","","","","","","",""
"","","","","","html-keyboard-response","108","550512","0.0-11.5-0.5-2.5-1.17","663a77b9f973602bcedaf526","6796e1c0ff24ca17c453c51c","67c71dfd3fc2aa50703c8644","passed","","765","","","","","","","","","","","","","","j","yesOrNo_prac_noTimed","","","","1","","","gt","NA","","","","",""
"","","","","","instructions","109","553007","0.0-11.5-0.5-3.5","663a77b9f973602bcedaf526","6796e1c0ff24ca17c453c51c","67c71dfd3fc2aa50703c8644","passed","[{""page_index"":0,""viewing_time"":1260},{""page_index"":1,""viewing_time"":1233}]","2493","","","","","","","","","","","","","","","","","","","","","","","","","","","",""
"","","","","","html-button-response","110","554543","0.0-11.5-0.5-4.5","663a77b9f973602bcedaf526","6796e1c0ff24ca17c453c51c","67c71dfd3fc2aa50703c8644","passed","","1032","","","","","","","","","","","","","<p>To make sure you understood the task, we just have a <b>brief quiz</b> here.</p><p>If you need to review the instructions, click 'Previous'.</p><p>It's important to understand the task to do the study, so you have to pass the quiz to move to the study.</p>","1","","","","","","","","","","","","","",""
"","","","","","survey-multi-choice","111","557710","0.0-11.5-1.5-0.5","663a77b9f973602bcedaf526","6796e1c0ff24ca17c453c51c","67c71dfd3fc2aa50703c8644","passed","","3165","","","","","","","","","","","","","","{""generalProcedure"":""Watch a video of a ball falling, some of it behind a gray screen. After each video, decide if the triangle is at the spot where the ball hit the triangle behind the screen. There is time limit for the response.""}","","","","","","","","","","[0]","","","",""
"","","","","","survey-multi-choice","112","560040","0.0-11.5-1.5-1.5","663a77b9f973602bcedaf526","6796e1c0ff24ca17c453c51c","67c71dfd3fc2aa50703c8644","passed","","2328","","","","","","","","","","","","","","{""checkBallHitObstacle"":""Yes.""}","","","","","","","","","","[0]","","","",""
"","","","","","survey-multi-choice","113","562123","0.0-11.5-1.5-2.5","663a77b9f973602bcedaf526","6796e1c0ff24ca17c453c51c","67c71dfd3fc2aa50703c8644","passed","","2083","","","","","","","","","","","","","","{""checkTriangleVisibility"":""No, the triangle is hidden behind the gray screen.""}","","","","","","","","","","[0]","","","",""
"","","","","","survey-multi-choice","114","564474","0.0-11.5-1.5-3.5","663a77b9f973602bcedaf526","6796e1c0ff24ca17c453c51c","67c71dfd3fc2aa50703c8644","passed","","2351","","","","","","","","","","","","","","{""checkTimedResponse"":""The trial will wait for your response.""}","","","","","","","","","","[0]","","","",""
"","","","","","survey-multi-choice","115","565959","0.0-11.5-1.5-4.5","663a77b9f973602bcedaf526","6796e1c0ff24ca17c453c51c","67c71dfd3fc2aa50703c8644","passed","","1483","","","","","","","","","","","","","","{""checkTimeBlockNotice"":""At the beginning of each block.""}","","","","","","","","","","[0]","","","",""
"","","","","","survey-multi-choice","116","567723","0.0-11.5-1.5-5.5","663a77b9f973602bcedaf526","6796e1c0ff24ca17c453c51c","67c71dfd3fc2aa50703c8644","passed","","1762","","","","","","","","","","","","","","{""checkTimeBlockSameness"":""Yes, the time limit is the same for all trials within a block.""}","","","","","","","","","","[0]","","","",""
"","","","","","survey-multi-choice","117","594475","0.0-11.5-1.5-6.5","663a77b9f973602bcedaf526","6796e1c0ff24ca17c453c51c","67c71dfd3fc2aa50703c8644","passed","","26752","","","","","","","","","","","","","","{""checkTrianglePrecision"":""No. The proposed purple triangle is not in the correct position because it doesn't match the location of the white triangle exactly.""}","","","","","","","","","","[0]","","","",""
"","","","","","html-button-response","118","644108","0.0-11.5-2.5-0.5","663a77b9f973602bcedaf526","6796e1c0ff24ca17c453c51c","67c71dfd3fc2aa50703c8644","passed","","49630","","","","","","","","","","","","","<p>Oops! You did not pass the quiz.</p><p>You will now repeat the instructions and practice.</p>","0","","","","","","","","","","","failed","","",""
"","","","","","instructions","119","648373","0.0-11.6-0.6-0.6","663a77b9f973602bcedaf526","6796e1c0ff24ca17c453c51c","67c71dfd3fc2aa50703c8644","passed","[{""page_index"":0,""viewing_time"":1164},{""page_index"":1,""viewing_time"":882},{""page_index"":2,""viewing_time"":951},{""page_index"":3,""viewing_time"":1267}]","4265","","","","","","","","","","","","","","","","","","","","","","","","","","","",""
"","","","","","html-keyboard-response","120","650866","0.0-11.6-0.6-1.6","663a77b9f973602bcedaf526","6796e1c0ff24ca17c453c51c","67c71dfd3fc2aa50703c8644","passed","","1989","","","","","","","","","","","","","<br>Remember! After a ball falls, the screen will disappear, and you'll decide if the proposed position is where the hidden triangle was. <br>You will now practice this by watching a few videos and making decisions.<p>To respond:<br style=""margin-bottom: 5px; text-indent: -20px; padding-left: 20px;"">- Press <b style=""color: #12AD2B;"">J for Yes</b>, if you think the triangle is in the correct position.<br style=""margin-top: 0; text-indent: -20px; padding-left: 20px;"">- Press <b style=""color: orange;"">F for No</b>, if you think the triangle is not in the correct position.</p><p>In this practice round, there is no time limit. Focus on getting comfortable with the task first.<br>Press either J or F to begin your practice trials.</p><img src = ""YesOrNo_instruction.png"" style=""width: 65%;""></img>","j","","","","","","","","","","","","","",""
"","","","","","html-keyboard-response","121","652960","0.0-11.6-0.6-2.6-0.18","663a77b9f973602bcedaf526","6796e1c0ff24ca17c453c51c","67c71dfd3fc2aa50703c8644","passed","","","","","","","","","","","","","","","","","ballFalling_prac","660","666","350","3","fallScene","false","","","","","","",""
"","","","","","html-keyboard-response","122","654334","0.0-11.6-0.6-2.6-1.18","663a77b9f973602bcedaf526","6796e1c0ff24ca17c453c51c","67c71dfd3fc2aa50703c8644","passed","","1372","","","","","","","","","","","","","","f","yesOrNo_prac_noTimed","","","","3","","","wrong direction","NA","","","","",""
"","","","","","html-keyboard-response","123","655894","0.0-11.6-0.6-2.6-0.19","663a77b9f973602bcedaf526","6796e1c0ff24ca17c453c51c","67c71dfd3fc2aa50703c8644","passed","","","","","","","","","","","","","","","","","ballFalling_prac","416","464","296","1","fallScene","false","","","","","","",""
"","","","","","html-keyboard-response","124","656365","0.0-11.6-0.6-2.6-1.19","663a77b9f973602bcedaf526","6796e1c0ff24ca17c453c51c","67c71dfd3fc2aa50703c8644","passed","","469","","","","","","","","","","","","","","j","yesOrNo_prac_noTimed","","","","1","","","gt","NA","","","","",""
"","","","","","html-keyboard-response","125","657944","0.0-11.6-0.6-2.6-0.20","663a77b9f973602bcedaf526","6796e1c0ff24ca17c453c51c","67c71dfd3fc2aa50703c8644","passed","","","","","","","","","","","","","","","","","ballFalling_prac","441","414","302","5","fallScene","true","","","","","","",""
"","","","","","html-keyboard-response","126","658939","0.0-11.6-0.6-2.6-1.20","663a77b9f973602bcedaf526","6796e1c0ff24ca17c453c51c","67c71dfd3fc2aa50703c8644","passed","","993","","","","","","","","","","","","","","j","yesOrNo_prac_noTimed","","","","5","","","close gt","NA","","","","",""
"","","","","","instructions","127","666540","0.0-11.6-0.6-3.6","663a77b9f973602bcedaf526","6796e1c0ff24ca17c453c51c","67c71dfd3fc2aa50703c8644","passed","[{""page_index"":0,""viewing_time"":4432},{""page_index"":1,""viewing_time"":3167}]","7599","","","","","","","","","","","","","","","","","","","","","","","","","","","",""
"","","","","","html-button-response","128","668774","0.0-11.6-0.6-4.6","663a77b9f973602bcedaf526","6796e1c0ff24ca17c453c51c","67c71dfd3fc2aa50703c8644","passed","","1732","","","","","","","","","","","","","<p>To make sure you understood the task, we just have a <b>brief quiz</b> here.</p><p>If you need to review the instructions, click 'Previous'.</p><p>It's important to understand the task to do the study, so you have to pass the quiz to move to the study.</p>","1","","","","","","","","","","","","","",""
"","","","","","survey-multi-choice","129","674122","0.0-11.6-1.6-0.6","663a77b9f973602bcedaf526","6796e1c0ff24ca17c453c51c","67c71dfd3fc2aa50703c8644","passed","","5345","","","","","","","","","","","","","","{""generalProcedure"":""Watch a video of a ball falling, some of it behind a gray screen. After each video, decide if the triangle is at the spot where the ball hit the triangle behind the screen. There is time limit for the response.""}","","","","","","","","","","[0]","","","",""
"","","","","","survey-multi-choice","130","679307","0.0-11.6-1.6-1.6","663a77b9f973602bcedaf526","6796e1c0ff24ca17c453c51c","67c71dfd3fc2aa50703c8644","passed","","5184","","","","","","","","","","","","","","{""checkBallHitObstacle"":""Yes.""}","","","","","","","","","","[0]","","","",""
"","","","","","survey-multi-choice","131","681659","0.0-11.6-1.6-2.6","663a77b9f973602bcedaf526","6796e1c0ff24ca17c453c51c","67c71dfd3fc2aa50703c8644","passed","","2351","","","","","","","","","","","","","","{""checkTriangleVisibility"":""No, the triangle is hidden behind the gray screen.""}","","","","","","","","","","[0]","","","",""
"","","","","","survey-multi-choice","132","684724","0.0-11.6-1.6-3.6","663a77b9f973602bcedaf526","6796e1c0ff24ca17c453c51c","67c71dfd3fc2aa50703c8644","passed","","3064","","","","","","","","","","","","","","{""checkTimedResponse"":""Your response will not be recorded, and the trial will move to the next one.""}","","","","","","","","","","[0]","","","",""
"","","","","","survey-multi-choice","133","688173","0.0-11.6-1.6-4.6","663a77b9f973602bcedaf526","6796e1c0ff24ca17c453c51c","67c71dfd3fc2aa50703c8644","passed","","3447","","","","","","","","","","","","","","{""checkTimeBlockNotice"":""At the beginning of each block.""}","","","","","","","","","","[0]","","","",""
"","","","","","survey-multi-choice","134","697558","0.0-11.6-1.6-5.6","663a77b9f973602bcedaf526","6796e1c0ff24ca17c453c51c","67c71dfd3fc2aa50703c8644","passed","","9384","","","","","","","","","","","","","","{""checkTimeBlockSameness"":""Yes, the time limit is the same for all trials within a block.""}","","","","","","","","","","[0]","","","",""
"","","","","","survey-multi-choice","135","701491","0.0-11.6-1.6-6.6","663a77b9f973602bcedaf526","6796e1c0ff24ca17c453c51c","67c71dfd3fc2aa50703c8644","passed","","3931","","","","","","","","","","","","","","{""checkTrianglePrecision"":""No. The proposed purple triangle is not in the correct position because it doesn't match the location of the white triangle exactly.""}","","","","","","","","","","[0]","","","",""
"","","","","","instructions","136","723372","0.0-12.0","663a77b9f973602bcedaf526","6796e1c0ff24ca17c453c51c","67c71dfd3fc2aa50703c8644","passed","[{""page_index"":0,""viewing_time"":3029},{""page_index"":1,""viewing_time"":9418},{""page_index"":2,""viewing_time"":4817},{""page_index"":3,""viewing_time"":4616}]","21881","","","","","","","","","","","","","","","","","","","","","","","","","","","",""
"","","","","","instructions","137","726776","0.0-13.0-0.0","663a77b9f973602bcedaf526","6796e1c0ff24ca17c453c51c","67c71dfd3fc2aa50703c8644","passed","[{""page_index"":0,""viewing_time"":3403}]","3403","","","","","","","","","","","","","","","","","","","","","","","","","","","",""
"","","","","","html-keyboard-response","138","729393","0.0-13.0-1.0","663a77b9f973602bcedaf526","6796e1c0ff24ca17c453c51c","67c71dfd3fc2aa50703c8644","passed","","2616","","","","","","","","","","","","","<p><span style=""font-size:40px;"">Practice BLOCK 1</span></p><p><span style=""font-size:25px;"">You have <b style=""color: #FF644F;""><strong>3 second(s)</strong></b> to respond to the following trials.</span><br></p><p id=""blinking-text"" style=""font-weight; animation: blink 2s infinite;"">Press Space to continue</p><style>
                    @keyframes blink {
                        50% {
                            opacity: 0;
                        }
                    }
                </style>"," ","","","","","","","","","","","","","",""
"","","","","","html-keyboard-response","139","730960","0.0-13.0-2.0-0.0","663a77b9f973602bcedaf526","6796e1c0ff24ca17c453c51c","67c71dfd3fc2aa50703c8644","passed","","","","","","","","","","","","","","","","","ballFalling_prac","416","464","296","1","fallScene","false","","","","","","",""
"","","","","","html-keyboard-response","140","733964","0.0-13.0-2.0-1.0","663a77b9f973602bcedaf526","6796e1c0ff24ca17c453c51c","67c71dfd3fc2aa50703c8644","passed","","853","","","","","","","","","","","","","","j","yesOrNo_prac","","","","1","","","far gt","3000","","","","",""
"","","","","","html-keyboard-response","141","735543","0.0-13.0-2.0-0.1","663a77b9f973602bcedaf526","6796e1c0ff24ca17c453c51c","67c71dfd3fc2aa50703c8644","passed","","","","","","","","","","","","","","","","","ballFalling_prac","660","610","263","4","fallScene","false","","","","","","",""
"","","","","","html-keyboard-response","142","738547","0.0-13.0-2.0-1.1","663a77b9f973602bcedaf526","6796e1c0ff24ca17c453c51c","67c71dfd3fc2aa50703c8644","passed","","785","","","","","","","","","","","","","","j","yesOrNo_prac","","","","4","","","gt","3000","","","","",""
"","","","","","html-keyboard-response","143","740110","0.0-13.0-2.0-0.2","663a77b9f973602bcedaf526","6796e1c0ff24ca17c453c51c","67c71dfd3fc2aa50703c8644","passed","","","","","","","","","","","","","","","","","ballFalling_prac","584","536","296","1","fallScene","true","","","","","","",""
"","","","","","html-keyboard-response","144","743111","0.0-13.0-2.0-1.2","663a77b9f973602bcedaf526","6796e1c0ff24ca17c453c51c","67c71dfd3fc2aa50703c8644","passed","","917","","","","","","","","","","","","","","j","yesOrNo_prac","","","","1","","","close gt","3000","","","","",""
"","","","","","html-keyboard-response","145","745197","0.0-13.0-3.0","663a77b9f973602bcedaf526","6796e1c0ff24ca17c453c51c","67c71dfd3fc2aa50703c8644","passed","","2086","","","","","","","","","","","","","<p><span style=""font-size:40px;"">Practice BLOCK 2</span></p><p><span style=""font-size:25px;"">You have <b style=""color: #FF644F;""><strong>0.7 second(s)</strong></b> to respond to the following trials.</span><br></p><p id=""blinking-text"" style=""font-weight; animation: blink 2s infinite;"">Press Space to continue</p><style>
                    @keyframes blink {
                        50% {
                            opacity: 0;
                        }
                    }
                </style>"," ","","","","","","","","","","","","","",""
"","","","","","html-keyboard-response","146","746759","0.0-13.0-4.0-0.0","663a77b9f973602bcedaf526","6796e1c0ff24ca17c453c51c","67c71dfd3fc2aa50703c8644","passed","","","","","","","","","","","","","","","","","ballFalling_prac","441","500","317","6","fallScene","true","","","","","","",""
"","","","","","html-keyboard-response","147","747463","0.0-13.0-4.0-1.0","663a77b9f973602bcedaf526","6796e1c0ff24ca17c453c51c","67c71dfd3fc2aa50703c8644","passed","","593","","","","","","","","","","","","","","j","yesOrNo_prac","","","","6","","","gt","700","","","","",""
"","","","","","html-keyboard-response","148","749042","0.0-13.0-4.0-0.1","663a77b9f973602bcedaf526","6796e1c0ff24ca17c453c51c","67c71dfd3fc2aa50703c8644","passed","","","","","","","","","","","","","","","","","ballFalling_prac","660","610","263","4","fallScene","false","","","","","","",""
"","","","","","html-keyboard-response","149","749743","0.0-13.0-4.0-1.1","663a77b9f973602bcedaf526","6796e1c0ff24ca17c453c51c","67c71dfd3fc2aa50703c8644","passed","","432","","","","","","","","","","","","","","j","yesOrNo_prac","","","","4","","","far gt","700","","","","",""
"","","","","","html-keyboard-response","150","751859","0.0-13.0-4.0-0.2","663a77b9f973602bcedaf526","6796e1c0ff24ca17c453c51c","67c71dfd3fc2aa50703c8644","passed","","","","","","","","","","","","","","","","","ballFalling_prac","340","334","350","3","fallScene","true","","","","","","",""
"","","","","","html-keyboard-response","151","752562","0.0-13.0-4.0-1.2","663a77b9f973602bcedaf526","6796e1c0ff24ca17c453c51c","67c71dfd3fc2aa50703c8644","passed","","551","","","","","","","","","","","","","","j","yesOrNo_prac","","","","3","","","close gt","700","","","","",""
"","","","","","instructions","152","755223","0.0-13.0-5.0","663a77b9f973602bcedaf526","6796e1c0ff24ca17c453c51c","67c71dfd3fc2aa50703c8644","passed","[{""page_index"":0,""viewing_time"":2654}]","2654","","","","","","","","","","","","","","","","","","","","","","","","","","","",""
"","","","","","html-keyboard-response","153","757206","0.0-13.0-6.0","663a77b9f973602bcedaf526","6796e1c0ff24ca17c453c51c","67c71dfd3fc2aa50703c8644","passed","","1982","","","","","","","","","","","","","<p><span style=""font-size:40px;"">Practice Test BLOCK 1</span></p><p><span style=""font-size:25px;"">You have <b style=""color: #FF644F;""><strong>0.7 second(s)</strong></b> to respond to the following trials.</span><br></p><p id=""blinking-text"" style=""font-weight; animation: blink 2s infinite;"">Press Space to continue</p><style>
                    @keyframes blink {
                        50% {
                            opacity: 0;
                        }
                    }
                </style>"," ","","","","","","","","","","","","","",""
"","","","","","html-keyboard-response","154","758776","0.0-13.0-7.0-0.0","663a77b9f973602bcedaf526","6796e1c0ff24ca17c453c51c","67c71dfd3fc2aa50703c8644","passed","","","","","","","","","","","","","","","","","ballFalling_prac","559","586","302","5","fallScene","false","","","","","","",""
"","","","","","html-keyboard-response","155","759480","0.0-13.0-7.0-1.0","663a77b9f973602bcedaf526","6796e1c0ff24ca17c453c51c","67c71dfd3fc2aa50703c8644","passed","","567","","","","","","","","","","","","","","j","yesOrNo_prac","","","","5","","","gt","700","","","","",""
"","","","","","html-keyboard-response","156","761043","0.0-13.0-7.0-0.1","663a77b9f973602bcedaf526","6796e1c0ff24ca17c453c51c","67c71dfd3fc2aa50703c8644","passed","","","","","","","","","","","","","","","","","ballFalling_prac","441","500","317","6","fallScene","true","","","","","","",""
"","","","","","html-keyboard-response","157","761745","0.0-13.0-7.0-1.1","663a77b9f973602bcedaf526","6796e1c0ff24ca17c453c51c","67c71dfd3fc2aa50703c8644","passed","","482","","","","","","","","","","","","","","j","yesOrNo_prac","","","","6","","","close gt","700","","","","",""
"","","","","","html-keyboard-response","158","763326","0.0-13.0-7.0-0.2","663a77b9f973602bcedaf526","6796e1c0ff24ca17c453c51c","67c71dfd3fc2aa50703c8644","passed","","","","","","","","","","","","","","","","","ballFalling_prac","340","390","263","4","fallScene","true","","","","","","",""
"","","","","","html-keyboard-response","159","764029","0.0-13.0-7.0-1.2","663a77b9f973602bcedaf526","6796e1c0ff24ca17c453c51c","67c71dfd3fc2aa50703c8644","passed","","null","","","","","","","","","","","","","","null","yesOrNo_prac","","","","4","","","far gt","700","","","","",""
"","","","","","html-keyboard-response","160","766158","0.0-13.0-8.0","663a77b9f973602bcedaf526","6796e1c0ff24ca17c453c51c","67c71dfd3fc2aa50703c8644","passed","","2129","","","","","","","","","","","","","<p><span style=""font-size:40px;"">Practice Test BLOCK 2</span></p><p><span style=""font-size:25px;"">You have <b style=""color: #FF644F;""><strong>3 second(s)</strong></b> to respond to the following trials.</span><br></p><p id=""blinking-text"" style=""font-weight; animation: blink 2s infinite;"">Press Space to continue</p><style>
                    @keyframes blink {
                        50% {
                            opacity: 0;
                        }
                    }
                </style>"," ","","","","","","","","","","","","","",""
"","","","","","html-keyboard-response","161","767726","0.0-13.0-9.0-0.0","663a77b9f973602bcedaf526","6796e1c0ff24ca17c453c51c","67c71dfd3fc2aa50703c8644","passed","","","","","","","","","","","","","","","","","ballFalling_prac","416","365","249","2","fallScene","false","","","","","","",""
"","","","","","html-keyboard-response","162","770730","0.0-13.0-9.0-1.0","663a77b9f973602bcedaf526","6796e1c0ff24ca17c453c51c","67c71dfd3fc2aa50703c8644","passed","","576","","","","","","","","","","","","","","j","yesOrNo_prac","","","","2","","","gt","3000","","","","",""
"","","","","","html-keyboard-response","163","772310","0.0-13.0-9.0-0.1","663a77b9f973602bcedaf526","6796e1c0ff24ca17c453c51c","67c71dfd3fc2aa50703c8644","passed","","","","","","","","","","","","","","","","","ballFalling_prac","559","586","302","5","fallScene","false","","","","","","",""
"","","","","","html-keyboard-response","164","775312","0.0-13.0-9.0-1.1","663a77b9f973602bcedaf526","6796e1c0ff24ca17c453c51c","67c71dfd3fc2aa50703c8644","passed","","1214","","","","","","","","","","","","","","j","yesOrNo_prac","","","","5","","","far gt","3000","","","","",""
"","","","","","html-keyboard-response","165","776893","0.0-13.0-9.0-0.2","663a77b9f973602bcedaf526","6796e1c0ff24ca17c453c51c","67c71dfd3fc2aa50703c8644","passed","","","","","","","","","","","","","","","","","ballFalling_prac","340","390","263","4","fallScene","true","","","","","","",""
"","","","","","html-keyboard-response","166","779896","0.0-13.0-9.0-1.2","663a77b9f973602bcedaf526","6796e1c0ff24ca17c453c51c","67c71dfd3fc2aa50703c8644","passed","","652","","","","","","","","","","","","","","j","yesOrNo_prac","","","","4","","","close gt","3000","","","","",""
"","","","","","instructions","167","805639","0.0-14.0","663a77b9f973602bcedaf526","6796e1c0ff24ca17c453c51c","67c71dfd3fc2aa50703c8644","passed","[{""page_index"":0,""viewing_time"":25740}]","25741","","","","","","","","","","","","","","","","","","","","","","","","","","","",""
"","","","","","html-keyboard-response","168","807313","0.0-15.0","663a77b9f973602bcedaf526","6796e1c0ff24ca17c453c51c","67c71dfd3fc2aa50703c8644","passed","","1672","","","","","","","","","","","","","<p><span style=""font-size:40px;"">BLOCK 1</span></p><p><span style=""font-size:25px;"">You have <b style=""color: #FF644F;""><strong>3 second(s)</strong></b> to respond to the following trials.</span><br></p><p></p> <!-- Blank line -->
                <p id=""blinking-text"" style=""font-weight; animation: blink 2s infinite;"">Press Space to continue</p>
                <style>
                    @keyframes blink {
                        50% {
                            opacity: 0;
                        }
                    }
                </style></p>"," ","","","","","","","","","","","","","",""
"","","","","","html-keyboard-response","169","808875","0.0-16.0-0.0","663a77b9f973602bcedaf526","6796e1c0ff24ca17c453c51c","67c71dfd3fc2aa50703c8644","passed","","","","","","","","","","","","","","","","","ballFalling","604.4000000000001","575.4211431702997","266.76","12","fallScene","true","","","","","1","",""
"","","","","","html-keyboard-response","170","811877","0.0-16.0-1.0","663a77b9f973602bcedaf526","6796e1c0ff24ca17c453c51c","67c71dfd3fc2aa50703c8644","passed","","530","","","","","","","","","","","","","","j","yesOrNo","","","","12","","","gt","3000","","","1","575.4211431702997","266.76"
"","","","","","html-keyboard-response","171","813893","0.0-16.0-0.1","663a77b9f973602bcedaf526","6796e1c0ff24ca17c453c51c","67c71dfd3fc2aa50703c8644","passed","","","","","","","","","","","","","","","","","ballFalling","500","510.8711431702997","369.03","8","fallScene","false","","","","","2","",""
"","","","","","html-keyboard-response","172","816896","0.0-16.0-1.1","663a77b9f973602bcedaf526","6796e1c0ff24ca17c453c51c","67c71dfd3fc2aa50703c8644","passed","","1198","","","","","","","","","","","","","","j","yesOrNo","","","","8","","","lp","3000","","","2","501","151"
"","","","","","html-keyboard-response","173","818458","0.0-16.0-0.2","663a77b9f973602bcedaf526","6796e1c0ff24ca17c453c51c","67c71dfd3fc2aa50703c8644","passed","","","","","","","","","","","","","","","","","ballFalling","604.4000000000001","575.4211431702997","266.76","12","fallScene","true","","","","","3","",""
"","","","","","html-keyboard-response","174","821463","0.0-16.0-1.2","663a77b9f973602bcedaf526","6796e1c0ff24ca17c453c51c","67c71dfd3fc2aa50703c8644","passed","","1064","","","","","","","","","","","","","","j","yesOrNo","","","","12","","","lp","3000","","","3","603.4000000000001","151"
"","","","","","html-keyboard-response","175","823025","0.0-16.0-0.3","663a77b9f973602bcedaf526","6796e1c0ff24ca17c453c51c","67c71dfd3fc2aa50703c8644","passed","","","","","","","","","","","","","","","","","ballFalling","322.3","379.3711431702997","245.25","1","fallScene","true","","","","","4","",""
"","","","","","html-keyboard-response","176","826028","0.0-16.0-1.3","663a77b9f973602bcedaf526","6796e1c0ff24ca17c453c51c","67c71dfd3fc2aa50703c8644","passed","","717","","","","","","","","","","","","","","j","yesOrNo","","","","1","","","gt","3000","","","4","379.3711431702997","245.25"
"","","","","","html-keyboard-response","177","828042","0.0-16.0-0.4","663a77b9f973602bcedaf526","6796e1c0ff24ca17c453c51c","67c71dfd3fc2aa50703c8644","passed","","","","","","","","","","","","","","","","","ballFalling","500","510.8711431702997","369.03","8","fallScene","false","","","","","5","",""
"","","","","","html-keyboard-response","178","831043","0.0-16.0-1.4","663a77b9f973602bcedaf526","6796e1c0ff24ca17c453c51c","67c71dfd3fc2aa50703c8644","passed","","583","","","","","","","","","","","","","","j","yesOrNo","","","","8","","","gt","3000","","","5","510.8711431702997","369.03"
"","","","","","html-keyboard-response","179","833059","0.0-16.0-0.5","663a77b9f973602bcedaf526","6796e1c0ff24ca17c453c51c","67c71dfd3fc2aa50703c8644","passed","","","","","","","","","","","","","","","","","ballFalling","500","510.8711431702997","369.03","8","fallScene","false","","","","","6","",""
"","","","","","html-keyboard-response","180","836062","0.0-16.0-1.5","663a77b9f973602bcedaf526","6796e1c0ff24ca17c453c51c","67c71dfd3fc2aa50703c8644","passed","","536","","","","","","","","","","","","","","j","yesOrNo","","","","8","","","mid","3000","","","6","501","300"
"","","","","","html-keyboard-response","181","837625","0.0-16.0-0.6","663a77b9f973602bcedaf526","6796e1c0ff24ca17c453c51c","67c71dfd3fc2aa50703c8644","passed","","","","","","","","","","","","","","","","","ballFalling","322.3","379.3711431702997","245.25","1","fallScene","true","","","","","7","",""
"","","","","","html-keyboard-response","182","840628","0.0-16.0-1.6","663a77b9f973602bcedaf526","6796e1c0ff24ca17c453c51c","67c71dfd3fc2aa50703c8644","passed","","766","","","","","","","","","","","","","","j","yesOrNo","","","","1","","","lp","3000","","","7","323.3","217.74551669457017"
"","","","","","html-keyboard-response","183","842641","0.0-16.0-0.7","663a77b9f973602bcedaf526","6796e1c0ff24ca17c453c51c","67c71dfd3fc2aa50703c8644","passed","","","","","","","","","","","","","","","","","ballFalling","500","510.8711431702997","369.03","8","fallScene","false","","","","","8","",""
"","","","","","html-keyboard-response","184","845645","0.0-16.0-1.7","663a77b9f973602bcedaf526","6796e1c0ff24ca17c453c51c","67c71dfd3fc2aa50703c8644","passed","","501","","","","","","","","","","","","","","j","yesOrNo","","","","8","","","mid","3000","","","8","501","300"
"","","","","","html-keyboard-response","185","847209","0.0-16.0-0.8","663a77b9f973602bcedaf526","6796e1c0ff24ca17c453c51c","67c71dfd3fc2aa50703c8644","passed","","","","","","","","","","","","","","","","","ballFalling","322.3","296.07114317029976","371.46","3","fallScene","true","","","","","9","",""
"","","","","","html-keyboard-response","186","850213","0.0-16.0-1.8","663a77b9f973602bcedaf526","6796e1c0ff24ca17c453c51c","67c71dfd3fc2aa50703c8644","passed","","861","","","","","","","","","","","","","","j","yesOrNo","","","","3","","","lp","3000","","","9","321.3","287.3327096511259"
"","","","","","html-keyboard-response","187","851876","0.0-16.0-0.9","663a77b9f973602bcedaf526","6796e1c0ff24ca17c453c51c","67c71dfd3fc2aa50703c8644","passed","","","","","","","","","","","","","","","","","ballFalling","500","479.92114317029973","330.87","6","fallScene","true","","","","","10","",""
"","","","","","html-keyboard-response","188","854878","0.0-16.0-1.9","663a77b9f973602bcedaf526","6796e1c0ff24ca17c453c51c","67c71dfd3fc2aa50703c8644","passed","","770","","","","","","","","","","","","","","j","yesOrNo","","","","6","","","mid","3000","","","10","499","300"
"","","","","","html-keyboard-response","189","856441","0.0-16.0-0.10","663a77b9f973602bcedaf526","6796e1c0ff24ca17c453c51c","67c71dfd3fc2aa50703c8644","passed","","","","","","","","","","","","","","","","","ballFalling","322.3","379.3711431702997","245.25","1","fallScene","true","","","","","11","",""
"","","","","","html-keyboard-response","190","859444","0.0-16.0-1.10","663a77b9f973602bcedaf526","6796e1c0ff24ca17c453c51c","67c71dfd3fc2aa50703c8644","passed","","972","","","","","","","","","","","","","","f","yesOrNo","","","","1","","","mid","3000","","","11","390.27114317029975","300"
"","","","","","html-keyboard-response","191","861008","0.0-16.0-0.11","663a77b9f973602bcedaf526","6796e1c0ff24ca17c453c51c","67c71dfd3fc2aa50703c8644","passed","","","","","","","","","","","","","","","","","ballFalling","604.4000000000001","575.4211431702997","266.76","12","fallScene","false","","","","","12","",""
"","","","","","html-keyboard-response","192","864012","0.0-16.0-1.11","663a77b9f973602bcedaf526","6796e1c0ff24ca17c453c51c","67c71dfd3fc2aa50703c8644","passed","","1045","","","","","","","","","","","","","","f","yesOrNo","","","","12","","","mid","3000","","","12","536.4288568297004","300"
"","","","","","html-keyboard-response","193","865509","0.0-16.0-0.12","663a77b9f973602bcedaf526","6796e1c0ff24ca17c453c51c","67c71dfd3fc2aa50703c8644","passed","","","","","","","","","","","","","","","","","ballFalling","604.4000000000001","667.6211431702998","201.78","9","fallScene","true","","","","","13","",""
"","","","","","html-keyboard-response","194","868512","0.0-16.0-1.12","663a77b9f973602bcedaf526","6796e1c0ff24ca17c453c51c","67c71dfd3fc2aa50703c8644","passed","","1230","","","","","","","","","","","","","","f","yesOrNo","","","","9","","","lp","3000","","","13","605.4000000000001","151"
"","","","","","html-keyboard-response","195","870008","0.0-16.0-0.13","663a77b9f973602bcedaf526","6796e1c0ff24ca17c453c51c","67c71dfd3fc2aa50703c8644","passed","","","","","","","","","","","","","","","","","ballFalling","604.4000000000001","667.6211431702998","201.78","9","fallScene","true","","","","","14","",""
"","","","","","html-keyboard-response","196","873009","0.0-16.0-1.13","663a77b9f973602bcedaf526","6796e1c0ff24ca17c453c51c","67c71dfd3fc2aa50703c8644","passed","","1103","","","","","","","","","","","","","","j","yesOrNo","","","","9","","","gt","3000","","","14","667.6211431702998","201.78"
"","","","","","html-keyboard-response","197","874508","0.0-16.0-0.14","663a77b9f973602bcedaf526","6796e1c0ff24ca17c453c51c","67c71dfd3fc2aa50703c8644","passed","","","","","","","","","","","","","","","","","ballFalling","604.4000000000001","667.6211431702998","201.78","9","fallScene","false","","","","","15","",""
"","","","","","html-keyboard-response","198","877512","0.0-16.0-1.14","663a77b9f973602bcedaf526","6796e1c0ff24ca17c453c51c","67c71dfd3fc2aa50703c8644","passed","","922","","","","","","","","","","","","","","j","yesOrNo","","","","9","","","mid","3000","","","15","605.4000000000001","300"
"","","","","","html-keyboard-response","199","879525","0.0-16.0-0.15","663a77b9f973602bcedaf526","6796e1c0ff24ca17c453c51c","67c71dfd3fc2aa50703c8644","passed","","","","","","","","","","","","","","","","","ballFalling","604.4000000000001","596.8711431702998","394.5","10","fallScene","true","","","","","16","",""
"","","","","","html-keyboard-response","200","882529","0.0-16.0-1.15","663a77b9f973602bcedaf526","6796e1c0ff24ca17c453c51c","67c71dfd3fc2aa50703c8644","passed","","1099","","","","","","","","","","","","","","f","yesOrNo","","","","10","","","gt","3000","","","16","596.8711431702998","394.5"
"","","","","","html-keyboard-response","201","884541","0.0-16.0-0.16","663a77b9f973602bcedaf526","6796e1c0ff24ca17c453c51c","67c71dfd3fc2aa50703c8644","passed","","","","","","","","","","","","","","","","","ballFalling","604.4000000000001","596.8711431702998","394.5","10","fallScene","false","","","","","17","",""
"","","","","","html-keyboard-response","202","887543","0.0-16.0-1.16","663a77b9f973602bcedaf526","6796e1c0ff24ca17c453c51c","67c71dfd3fc2aa50703c8644","passed","","948","","","","","","","","","","","","","","j","yesOrNo","","","","10","","","lp","3000","","","17","603.4000000000001","215.50214355555383"
"","","","","","html-keyboard-response","203","889210","0.0-16.0-0.17","663a77b9f973602bcedaf526","6796e1c0ff24ca17c453c51c","67c71dfd3fc2aa50703c8644","passed","","","","","","","","","","","","","","","","","ballFalling","500","479.92114317029973","330.87","6","fallScene","false","","","","","18","",""
"","","","","","html-keyboard-response","204","892211","0.0-16.0-1.17","663a77b9f973602bcedaf526","6796e1c0ff24ca17c453c51c","67c71dfd3fc2aa50703c8644","passed","","802","","","","","","","","","","","","","","j","yesOrNo","","","","6","","","mid","3000","","","18","499","300"
"","","","","","html-keyboard-response","205","893776","0.0-16.0-0.18","663a77b9f973602bcedaf526","6796e1c0ff24ca17c453c51c","67c71dfd3fc2aa50703c8644","passed","","","","","","","","","","","","","","","","","ballFalling","322.3","296.07114317029976","371.46","3","fallScene","false","","","","","19","",""
"","","","","","html-keyboard-response","206","896779","0.0-16.0-1.18","663a77b9f973602bcedaf526","6796e1c0ff24ca17c453c51c","67c71dfd3fc2aa50703c8644","passed","","1016","","","","","","","","","","","","","","j","yesOrNo","","","","3","","","lp","3000","","","19","321.3","287.3327096511259"
"","","","","","html-keyboard-response","207","898342","0.0-16.0-0.19","663a77b9f973602bcedaf526","6796e1c0ff24ca17c453c51c","67c71dfd3fc2aa50703c8644","passed","","","","","","","","","","","","","","","","","ballFalling","322.3","296.07114317029976","371.46","3","fallScene","false","","","","","20","",""
"","","","","","html-keyboard-response","208","901344","0.0-16.0-1.19","663a77b9f973602bcedaf526","6796e1c0ff24ca17c453c51c","67c71dfd3fc2aa50703c8644","passed","","719","","","","","","","","","","","","","","j","yesOrNo","","","","3","","","mid","3000","","","20","321.3","300"
"","","","","","html-keyboard-response","209","902908","0.0-16.0-0.20","663a77b9f973602bcedaf526","6796e1c0ff24ca17c453c51c","67c71dfd3fc2aa50703c8644","passed","","","","","","","","","","","","","","","","","ballFalling","500","453.67114317029973","210.33","5","fallScene","true","","","","","21","",""
"","","","","","html-keyboard-response","210","905912","0.0-16.0-1.20","663a77b9f973602bcedaf526","6796e1c0ff24ca17c453c51c","67c71dfd3fc2aa50703c8644","passed","","866","","","","","","","","","","","","","","j","yesOrNo","","","","5","","","gt","3000","","","21","453.6711431702998","210.33"
"","","","","","html-keyboard-response","211","907474","0.0-16.0-0.21","663a77b9f973602bcedaf526","6796e1c0ff24ca17c453c51c","67c71dfd3fc2aa50703c8644","passed","","","","","","","","","","","","","","","","","ballFalling","604.4000000000001","650.0211431702996","404.58000000000004","11","fallScene","true","","","","","22","",""
"","","","","","html-keyboard-response","212","910475","0.0-16.0-1.21","663a77b9f973602bcedaf526","6796e1c0ff24ca17c453c51c","67c71dfd3fc2aa50703c8644","passed","","553","","","","","","","","","","","","","","j","yesOrNo","","","","11","","","lp","3000","","","22","605.4000000000001","372.6340973215488"
"","","","","","html-keyboard-response","213","912042","0.0-16.0-0.22","663a77b9f973602bcedaf526","6796e1c0ff24ca17c453c51c","67c71dfd3fc2aa50703c8644","passed","","","","","","","","","","","","","","","","","ballFalling","322.3","296.07114317029976","371.46","3","fallScene","true","","","","","23","",""
"","","","","","html-keyboard-response","214","915043","0.0-16.0-1.22","663a77b9f973602bcedaf526","6796e1c0ff24ca17c453c51c","67c71dfd3fc2aa50703c8644","passed","","706","","","","","","","","","","","","","","j","yesOrNo","","","","3","","","gt","3000","","","23","296.07114317029976","371.46"
"","","","","","html-keyboard-response","215","916608","0.0-16.0-0.23","663a77b9f973602bcedaf526","6796e1c0ff24ca17c453c51c","67c71dfd3fc2aa50703c8644","passed","","","","","","","","","","","","","","","","","ballFalling","322.3","356.42114317029973","357.87","4","fallScene","false","","","","","24","",""
"","","","","","html-keyboard-response","216","919611","0.0-16.0-1.23","663a77b9f973602bcedaf526","6796e1c0ff24ca17c453c51c","67c71dfd3fc2aa50703c8644","passed","","1763","","","","","","","","","","","","","","f","yesOrNo","","","","4","","","mid","3000","","","24","390.27114317029975","300"
"","","","","","html-keyboard-response","217","921161","0.0-17.0","663a77b9f973602bcedaf526","6796e1c0ff24ca17c453c51c","67c71dfd3fc2aa50703c8644","passed","","1549","","","","","","","","","","","","","<p><span style=""font-size:40px;"">BLOCK 2</span></p><p><span style=""font-size:25px;"">You have <b style=""color: #FF644F;""><strong>3 second(s)</strong></b> to respond to the following trials.</span><br></p><p></p> <!-- Blank line -->
                <p id=""blinking-text"" style=""font-weight; animation: blink 2s infinite;"">Press Space to continue</p>
                <style>
                    @keyframes blink {
                        50% {
                            opacity: 0;
                        }
                    }
                </style></p>"," ","","","","","","","","","","","","","",""
"","","","","","html-keyboard-response","218","922724","0.0-18.0-0.0","663a77b9f973602bcedaf526","6796e1c0ff24ca17c453c51c","67c71dfd3fc2aa50703c8644","passed","","","","","","","","","","","","","","","","","ballFalling","604.4000000000001","575.4211431702997","266.76","12","fallScene","true","","","","","25","",""
"","","","","","html-keyboard-response","219","925728","0.0-18.0-1.0","663a77b9f973602bcedaf526","6796e1c0ff24ca17c453c51c","67c71dfd3fc2aa50703c8644","passed","","878","","","","","","","","","","","","","","f","yesOrNo","","","","12","","","lp","3000","","","25","603.4000000000001","151"
"","","","","","html-keyboard-response","220","927292","0.0-18.0-0.1","663a77b9f973602bcedaf526","6796e1c0ff24ca17c453c51c","67c71dfd3fc2aa50703c8644","passed","","","","","","","","","","","","","","","","","ballFalling","604.4000000000001","650.0211431702996","404.58000000000004","11","fallScene","false","","","","","26","",""
"","","","","","html-keyboard-response","221","930293","0.0-18.0-1.1","663a77b9f973602bcedaf526","6796e1c0ff24ca17c453c51c","67c71dfd3fc2aa50703c8644","passed","","1220","","","","","","","","","","","","","","j","yesOrNo","","","","11","","","mid","3000","","","26","605.4000000000001","300"
"","","","","","html-keyboard-response","222","931874","0.0-18.0-0.2","663a77b9f973602bcedaf526","6796e1c0ff24ca17c453c51c","67c71dfd3fc2aa50703c8644","passed","","","","","","","","","","","","","","","","","ballFalling","500","553.4711431702997","282.51","7","fallScene","true","","","","","27","",""
"","","","","","html-keyboard-response","223","934878","0.0-18.0-1.2","663a77b9f973602bcedaf526","6796e1c0ff24ca17c453c51c","67c71dfd3fc2aa50703c8644","passed","","776","","","","","","","","","","","","","","f","yesOrNo","","","","7","","","lp","3000","","","27","501","227.2843295913261"
"","","","","","html-keyboard-response","224","936441","0.0-18.0-0.3","663a77b9f973602bcedaf526","6796e1c0ff24ca17c453c51c","67c71dfd3fc2aa50703c8644","passed","","","","","","","","","","","","","","","","","ballFalling","322.3","379.3711431702997","245.25","1","fallScene","false","","","","","28","",""
"","","","","","html-keyboard-response","225","939445","0.0-18.0-1.3","663a77b9f973602bcedaf526","6796e1c0ff24ca17c453c51c","67c71dfd3fc2aa50703c8644","passed","","926","","","","","","","","","","","","","","f","yesOrNo","","","","1","","","mid","3000","","","28","390.27114317029975","300"
"","","","","","html-keyboard-response","226","941008","0.0-18.0-0.4","663a77b9f973602bcedaf526","6796e1c0ff24ca17c453c51c","67c71dfd3fc2aa50703c8644","passed","","","","","","","","","","","","","","","","","ballFalling","604.4000000000001","650.0211431702996","404.58000000000004","11","fallScene","false","","","","","29","",""
"","","","","","html-keyboard-response","227","944010","0.0-18.0-1.4","663a77b9f973602bcedaf526","6796e1c0ff24ca17c453c51c","67c71dfd3fc2aa50703c8644","passed","","1272","","","","","","","","","","","","","","f","yesOrNo","","","","11","","","gt","3000","","","29","650.0211431702996","404.58"
"","","","","","html-keyboard-response","228","945576","0.0-18.0-0.5","663a77b9f973602bcedaf526","6796e1c0ff24ca17c453c51c","67c71dfd3fc2aa50703c8644","passed","","","","","","","","","","","","","","","","","ballFalling","322.3","379.3711431702997","245.25","1","fallScene","true","","","","","30","",""
"","","","","","html-keyboard-response","229","948577","0.0-18.0-1.5","663a77b9f973602bcedaf526","6796e1c0ff24ca17c453c51c","67c71dfd3fc2aa50703c8644","passed","","1234","","","","","","","","","","","","","","j","yesOrNo","","","","1","","","lp","3000","","","30","323.3","217.74551669457017"
"","","","","","html-keyboard-response","230","950141","0.0-18.0-0.6","663a77b9f973602bcedaf526","6796e1c0ff24ca17c453c51c","67c71dfd3fc2aa50703c8644","passed","","","","","","","","","","","","","","","","","ballFalling","604.4000000000001","575.4211431702997","266.76","12","fallScene","true","","","","","31","",""
"","","","","","html-keyboard-response","231","953142","0.0-18.0-1.6","663a77b9f973602bcedaf526","6796e1c0ff24ca17c453c51c","67c71dfd3fc2aa50703c8644","passed","","1106","","","","","","","","","","","","","","j","yesOrNo","","","","12","","","gt","3000","","","31","575.4211431702997","266.76"
"","","","","","html-keyboard-response","232","954708","0.0-18.0-0.7","663a77b9f973602bcedaf526","6796e1c0ff24ca17c453c51c","67c71dfd3fc2aa50703c8644","passed","","","","","","","","","","","","","","","","","ballFalling","322.3","356.42114317029973","357.87","4","fallScene","true","","","","","32","",""
"","","","","","html-keyboard-response","233","957710","0.0-18.0-1.7","663a77b9f973602bcedaf526","6796e1c0ff24ca17c453c51c","67c71dfd3fc2aa50703c8644","passed","","1070","","","","","","","","","","","","","","j","yesOrNo","","","","4","","","lp","3000","","","32","323.3","297.4070551689986"
"","","","","","html-keyboard-response","234","959275","0.0-18.0-0.8","663a77b9f973602bcedaf526","6796e1c0ff24ca17c453c51c","67c71dfd3fc2aa50703c8644","passed","","","","","","","","","","","","","","","","","ballFalling","604.4000000000001","650.0211431702996","404.58000000000004","11","fallScene","true","","","","","33","",""
"","","","","","html-keyboard-response","235","962278","0.0-18.0-1.8","663a77b9f973602bcedaf526","6796e1c0ff24ca17c453c51c","67c71dfd3fc2aa50703c8644","passed","","964","","","","","","","","","","","","","","f","yesOrNo","","","","11","","","gt","3000","","","33","650.0211431702996","404.58"
"","","","","","html-keyboard-response","236","963859","0.0-18.0-0.9","663a77b9f973602bcedaf526","6796e1c0ff24ca17c453c51c","67c71dfd3fc2aa50703c8644","passed","","","","","","","","","","","","","","","","","ballFalling","500","553.4711431702997","282.51","7","fallScene","false","","","","","34","",""
"","","","","","html-keyboard-response","237","966861","0.0-18.0-1.9","663a77b9f973602bcedaf526","6796e1c0ff24ca17c453c51c","67c71dfd3fc2aa50703c8644","passed","","832","","","","","","","","","","","","","","j","yesOrNo","","","","7","","","mid","3000","","","34","501","300"
"","","","","","html-keyboard-response","238","968657","0.0-18.0-0.10","663a77b9f973602bcedaf526","6796e1c0ff24ca17c453c51c","67c71dfd3fc2aa50703c8644","passed","","","","","","","","","","","","","","","","","ballFalling","322.3","308.07114317029976","253.89","2","fallScene","false","","","","","35","",""
"","","","","","html-keyboard-response","239","971660","0.0-18.0-1.10","663a77b9f973602bcedaf526","6796e1c0ff24ca17c453c51c","67c71dfd3fc2aa50703c8644","passed","","1115","","","","","","","","","","","","","","j","yesOrNo","","","","2","","","gt","3000","","","35","308.07114317029976","253.89"
"","","","","","html-keyboard-response","240","973225","0.0-18.0-0.11","663a77b9f973602bcedaf526","6796e1c0ff24ca17c453c51c","67c71dfd3fc2aa50703c8644","passed","","","","","","","","","","","","","","","","","ballFalling","604.4000000000001","575.4211431702997","266.76","12","fallScene","true","","","","","36","",""
"","","","","","html-keyboard-response","241","976227","0.0-18.0-1.11","663a77b9f973602bcedaf526","6796e1c0ff24ca17c453c51c","67c71dfd3fc2aa50703c8644","passed","","682","","","","","","","","","","","","","","f","yesOrNo","","","","12","","","mid","3000","","","36","536.4288568297004","300"
"","","","","","html-keyboard-response","242","978241","0.0-18.0-0.12","663a77b9f973602bcedaf526","6796e1c0ff24ca17c453c51c","67c71dfd3fc2aa50703c8644","passed","","","","","","","","","","","","","","","","","ballFalling","604.4000000000001","596.8711431702998","394.5","10","fallScene","true","","","","","37","",""
"","","","","","html-keyboard-response","243","981242","0.0-18.0-1.12","663a77b9f973602bcedaf526","6796e1c0ff24ca17c453c51c","67c71dfd3fc2aa50703c8644","passed","","871","","","","","","","","","","","","","","f","yesOrNo","","","","10","","","mid","3000","","","37","536.4288568297004","300"
"","","","","","html-keyboard-response","244","982808","0.0-18.0-0.13","663a77b9f973602bcedaf526","6796e1c0ff24ca17c453c51c","67c71dfd3fc2aa50703c8644","passed","","","","","","","","","","","","","","","","","ballFalling","322.3","296.07114317029976","371.46","3","fallScene","true","","","","","38","",""
"","","","","","html-keyboard-response","245","985811","0.0-18.0-1.13","663a77b9f973602bcedaf526","6796e1c0ff24ca17c453c51c","67c71dfd3fc2aa50703c8644","passed","","549","","","","","","","","","","","","","","j","yesOrNo","","","","3","","","gt","3000","","","38","296.07114317029976","371.46"
"","","","","","html-keyboard-response","246","987607","0.0-18.0-0.14","663a77b9f973602bcedaf526","6796e1c0ff24ca17c453c51c","67c71dfd3fc2aa50703c8644","passed","","","","","","","","","","","","","","","","","ballFalling","322.3","308.07114317029976","253.89","2","fallScene","false","","","","","39","",""
"","","","","","html-keyboard-response","247","990609","0.0-18.0-1.14","663a77b9f973602bcedaf526","6796e1c0ff24ca17c453c51c","67c71dfd3fc2aa50703c8644","passed","","988","","","","","","","","","","","","","","j","yesOrNo","","","","2","","","mid","3000","","","39","321.3","300"
"","","","","","html-keyboard-response","248","992175","0.0-18.0-0.15","663a77b9f973602bcedaf526","6796e1c0ff24ca17c453c51c","67c71dfd3fc2aa50703c8644","passed","","","","","","","","","","","","","","","","","ballFalling","500","453.67114317029973","210.33","5","fallScene","true","","","","","40","",""
"","","","","","html-keyboard-response","249","995176","0.0-18.0-1.15","663a77b9f973602bcedaf526","6796e1c0ff24ca17c453c51c","67c71dfd3fc2aa50703c8644","passed","","1425","","","","","","","","","","","","","","j","yesOrNo","","","","5","","","mid","3000","","","40","499","300"
"","","","","","html-keyboard-response","250","996758","0.0-18.0-0.16","663a77b9f973602bcedaf526","6796e1c0ff24ca17c453c51c","67c71dfd3fc2aa50703c8644","passed","","","","","","","","","","","","","","","","","ballFalling","500","553.4711431702997","282.51","7","fallScene","false","","","","","41","",""
"","","","","","html-keyboard-response","251","999761","0.0-18.0-1.16","663a77b9f973602bcedaf526","6796e1c0ff24ca17c453c51c","67c71dfd3fc2aa50703c8644","passed","","860","","","","","","","","","","","","","","j","yesOrNo","","","","7","","","gt","3000","","","41","553.4711431702997","282.51"
"","","","","","html-keyboard-response","252","1001341","0.0-18.0-0.17","663a77b9f973602bcedaf526","6796e1c0ff24ca17c453c51c","67c71dfd3fc2aa50703c8644","passed","","","","","","","","","","","","","","","","","ballFalling","500","553.4711431702997","282.51","7","fallScene","false","","","","","42","",""
"","","","","","html-keyboard-response","253","1004344","0.0-18.0-1.17","663a77b9f973602bcedaf526","6796e1c0ff24ca17c453c51c","67c71dfd3fc2aa50703c8644","passed","","1088","","","","","","","","","","","","","","j","yesOrNo","","","","7","","","lp","3000","","","42","501","227.2843295913261"
"","","","","","html-keyboard-response","254","1006141","0.0-18.0-0.18","663a77b9f973602bcedaf526","6796e1c0ff24ca17c453c51c","67c71dfd3fc2aa50703c8644","passed","","","","","","","","","","","","","","","","","ballFalling","322.3","308.07114317029976","253.89","2","fallScene","true","","","","","43","",""
"","","","","","html-keyboard-response","255","1009142","0.0-18.0-1.18","663a77b9f973602bcedaf526","6796e1c0ff24ca17c453c51c","67c71dfd3fc2aa50703c8644","passed","","830","","","","","","","","","","","","","","f","yesOrNo","","","","2","","","lp","3000","","","43","321.3","151"
"","","","","","html-keyboard-response","256","1010707","0.0-18.0-0.19","663a77b9f973602bcedaf526","6796e1c0ff24ca17c453c51c","67c71dfd3fc2aa50703c8644","passed","","","","","","","","","","","","","","","","","ballFalling","322.3","296.07114317029976","371.46","3","fallScene","true","","","","","44","",""
"","","","","","html-keyboard-response","257","1013711","0.0-18.0-1.19","663a77b9f973602bcedaf526","6796e1c0ff24ca17c453c51c","67c71dfd3fc2aa50703c8644","passed","","928","","","","","","","","","","","","","","j","yesOrNo","","","","3","","","mid","3000","","","44","321.3","300"
"","","","","","html-keyboard-response","258","1015507","0.0-18.0-0.20","663a77b9f973602bcedaf526","6796e1c0ff24ca17c453c51c","67c71dfd3fc2aa50703c8644","passed","","","","","","","","","","","","","","","","","ballFalling","322.3","308.07114317029976","253.89","2","fallScene","true","","","","","45","",""
"","","","","","html-keyboard-response","259","1018510","0.0-18.0-1.20","663a77b9f973602bcedaf526","6796e1c0ff24ca17c453c51c","67c71dfd3fc2aa50703c8644","passed","","1335","","","","","","","","","","","","","","j","yesOrNo","","","","2","","","mid","3000","","","45","321.3","300"
"","","","","","html-keyboard-response","260","1020091","0.0-18.0-0.21","663a77b9f973602bcedaf526","6796e1c0ff24ca17c453c51c","67c71dfd3fc2aa50703c8644","passed","","","","","","","","","","","","","","","","","ballFalling","500","553.4711431702997","282.51","7","fallScene","true","","","","","46","",""
"","","","","","html-keyboard-response","261","1023092","0.0-18.0-1.21","663a77b9f973602bcedaf526","6796e1c0ff24ca17c453c51c","67c71dfd3fc2aa50703c8644","passed","","1964","","","","","","","","","","","","","","j","yesOrNo","","","","7","","","gt","3000","","","46","553.4711431702997","282.51"
"","","","","","html-keyboard-response","262","1024657","0.0-18.0-0.22","663a77b9f973602bcedaf526","6796e1c0ff24ca17c453c51c","67c71dfd3fc2aa50703c8644","passed","","","","","","","","","","","","","","","","","ballFalling","500","453.67114317029973","210.33","5","fallScene","false","","","","","47","",""
"","","","","","html-keyboard-response","263","1027661","0.0-18.0-1.22","663a77b9f973602bcedaf526","6796e1c0ff24ca17c453c51c","67c71dfd3fc2aa50703c8644","passed","","1478","","","","","","","","","","","","","","j","yesOrNo","","","","5","","","lp","3000","","","47","499","151"
"","","","","","html-keyboard-response","264","1029674","0.0-18.0-0.23","663a77b9f973602bcedaf526","6796e1c0ff24ca17c453c51c","67c71dfd3fc2aa50703c8644","passed","","","","","","","","","","","","","","","","","ballFalling","500","510.8711431702997","369.03","8","fallScene","true","","","","","48","",""
"","","","","","html-keyboard-response","265","1032677","0.0-18.0-1.23","663a77b9f973602bcedaf526","6796e1c0ff24ca17c453c51c","67c71dfd3fc2aa50703c8644","passed","","1135","","","","","","","","","","","","","","f","yesOrNo","","","","8","","","gt","3000","","","48","510.8711431702997","369.03"
"","","","","","html-keyboard-response","266","1034532","0.0-19.0","663a77b9f973602bcedaf526","6796e1c0ff24ca17c453c51c","67c71dfd3fc2aa50703c8644","passed","","1853","","","","","","","","","","","","","<p><span style=""font-size:40px;"">BLOCK 3</span></p><p><span style=""font-size:25px;"">You have <b style=""color: #FF644F;""><strong>0.7 second(s)</strong></b> to respond to the following trials.</span><br></p><p></p> <!-- Blank line -->
                <p id=""blinking-text"" style=""font-weight; animation: blink 2s infinite;"">Press Space to continue</p>
                <style>
                    @keyframes blink {
                        50% {
                            opacity: 0;
                        }
                    }
                </style></p>"," ","","","","","","","","","","","","","",""
"","","","","","html-keyboard-response","267","1036024","0.0-20.0-0.0","663a77b9f973602bcedaf526","6796e1c0ff24ca17c453c51c","67c71dfd3fc2aa50703c8644","passed","","","","","","","","","","","","","","","","","ballFalling","604.4000000000001","667.6211431702998","201.78","9","fallScene","false","","","","","49","",""
"","","","","","html-keyboard-response","268","1036726","0.0-20.0-1.0","663a77b9f973602bcedaf526","6796e1c0ff24ca17c453c51c","67c71dfd3fc2aa50703c8644","passed","","null","","","","","","","","","","","","","","null","yesOrNo","","","","9","","","lp","700","","","49","605.4000000000001","151"
"","","","","","html-keyboard-response","269","1038291","0.0-20.0-0.1","663a77b9f973602bcedaf526","6796e1c0ff24ca17c453c51c","67c71dfd3fc2aa50703c8644","passed","","","","","","","","","","","","","","","","","ballFalling","500","453.67114317029973","210.33","5","fallScene","false","","","","","50","",""
"","","","","","html-keyboard-response","270","1038992","0.0-20.0-1.1","663a77b9f973602bcedaf526","6796e1c0ff24ca17c453c51c","67c71dfd3fc2aa50703c8644","passed","","661","","","","","","","","","","","","","","j","yesOrNo","","","","5","","","mid","700","","","50","499","300"
"","","","","","html-keyboard-response","271","1040557","0.0-20.0-0.2","663a77b9f973602bcedaf526","6796e1c0ff24ca17c453c51c","67c71dfd3fc2aa50703c8644","passed","","","","","","","","","","","","","","","","","ballFalling","500","453.67114317029973","210.33","5","fallScene","true","","","","","51","",""
"","","","","","html-keyboard-response","272","1041261","0.0-20.0-1.2","663a77b9f973602bcedaf526","6796e1c0ff24ca17c453c51c","67c71dfd3fc2aa50703c8644","passed","","null","","","","","","","","","","","","","","null","yesOrNo","","","","5","","","lp","700","","","51","499","151"
"","","","","","html-keyboard-response","273","1042824","0.0-20.0-0.3","663a77b9f973602bcedaf526","6796e1c0ff24ca17c453c51c","67c71dfd3fc2aa50703c8644","passed","","","","","","","","","","","","","","","","","ballFalling","604.4000000000001","650.0211431702996","404.58000000000004","11","fallScene","true","","","","","52","",""
"","","","","","html-keyboard-response","274","1043527","0.0-20.0-1.3","663a77b9f973602bcedaf526","6796e1c0ff24ca17c453c51c","67c71dfd3fc2aa50703c8644","passed","","684","","","","","","","","","","","","","","j","yesOrNo","","","","11","","","gt","700","","","52","650.0211431702996","404.58"
"","","","","","html-keyboard-response","275","1045090","0.0-20.0-0.4","663a77b9f973602bcedaf526","6796e1c0ff24ca17c453c51c","67c71dfd3fc2aa50703c8644","passed","","","","","","","","","","","","","","","","","ballFalling","500","453.67114317029973","210.33","5","fallScene","false","","","","","53","",""
"","","","","","html-keyboard-response","276","1045793","0.0-20.0-1.4","663a77b9f973602bcedaf526","6796e1c0ff24ca17c453c51c","67c71dfd3fc2aa50703c8644","passed","","null","","","","","","","","","","","","","","null","yesOrNo","","","","5","","","gt","700","","","53","453.6711431702998","210.33"
"","","","","","html-keyboard-response","277","1047356","0.0-20.0-0.5","663a77b9f973602bcedaf526","6796e1c0ff24ca17c453c51c","67c71dfd3fc2aa50703c8644","passed","","","","","","","","","","","","","","","","","ballFalling","604.4000000000001","650.0211431702996","404.58000000000004","11","fallScene","false","","","","","54","",""
