"success","timeout","failed_images","failed_audio","failed_video","trial_type","trial_index","time_elapsed","internal_node_id","subject_id","study_id","session_id","practiceTestResult","view_history","rt","width","height","webaudio","browser","browser_version","mobile","os","fullscreen","vsync_rate","webcam","microphone","url","stimulus","response","task","ball_X","obstacle_groundTruth_x","obstacle_groundTruth_y","stimulus_idx","trial_name","flipped","choice","timeLimit","question_order","currentTrial","obstacle_choice_x","obstacle_choice_y"
"true","false","[]","[]","[]","preload","0","498","0.0-0.0","66413abd57f96e210a9cfe13","6796e1c0ff24ca17c453c51c","67c6ab41247e39ec2d4f23a5","passed","","","","","","","","","","","","","","","","","","","","","","","","","","","","",""
"","","","","","instructions","1","13852","0.0-1.0","66413abd57f96e210a9cfe13","6796e1c0ff24ca17c453c51c","67c6ab41247e39ec2d4f23a5","passed","[{""page_index"":0,""viewing_time"":13353}]","13353","","","","","","","","","","","","","","","","","","","","","","","","","","",""
"","","","","","browser-check","2","14839","0.0-2.0","66413abd57f96e210a9cfe13","6796e1c0ff24ca17c453c51c","67c6ab41247e39ec2d4f23a5","passed","","","2048","983","true","chrome","133.0.0","false","Windows 10","true","60.87","true","false","","","","","","","","","","","","","","","",""
"","","","","","external-html","3","73436","0.0-3.0","66413abd57f96e210a9cfe13","6796e1c0ff24ca17c453c51c","67c6ab41247e39ec2d4f23a5","passed","","58303","","","","","","","","","","","","consent.html","","","","","","","","","","","","","","",""
"true","","","","","fullscreen","4","79854","0.0-4.0","66413abd57f96e210a9cfe13","6796e1c0ff24ca17c453c51c","67c6ab41247e39ec2d4f23a5","passed","","6117","","","","","","","","","","","","","","","","","","","","","","","","","","",""
"","","","","","browser-check","5","80860","0.0-5.0","66413abd57f96e210a9cfe13","6796e1c0ff24ca17c453c51c","67c6ab41247e39ec2d4f23a5","passed","","","2048","1152","true","chrome","133.0.0","false","Windows 10","true","59.96","true","false","","","","","","","","","","","","","","","",""
"","","","","","html-keyboard-response","6","89058","0.0-6.0","66413abd57f96e210a9cfe13","6796e1c0ff24ca17c453c51c","67c6ab41247e39ec2d4f23a5","passed","","8198","","","","","","","","","","","","","<p><b>This experiment requires keyboard input.</b></p> 
        <p><b>To ensure your response will be recorded successfully, please press 'Space' to continue.</b></p>
        <p>If you can't proceed, you won't be able to complete this study.</p>
        <p></p> <!-- Blank line -->
        <p id=""blinking-text"" style=""font-weight; animation: blink 2s infinite;"">Press Space to continue</p>
        <style>
            @keyframes blink {
                50% {
                    opacity: 0;
                }
            }
        </style>"," ","","","","","","","","","","","","",""
"","","","","","html-keyboard-response","7","91697","0.0-7.0","66413abd57f96e210a9cfe13","6796e1c0ff24ca17c453c51c","67c6ab41247e39ec2d4f23a5","passed","","2639","","","","","","","","","","","","","<p><b>This experiment requires keyboard input.</b></p> 
        <p><b>To ensure your response will be recorded successfully, please press the 'f' key to continue.</b></p>
        <p>If you can't proceed, you won't be able to complete this study.</p>
        <p></p> <!-- Blank line -->
        <p id=""blinking-text"" style=""font-weight; animation: blink 2s infinite;"">Press f to continue</p>
        <style>
            @keyframes blink {
                50% {
                    opacity: 0;
                }
            }
        </style>","f","","","","","","","","","","","","",""
"","","","","","html-keyboard-response","8","93617","0.0-8.0","66413abd57f96e210a9cfe13","6796e1c0ff24ca17c453c51c","67c6ab41247e39ec2d4f23a5","passed","","1920","","","","","","","","","","","","","<p><b>This experiment requires keyboard input.</b></p> 
        <p><b>To ensure your response will be recorded successfully, please press the 'j' key to continue.</b></p>
        <p>If you can't proceed, you won't be able to complete this study.</p>
        <p></p> <!-- Blank line -->
        <p id=""blinking-text"" style=""font-weight; animation: blink 2s infinite;"">Press j to continue</p>
        <style>
            @keyframes blink {
                50% {
                    opacity: 0;
                }
            }
        </style>","j","","","","","","","","","","","","",""
"","","","","","browser-check","9","94621","0.0-9.0","66413abd57f96e210a9cfe13","6796e1c0ff24ca17c453c51c","67c6ab41247e39ec2d4f23a5","passed","","","2048","1152","true","chrome","133.0.0","false","Windows 10","true","59.96","true","false","","","","","","","","","","","","","","","",""
"","","","","","survey-text","10","98406","0.0-10.0","66413abd57f96e210a9cfe13","6796e1c0ff24ca17c453c51c","67c6ab41247e39ec2d4f23a5","passed","","3784","","","","","","","","","","","","","","{""prolificID"":""66413abd57f96e210a9cfe13""}","","","","","","","","","","","","",""
"","","","","","instructions","11","161793","0.0-11.0-0.0-0.0","66413abd57f96e210a9cfe13","6796e1c0ff24ca17c453c51c","67c6ab41247e39ec2d4f23a5","passed","[{""page_index"":0,""viewing_time"":22736},{""page_index"":1,""viewing_time"":23819},{""page_index"":2,""viewing_time"":8544},{""page_index"":3,""viewing_time"":8288}]","63387","","","","","","","","","","","","","","","","","","","","","","","","","","",""
"","","","","","html-keyboard-response","12","179691","0.0-11.0-0.0-1.0","66413abd57f96e210a9cfe13","6796e1c0ff24ca17c453c51c","67c6ab41247e39ec2d4f23a5","passed","","17394","","","","","","","","","","","","","<br>Remember! After a ball falls, the screen will disappear, and you'll decide if the proposed position is where the hidden triangle was. <br>You will now practice this by watching a few videos and making decisions.<p>To respond:<br style=""margin-bottom: 5px; text-indent: -20px; padding-left: 20px;"">- Press <b style=""color: #12AD2B;"">J for Yes</b>, if you think the triangle is in the correct position.<br style=""margin-top: 0; text-indent: -20px; padding-left: 20px;"">- Press <b style=""color: orange;"">F for No</b>, if you think the triangle is not in the correct position.</p><p>In this practice round, there is no time limit. Focus on getting comfortable with the task first.<br>Press either J or F to begin your practice trials.</p><img src = ""YesOrNo_instruction.png"" style=""width: 65%;""></img>","j","","","","","","","","","","","","",""
"","","","","","html-keyboard-response","13","181274","0.0-11.0-0.0-2.0-0.0","66413abd57f96e210a9cfe13","6796e1c0ff24ca17c453c51c","67c6ab41247e39ec2d4f23a5","passed","","","","","","","","","","","","","","","","","ballFalling_prac","441","414","302","5","fallScene","true","","","","","",""
"","","","","","html-keyboard-response","14","183722","0.0-11.0-0.0-2.0-1.0","66413abd57f96e210a9cfe13","6796e1c0ff24ca17c453c51c","67c6ab41247e39ec2d4f23a5","passed","","2445","","","","","","","","","","","","","","j","yesOrNo_prac_noTimed","","","","5","","","close gt","NA","","","",""
"","","","","","html-keyboard-response","15","185828","0.0-11.0-0.0-2.0-0.1","66413abd57f96e210a9cfe13","6796e1c0ff24ca17c453c51c","67c6ab41247e39ec2d4f23a5","passed","","","","","","","","","","","","","","","","","ballFalling_prac","660","666","350","3","fallScene","false","","","","","",""
"","","","","","html-keyboard-response","16","190138","0.0-11.0-0.0-2.0-1.1","66413abd57f96e210a9cfe13","6796e1c0ff24ca17c453c51c","67c6ab41247e39ec2d4f23a5","passed","","4310","","","","","","","","","","","","","","f","yesOrNo_prac_noTimed","","","","3","","","wrong direction","NA","","","",""
"","","","","","html-keyboard-response","17","191699","0.0-11.0-0.0-2.0-0.2","66413abd57f96e210a9cfe13","6796e1c0ff24ca17c453c51c","67c6ab41247e39ec2d4f23a5","passed","","","","","","","","","","","","","","","","","ballFalling_prac","416","464","296","1","fallScene","false","","","","","",""
"","","","","","html-keyboard-response","18","195154","0.0-11.0-0.0-2.0-1.2","66413abd57f96e210a9cfe13","6796e1c0ff24ca17c453c51c","67c6ab41247e39ec2d4f23a5","passed","","3454","","","","","","","","","","","","","","j","yesOrNo_prac_noTimed","","","","1","","","gt","NA","","","",""
"","","","","","instructions","19","241626","0.0-11.0-0.0-3.0","66413abd57f96e210a9cfe13","6796e1c0ff24ca17c453c51c","67c6ab41247e39ec2d4f23a5","passed","[{""page_index"":0,""viewing_time"":27192},{""page_index"":1,""viewing_time"":19280}]","46471","","","","","","","","","","","","","","","","","","","","","","","","","","",""
"","","","","","html-button-response","20","245618","0.0-11.0-0.0-4.0","66413abd57f96e210a9cfe13","6796e1c0ff24ca17c453c51c","67c6ab41247e39ec2d4f23a5","passed","","3487","","","","","","","","","","","","","<p>To make sure you understood the task, we just have a <b>brief quiz</b> here.</p><p>If you need to review the instructions, click 'Previous'.</p><p>It's important to understand the task to do the study, so you have to pass the quiz to move to the study.</p>","1","","","","","","","","","","","","",""
"","","","","","survey-multi-choice","21","262986","0.0-11.0-1.0-0.0","66413abd57f96e210a9cfe13","6796e1c0ff24ca17c453c51c","67c6ab41247e39ec2d4f23a5","passed","","17367","","","","","","","","","","","","","","{""generalProcedure"":""Watch a video of a ball falling, some of it behind a gray screen. After each video, decide if the triangle is at the spot where the ball hit the triangle behind the screen. There is time limit for the response.""}","","","","","","","","","","[0]","","",""
"","","","","","survey-multi-choice","22","267810","0.0-11.0-1.0-1.0","66413abd57f96e210a9cfe13","6796e1c0ff24ca17c453c51c","67c6ab41247e39ec2d4f23a5","passed","","4823","","","","","","","","","","","","","","{""checkBallHitObstacle"":""Yes.""}","","","","","","","","","","[0]","","",""
"","","","","","survey-multi-choice","23","273218","0.0-11.0-1.0-2.0","66413abd57f96e210a9cfe13","6796e1c0ff24ca17c453c51c","67c6ab41247e39ec2d4f23a5","passed","","5407","","","","","","","","","","","","","","{""checkTriangleVisibility"":""No, the triangle is hidden behind the gray screen.""}","","","","","","","","","","[0]","","",""
"","","","","","survey-multi-choice","24","277642","0.0-11.0-1.0-3.0","66413abd57f96e210a9cfe13","6796e1c0ff24ca17c453c51c","67c6ab41247e39ec2d4f23a5","passed","","4423","","","","","","","","","","","","","","{""checkTimedResponse"":""Your response will not be recorded, and the trial will move to the next one.""}","","","","","","","","","","[0]","","",""
"","","","","","survey-multi-choice","25","286810","0.0-11.0-1.0-4.0","66413abd57f96e210a9cfe13","6796e1c0ff24ca17c453c51c","67c6ab41247e39ec2d4f23a5","passed","","9167","","","","","","","","","","","","","","{""checkTimeBlockNotice"":""At the beginning of each block.""}","","","","","","","","","","[0]","","",""
"","","","","","survey-multi-choice","26","293458","0.0-11.0-1.0-5.0","66413abd57f96e210a9cfe13","6796e1c0ff24ca17c453c51c","67c6ab41247e39ec2d4f23a5","passed","","6647","","","","","","","","","","","","","","{""checkTimeBlockSameness"":""Yes, the time limit is the same for all trials within a block.""}","","","","","","","","","","[0]","","",""
"","","","","","survey-multi-choice","27","304034","0.0-11.0-1.0-6.0","66413abd57f96e210a9cfe13","6796e1c0ff24ca17c453c51c","67c6ab41247e39ec2d4f23a5","passed","","10575","","","","","","","","","","","","","","{""checkTrianglePrecision"":""No. The proposed purple triangle is not in the correct position because it doesn't match the location of the white triangle exactly.""}","","","","","","","","","","[0]","","",""
"","","","","","instructions","28","323930","0.0-12.0","66413abd57f96e210a9cfe13","6796e1c0ff24ca17c453c51c","67c6ab41247e39ec2d4f23a5","passed","[{""page_index"":0,""viewing_time"":5799},{""page_index"":1,""viewing_time"":5688},{""page_index"":2,""viewing_time"":4576},{""page_index"":3,""viewing_time"":3832}]","19895","","","","","","","","","","","","","","","","","","","","","","","","","","",""
"","","","","","instructions","29","330458","0.0-13.0-0.0","66413abd57f96e210a9cfe13","6796e1c0ff24ca17c453c51c","67c6ab41247e39ec2d4f23a5","passed","[{""page_index"":0,""viewing_time"":6528}]","6528","","","","","","","","","","","","","","","","","","","","","","","","","","",""
"","","","","","html-keyboard-response","30","334387","0.0-13.0-1.0","66413abd57f96e210a9cfe13","6796e1c0ff24ca17c453c51c","67c6ab41247e39ec2d4f23a5","passed","","3928","","","","","","","","","","","","","<p><span style=""font-size:40px;"">Practice BLOCK 1</span></p><p><span style=""font-size:25px;"">You have <b style=""color: #FF644F;""><strong>3 second(s)</strong></b> to respond to the following trials.</span><br></p><p id=""blinking-text"" style=""font-weight; animation: blink 2s infinite;"">Press Space to continue</p><style>
                    @keyframes blink {
                        50% {
                            opacity: 0;
                        }
                    }
                </style>"," ","","","","","","","","","","","","",""
"","","","","","html-keyboard-response","31","335966","0.0-13.0-2.0-0.0","66413abd57f96e210a9cfe13","6796e1c0ff24ca17c453c51c","67c6ab41247e39ec2d4f23a5","passed","","","","","","","","","","","","","","","","","ballFalling_prac","660","610","263","4","fallScene","false","","","","","",""
"","","","","","html-keyboard-response","32","338968","0.0-13.0-2.0-1.0","66413abd57f96e210a9cfe13","6796e1c0ff24ca17c453c51c","67c6ab41247e39ec2d4f23a5","passed","","1546","","","","","","","","","","","","","","j","yesOrNo_prac","","","","4","","","gt","3000","","","",""
"","","","","","html-keyboard-response","33","340519","0.0-13.0-2.0-0.1","66413abd57f96e210a9cfe13","6796e1c0ff24ca17c453c51c","67c6ab41247e39ec2d4f23a5","passed","","","","","","","","","","","","","","","","","ballFalling_prac","416","464","296","1","fallScene","false","","","","","",""
"","","","","","html-keyboard-response","34","343522","0.0-13.0-2.0-1.1","66413abd57f96e210a9cfe13","6796e1c0ff24ca17c453c51c","67c6ab41247e39ec2d4f23a5","passed","","2595","","","","","","","","","","","","","","j","yesOrNo_prac","","","","1","","","far gt","3000","","","",""
"","","","","","html-keyboard-response","35","345073","0.0-13.0-2.0-0.2","66413abd57f96e210a9cfe13","6796e1c0ff24ca17c453c51c","67c6ab41247e39ec2d4f23a5","passed","","","","","","","","","","","","","","","","","ballFalling_prac","584","536","296","1","fallScene","true","","","","","",""
"","","","","","html-keyboard-response","36","348076","0.0-13.0-2.0-1.2","66413abd57f96e210a9cfe13","6796e1c0ff24ca17c453c51c","67c6ab41247e39ec2d4f23a5","passed","","1664","","","","","","","","","","","","","","f","yesOrNo_prac","","","","1","","","close gt","3000","","","",""
"","","","","","html-keyboard-response","37","350411","0.0-13.0-3.0","66413abd57f96e210a9cfe13","6796e1c0ff24ca17c453c51c","67c6ab41247e39ec2d4f23a5","passed","","2334","","","","","","","","","","","","","<p><span style=""font-size:40px;"">Practice BLOCK 2</span></p><p><span style=""font-size:25px;"">You have <b style=""color: #FF644F;""><strong>0.7 second(s)</strong></b> to respond to the following trials.</span><br></p><p id=""blinking-text"" style=""font-weight; animation: blink 2s infinite;"">Press Space to continue</p><style>
                    @keyframes blink {
                        50% {
                            opacity: 0;
                        }
                    }
                </style>"," ","","","","","","","","","","","","",""
"","","","","","html-keyboard-response","38","351962","0.0-13.0-4.0-0.0","66413abd57f96e210a9cfe13","6796e1c0ff24ca17c453c51c","67c6ab41247e39ec2d4f23a5","passed","","","","","","","","","","","","","","","","","ballFalling_prac","441","500","317","6","fallScene","true","","","","","",""
"","","","","","html-keyboard-response","39","352664","0.0-13.0-4.0-1.0","66413abd57f96e210a9cfe13","6796e1c0ff24ca17c453c51c","67c6ab41247e39ec2d4f23a5","passed","","null","","","","","","","","","","","","","","null","yesOrNo_prac","","","","6","","","gt","700","","","",""
"","","","","","html-keyboard-response","40","354781","0.0-13.0-4.0-0.1","66413abd57f96e210a9cfe13","6796e1c0ff24ca17c453c51c","67c6ab41247e39ec2d4f23a5","passed","","","","","","","","","","","","","","","","","ballFalling_prac","340","334","350","3","fallScene","true","","","","","",""
"","","","","","html-keyboard-response","41","355484","0.0-13.0-4.0-1.1","66413abd57f96e210a9cfe13","6796e1c0ff24ca17c453c51c","67c6ab41247e39ec2d4f23a5","passed","","null","","","","","","","","","","","","","","null","yesOrNo_prac","","","","3","","","close gt","700","","","",""
"","","","","","html-keyboard-response","42","357066","0.0-13.0-4.0-0.2","66413abd57f96e210a9cfe13","6796e1c0ff24ca17c453c51c","67c6ab41247e39ec2d4f23a5","passed","","","","","","","","","","","","","","","","","ballFalling_prac","660","610","263","4","fallScene","false","","","","","",""
"","","","","","html-keyboard-response","43","357769","0.0-13.0-4.0-1.2","66413abd57f96e210a9cfe13","6796e1c0ff24ca17c453c51c","67c6ab41247e39ec2d4f23a5","passed","","null","","","","","","","","","","","","","","null","yesOrNo_prac","","","","4","","","far gt","700","","","",""
"","","","","","instructions","44","362114","0.0-13.0-5.0","66413abd57f96e210a9cfe13","6796e1c0ff24ca17c453c51c","67c6ab41247e39ec2d4f23a5","passed","[{""page_index"":0,""viewing_time"":4345}]","4346","","","","","","","","","","","","","","","","","","","","","","","","","","",""
"","","","","","html-keyboard-response","45","364947","0.0-13.0-6.0","66413abd57f96e210a9cfe13","6796e1c0ff24ca17c453c51c","67c6ab41247e39ec2d4f23a5","passed","","2832","","","","","","","","","","","","","<p><span style=""font-size:40px;"">Practice Test BLOCK 1</span></p><p><span style=""font-size:25px;"">You have <b style=""color: #FF644F;""><strong>0.7 second(s)</strong></b> to respond to the following trials.</span><br></p><p id=""blinking-text"" style=""font-weight; animation: blink 2s infinite;"">Press Space to continue</p><style>
                    @keyframes blink {
                        50% {
                            opacity: 0;
                        }
                    }
                </style>"," ","","","","","","","","","","","","",""
"","","","","","html-keyboard-response","46","366507","0.0-13.0-7.0-0.0","66413abd57f96e210a9cfe13","6796e1c0ff24ca17c453c51c","67c6ab41247e39ec2d4f23a5","passed","","","","","","","","","","","","","","","","","ballFalling_prac","441","500","317","6","fallScene","true","","","","","",""
"","","","","","html-keyboard-response","47","367210","0.0-13.0-7.0-1.0","66413abd57f96e210a9cfe13","6796e1c0ff24ca17c453c51c","67c6ab41247e39ec2d4f23a5","passed","","null","","","","","","","","","","","","","","null","yesOrNo_prac","","","","6","","","close gt","700","","","",""
"","","","","","html-keyboard-response","48","368793","0.0-13.0-7.0-0.1","66413abd57f96e210a9cfe13","6796e1c0ff24ca17c453c51c","67c6ab41247e39ec2d4f23a5","passed","","","","","","","","","","","","","","","","","ballFalling_prac","340","390","263","4","fallScene","true","","","","","",""
"","","","","","html-keyboard-response","49","369494","0.0-13.0-7.0-1.1","66413abd57f96e210a9cfe13","6796e1c0ff24ca17c453c51c","67c6ab41247e39ec2d4f23a5","passed","","674","","","","","","","","","","","","","","j","yesOrNo_prac","","","","4","","","far gt","700","","","",""
"","","","","","html-keyboard-response","50","371078","0.0-13.0-7.0-0.2","66413abd57f96e210a9cfe13","6796e1c0ff24ca17c453c51c","67c6ab41247e39ec2d4f23a5","passed","","","","","","","","","","","","","","","","","ballFalling_prac","559","586","302","5","fallScene","false","","","","","",""
"","","","","","html-keyboard-response","51","371780","0.0-13.0-7.0-1.2","66413abd57f96e210a9cfe13","6796e1c0ff24ca17c453c51c","67c6ab41247e39ec2d4f23a5","passed","","604","","","","","","","","","","","","","","f","yesOrNo_prac","","","","5","","","gt","700","","","",""
"","","","","","html-keyboard-response","52","372715","0.0-13.0-8.0","66413abd57f96e210a9cfe13","6796e1c0ff24ca17c453c51c","67c6ab41247e39ec2d4f23a5","passed","","934","","","","","","","","","","","","","<p><span style=""font-size:40px;"">Practice Test BLOCK 2</span></p><p><span style=""font-size:25px;"">You have <b style=""color: #FF644F;""><strong>3 second(s)</strong></b> to respond to the following trials.</span><br></p><p id=""blinking-text"" style=""font-weight; animation: blink 2s infinite;"">Press Space to continue</p><style>
                    @keyframes blink {
                        50% {
                            opacity: 0;
                        }
                    }
                </style>"," ","","","","","","","","","","","","",""
"","","","","","html-keyboard-response","53","374297","0.0-13.0-9.0-0.0","66413abd57f96e210a9cfe13","6796e1c0ff24ca17c453c51c","67c6ab41247e39ec2d4f23a5","passed","","","","","","","","","","","","","","","","","ballFalling_prac","340","390","263","4","fallScene","true","","","","","",""
"","","","","","html-keyboard-response","54","377299","0.0-13.0-9.0-1.0","66413abd57f96e210a9cfe13","6796e1c0ff24ca17c453c51c","67c6ab41247e39ec2d4f23a5","passed","","761","","","","","","","","","","","","","","j","yesOrNo_prac","","","","4","","","close gt","3000","","","",""
"","","","","","html-keyboard-response","55","378867","0.0-13.0-9.0-0.1","66413abd57f96e210a9cfe13","6796e1c0ff24ca17c453c51c","67c6ab41247e39ec2d4f23a5","passed","","","","","","","","","","","","","","","","","ballFalling_prac","416","365","249","2","fallScene","false","","","","","",""
"","","","","","html-keyboard-response","56","381870","0.0-13.0-9.0-1.1","66413abd57f96e210a9cfe13","6796e1c0ff24ca17c453c51c","67c6ab41247e39ec2d4f23a5","passed","","767","","","","","","","","","","","","","","f","yesOrNo_prac","","","","2","","","gt","3000","","","",""
"","","","","","html-keyboard-response","57","383438","0.0-13.0-9.0-0.2","66413abd57f96e210a9cfe13","6796e1c0ff24ca17c453c51c","67c6ab41247e39ec2d4f23a5","passed","","","","","","","","","","","","","","","","","ballFalling_prac","559","586","302","5","fallScene","false","","","","","",""
"","","","","","html-keyboard-response","58","386439","0.0-13.0-9.0-1.2","66413abd57f96e210a9cfe13","6796e1c0ff24ca17c453c51c","67c6ab41247e39ec2d4f23a5","passed","","1317","","","","","","","","","","","","","","j","yesOrNo_prac","","","","5","","","far gt","3000","","","",""
"","","","","","instructions","59","391906","0.0-14.0","66413abd57f96e210a9cfe13","6796e1c0ff24ca17c453c51c","67c6ab41247e39ec2d4f23a5","passed","[{""page_index"":0,""viewing_time"":5467}]","5467","","","","","","","","","","","","","","","","","","","","","","","","","","",""
"","","","","","html-keyboard-response","60","393979","0.0-15.0","66413abd57f96e210a9cfe13","6796e1c0ff24ca17c453c51c","67c6ab41247e39ec2d4f23a5","passed","","2072","","","","","","","","","","","","","<p><span style=""font-size:40px;"">BLOCK 1</span></p><p><span style=""font-size:25px;"">You have <b style=""color: #FF644F;""><strong>0.7 second(s)</strong></b> to respond to the following trials.</span><br></p><p></p> <!-- Blank line -->
                <p id=""blinking-text"" style=""font-weight; animation: blink 2s infinite;"">Press Space to continue</p>
                <style>
                    @keyframes blink {
                        50% {
                            opacity: 0;
                        }
                    }
                </style></p>"," ","","","","","","","","","","","","",""
"","","","","","html-keyboard-response","61","395631","0.0-16.0-0.0","66413abd57f96e210a9cfe13","6796e1c0ff24ca17c453c51c","67c6ab41247e39ec2d4f23a5","passed","","","","","","","","","","","","","","","","","ballFalling","500","479.92114317029973","330.87","6","fallScene","false","","","","1","",""
"","","","","","html-keyboard-response","62","396332","0.0-16.0-1.0","66413abd57f96e210a9cfe13","6796e1c0ff24ca17c453c51c","67c6ab41247e39ec2d4f23a5","passed","","627","","","","","","","","","","","","","","j","yesOrNo","","","","6","","","lp","700","","1","499","189.92909825697632"
"","","","","","html-keyboard-response","63","397899","0.0-16.0-0.1","66413abd57f96e210a9cfe13","6796e1c0ff24ca17c453c51c","67c6ab41247e39ec2d4f23a5","passed","","","","","","","","","","","","","","","","","ballFalling","604.4000000000001","575.4211431702997","266.76","12","fallScene","true","","","","2","",""
"","","","","","html-keyboard-response","64","398602","0.0-16.0-1.1","66413abd57f96e210a9cfe13","6796e1c0ff24ca17c453c51c","67c6ab41247e39ec2d4f23a5","passed","","614","","","","","","","","","","","","","","f","yesOrNo","","","","12","","","mid","700","","2","536.4288568297004","300"
"","","","","","html-keyboard-response","65","400168","0.0-16.0-0.2","66413abd57f96e210a9cfe13","6796e1c0ff24ca17c453c51c","67c6ab41247e39ec2d4f23a5","passed","","","","","","","","","","","","","","","","","ballFalling","604.4000000000001","650.0211431702996","404.58000000000004","11","fallScene","true","","","","3","",""
"","","","","","html-keyboard-response","66","400870","0.0-16.0-1.2","66413abd57f96e210a9cfe13","6796e1c0ff24ca17c453c51c","67c6ab41247e39ec2d4f23a5","passed","","null","","","","","","","","","","","","","","null","yesOrNo","","","","11","","","lp","700","","3","605.4000000000001","372.6340973215488"
"","","","","","html-keyboard-response","67","402370","0.0-16.0-0.3","66413abd57f96e210a9cfe13","6796e1c0ff24ca17c453c51c","67c6ab41247e39ec2d4f23a5","passed","","","","","","","","","","","","","","","","","ballFalling","604.4000000000001","667.6211431702998","201.78","9","fallScene","false","","","","4","",""
"","","","","","html-keyboard-response","68","403071","0.0-16.0-1.3","66413abd57f96e210a9cfe13","6796e1c0ff24ca17c453c51c","67c6ab41247e39ec2d4f23a5","passed","","617","","","","","","","","","","","","","","j","yesOrNo","","","","9","","","mid","700","","4","605.4000000000001","300"
"","","","","","html-keyboard-response","69","404655","0.0-16.0-0.4","66413abd57f96e210a9cfe13","6796e1c0ff24ca17c453c51c","67c6ab41247e39ec2d4f23a5","passed","","","","","","","","","","","","","","","","","ballFalling","500","553.4711431702997","282.51","7","fallScene","false","","","","5","",""
"","","","","","html-keyboard-response","70","405357","0.0-16.0-1.4","66413abd57f96e210a9cfe13","6796e1c0ff24ca17c453c51c","67c6ab41247e39ec2d4f23a5","passed","","null","","","","","","","","","","","","","","null","yesOrNo","","","","7","","","gt","700","","5","553.4711431702997","282.51"
"","","","","","html-keyboard-response","71","406857","0.0-16.0-0.5","66413abd57f96e210a9cfe13","6796e1c0ff24ca17c453c51c","67c6ab41247e39ec2d4f23a5","passed","","","","","","","","","","","","","","","","","ballFalling","604.4000000000001","667.6211431702998","201.78","9","fallScene","false","","","","6","",""
"","","","","","html-keyboard-response","72","407559","0.0-16.0-1.5","66413abd57f96e210a9cfe13","6796e1c0ff24ca17c453c51c","67c6ab41247e39ec2d4f23a5","passed","","null","","","","","","","","","","","","","","null","yesOrNo","","","","9","","","gt","700","","6","667.6211431702998","201.78"
"","","","","","html-keyboard-response","73","409126","0.0-16.0-0.6","66413abd57f96e210a9cfe13","6796e1c0ff24ca17c453c51c","67c6ab41247e39ec2d4f23a5","passed","","","","","","","","","","","","","","","","","ballFalling","322.3","379.3711431702997","245.25","1","fallScene","false","","","","7","",""
"","","","","","html-keyboard-response","74","409827","0.0-16.0-1.6","66413abd57f96e210a9cfe13","6796e1c0ff24ca17c453c51c","67c6ab41247e39ec2d4f23a5","passed","","421","","","","","","","","","","","","","","f","yesOrNo","","","","1","","","lp","700","","7","323.3","217.74551669457017"
"","","","","","html-keyboard-response","75","411394","0.0-16.0-0.7","66413abd57f96e210a9cfe13","6796e1c0ff24ca17c453c51c","67c6ab41247e39ec2d4f23a5","passed","","","","","","","","","","","","","","","","","ballFalling","322.3","296.07114317029976","371.46","3","fallScene","false","","","","8","",""
"","","","","","html-keyboard-response","76","412095","0.0-16.0-1.7","66413abd57f96e210a9cfe13","6796e1c0ff24ca17c453c51c","67c6ab41247e39ec2d4f23a5","passed","","488","","","","","","","","","","","","","","j","yesOrNo","","","","3","","","lp","700","","8","321.3","287.3327096511259"
"","","","","","html-keyboard-response","77","413679","0.0-16.0-0.8","66413abd57f96e210a9cfe13","6796e1c0ff24ca17c453c51c","67c6ab41247e39ec2d4f23a5","passed","","","","","","","","","","","","","","","","","ballFalling","500","553.4711431702997","282.51","7","fallScene","true","","","","9","",""
"","","","","","html-keyboard-response","78","414380","0.0-16.0-1.8","66413abd57f96e210a9cfe13","6796e1c0ff24ca17c453c51c","67c6ab41247e39ec2d4f23a5","passed","","619","","","","","","","","","","","","","","j","yesOrNo","","","","7","","","lp","700","","9","501","227.2843295913261"
"","","","","","html-keyboard-response","79","416398","0.0-16.0-0.9","66413abd57f96e210a9cfe13","6796e1c0ff24ca17c453c51c","67c6ab41247e39ec2d4f23a5","passed","","","","","","","","","","","","","","","","","ballFalling","500","510.8711431702997","369.03","8","fallScene","true","","","","10","",""
"","","","","","html-keyboard-response","80","417099","0.0-16.0-1.9","66413abd57f96e210a9cfe13","6796e1c0ff24ca17c453c51c","67c6ab41247e39ec2d4f23a5","passed","","589","","","","","","","","","","","","","","f","yesOrNo","","","","8","","","gt","700","","10","510.8711431702997","369.03"
"","","","","","html-keyboard-response","81","418666","0.0-16.0-0.10","66413abd57f96e210a9cfe13","6796e1c0ff24ca17c453c51c","67c6ab41247e39ec2d4f23a5","passed","","","","","","","","","","","","","","","","","ballFalling","604.4000000000001","575.4211431702997","266.76","12","fallScene","true","","","","11","",""
"","","","","","html-keyboard-response","82","419369","0.0-16.0-1.10","66413abd57f96e210a9cfe13","6796e1c0ff24ca17c453c51c","67c6ab41247e39ec2d4f23a5","passed","","null","","","","","","","","","","","","","","null","yesOrNo","","","","12","","","lp","700","","11","603.4000000000001","151"
"","","","","","html-keyboard-response","83","420935","0.0-16.0-0.11","66413abd57f96e210a9cfe13","6796e1c0ff24ca17c453c51c","67c6ab41247e39ec2d4f23a5","passed","","","","","","","","","","","","","","","","","ballFalling","322.3","379.3711431702997","245.25","1","fallScene","false","","","","12","",""
"","","","","","html-keyboard-response","84","421637","0.0-16.0-1.11","66413abd57f96e210a9cfe13","6796e1c0ff24ca17c453c51c","67c6ab41247e39ec2d4f23a5","passed","","603","","","","","","","","","","","","","","j","yesOrNo","","","","1","","","lp","700","","12","323.3","217.74551669457017"
"","","","","","html-keyboard-response","85","423220","0.0-16.0-0.12","66413abd57f96e210a9cfe13","6796e1c0ff24ca17c453c51c","67c6ab41247e39ec2d4f23a5","passed","","","","","","","","","","","","","","","","","ballFalling","500","553.4711431702997","282.51","7","fallScene","false","","","","13","",""
"","","","","","html-keyboard-response","86","423922","0.0-16.0-1.12","66413abd57f96e210a9cfe13","6796e1c0ff24ca17c453c51c","67c6ab41247e39ec2d4f23a5","passed","","null","","","","","","","","","","","","","","null","yesOrNo","","","","7","","","gt","700","","13","553.4711431702997","282.51"
"","","","","","html-keyboard-response","87","425505","0.0-16.0-0.13","66413abd57f96e210a9cfe13","6796e1c0ff24ca17c453c51c","67c6ab41247e39ec2d4f23a5","passed","","","","","","","","","","","","","","","","","ballFalling","500","553.4711431702997","282.51","7","fallScene","false","","","","14","",""
"","","","","","html-keyboard-response","88","426206","0.0-16.0-1.13","66413abd57f96e210a9cfe13","6796e1c0ff24ca17c453c51c","67c6ab41247e39ec2d4f23a5","passed","","530","","","","","","","","","","","","","","f","yesOrNo","","","","7","","","lp","700","","14","501","227.2843295913261"
"","","","","","html-keyboard-response","89","428007","0.0-16.0-0.14","66413abd57f96e210a9cfe13","6796e1c0ff24ca17c453c51c","67c6ab41247e39ec2d4f23a5","passed","","","","","","","","","","","","","","","","","ballFalling","322.3","308.07114317029976","253.89","2","fallScene","false","","","","15","",""
"","","","","","html-keyboard-response","90","428708","0.0-16.0-1.14","66413abd57f96e210a9cfe13","6796e1c0ff24ca17c453c51c","67c6ab41247e39ec2d4f23a5","passed","","491","","","","","","","","","","","","","","j","yesOrNo","","","","2","","","mid","700","","15","321.3","300"
"","","","","","html-keyboard-response","91","430275","0.0-16.0-0.15","66413abd57f96e210a9cfe13","6796e1c0ff24ca17c453c51c","67c6ab41247e39ec2d4f23a5","passed","","","","","","","","","","","","","","","","","ballFalling","322.3","379.3711431702997","245.25","1","fallScene","false","","","","16","",""
"","","","","","html-keyboard-response","92","430977","0.0-16.0-1.15","66413abd57f96e210a9cfe13","6796e1c0ff24ca17c453c51c","67c6ab41247e39ec2d4f23a5","passed","","495","","","","","","","","","","","","","","f","yesOrNo","","","","1","","","mid","700","","16","390.27114317029975","300"
"","","","","","html-keyboard-response","93","432544","0.0-16.0-0.16","66413abd57f96e210a9cfe13","6796e1c0ff24ca17c453c51c","67c6ab41247e39ec2d4f23a5","passed","","","","","","","","","","","","","","","","","ballFalling","322.3","296.07114317029976","371.46","3","fallScene","true","","","","17","",""
"","","","","","html-keyboard-response","94","433246","0.0-16.0-1.16","66413abd57f96e210a9cfe13","6796e1c0ff24ca17c453c51c","67c6ab41247e39ec2d4f23a5","passed","","null","","","","","","","","","","","","","","null","yesOrNo","","","","3","","","gt","700","","17","296.07114317029976","371.46"
"","","","","","html-keyboard-response","95","434813","0.0-16.0-0.17","66413abd57f96e210a9cfe13","6796e1c0ff24ca17c453c51c","67c6ab41247e39ec2d4f23a5","passed","","","","","","","","","","","","","","","","","ballFalling","604.4000000000001","575.4211431702997","266.76","12","fallScene","true","","","","18","",""
"","","","","","html-keyboard-response","96","435514","0.0-16.0-1.17","66413abd57f96e210a9cfe13","6796e1c0ff24ca17c453c51c","67c6ab41247e39ec2d4f23a5","passed","","629","","","","","","","","","","","","","","f","yesOrNo","","","","12","","","mid","700","","18","536.4288568297004","300"
"","","","","","html-keyboard-response","97","437531","0.0-16.0-0.18","66413abd57f96e210a9cfe13","6796e1c0ff24ca17c453c51c","67c6ab41247e39ec2d4f23a5","passed","","","","","","","","","","","","","","","","","ballFalling","604.4000000000001","596.8711431702998","394.5","10","fallScene","true","","","","19","",""
"","","","","","html-keyboard-response","98","438232","0.0-16.0-1.18","66413abd57f96e210a9cfe13","6796e1c0ff24ca17c453c51c","67c6ab41247e39ec2d4f23a5","passed","","456","","","","","","","","","","","","","","j","yesOrNo","","","","10","","","lp","700","","19","603.4000000000001","215.50214355555383"
"","","","","","html-keyboard-response","99","439817","0.0-16.0-0.19","66413abd57f96e210a9cfe13","6796e1c0ff24ca17c453c51c","67c6ab41247e39ec2d4f23a5","passed","","","","","","","","","","","","","","","","","ballFalling","500","553.4711431702997","282.51","7","fallScene","false","","","","20","",""
"","","","","","html-keyboard-response","100","440518","0.0-16.0-1.19","66413abd57f96e210a9cfe13","6796e1c0ff24ca17c453c51c","67c6ab41247e39ec2d4f23a5","passed","","402","","","","","","","","","","","","","","j","yesOrNo","","","","7","","","mid","700","","20","501","300"
"","","","","","html-keyboard-response","101","442085","0.0-16.0-0.20","66413abd57f96e210a9cfe13","6796e1c0ff24ca17c453c51c","67c6ab41247e39ec2d4f23a5","passed","","","","","","","","","","","","","","","","","ballFalling","500","453.67114317029973","210.33","5","fallScene","false","","","","21","",""
"","","","","","html-keyboard-response","102","442787","0.0-16.0-1.20","66413abd57f96e210a9cfe13","6796e1c0ff24ca17c453c51c","67c6ab41247e39ec2d4f23a5","passed","","573","","","","","","","","","","","","","","f","yesOrNo","","","","5","","","gt","700","","21","453.6711431702998","210.33"
"","","","","","html-keyboard-response","103","444354","0.0-16.0-0.21","66413abd57f96e210a9cfe13","6796e1c0ff24ca17c453c51c","67c6ab41247e39ec2d4f23a5","passed","","","","","","","","","","","","","","","","","ballFalling","604.4000000000001","650.0211431702996","404.58000000000004","11","fallScene","true","","","","22","",""
"","","","","","html-keyboard-response","104","445056","0.0-16.0-1.21","66413abd57f96e210a9cfe13","6796e1c0ff24ca17c453c51c","67c6ab41247e39ec2d4f23a5","passed","","601","","","","","","","","","","","","","","j","yesOrNo","","","","11","","","mid","700","","22","605.4000000000001","300"
"","","","","","html-keyboard-response","105","447072","0.0-16.0-0.22","66413abd57f96e210a9cfe13","6796e1c0ff24ca17c453c51c","67c6ab41247e39ec2d4f23a5","passed","","","","","","","","","","","","","","","","","ballFalling","500","510.8711431702997","369.03","8","fallScene","false","","","","23","",""
"","","","","","html-keyboard-response","106","447775","0.0-16.0-1.22","66413abd57f96e210a9cfe13","6796e1c0ff24ca17c453c51c","67c6ab41247e39ec2d4f23a5","passed","","658","","","","","","","","","","","","","","j","yesOrNo","","","","8","","","lp","700","","23","501","151"
"","","","","","html-keyboard-response","107","449791","0.0-16.0-0.23","66413abd57f96e210a9cfe13","6796e1c0ff24ca17c453c51c","67c6ab41247e39ec2d4f23a5","passed","","","","","","","","","","","","","","","","","ballFalling","604.4000000000001","596.8711431702998","394.5","10","fallScene","true","","","","24","",""
"","","","","","html-keyboard-response","108","450494","0.0-16.0-1.23","66413abd57f96e210a9cfe13","6796e1c0ff24ca17c453c51c","67c6ab41247e39ec2d4f23a5","passed","","null","","","","","","","","","","","","","","null","yesOrNo","","","","10","","","gt","700","","24","596.8711431702998","394.5"
"","","","","","html-keyboard-response","109","451475","0.0-17.0","66413abd57f96e210a9cfe13","6796e1c0ff24ca17c453c51c","67c6ab41247e39ec2d4f23a5","passed","","981","","","","","","","","","","","","","<p><span style=""font-size:40px;"">BLOCK 2</span></p><p><span style=""font-size:25px;"">You have <b style=""color: #FF644F;""><strong>3 second(s)</strong></b> to respond to the following trials.</span><br></p><p></p> <!-- Blank line -->
                <p id=""blinking-text"" style=""font-weight; animation: blink 2s infinite;"">Press Space to continue</p>
                <style>
                    @keyframes blink {
                        50% {
                            opacity: 0;
                        }
                    }
                </style></p>"," ","","","","","","","","","","","","",""
"","","","","","html-keyboard-response","110","453027","0.0-18.0-0.0","66413abd57f96e210a9cfe13","6796e1c0ff24ca17c453c51c","67c6ab41247e39ec2d4f23a5","passed","","","","","","","","","","","","","","","","","ballFalling","604.4000000000001","575.4211431702997","266.76","12","fallScene","true","","","","25","",""
"","","","","","html-keyboard-response","111","456030","0.0-18.0-1.0","66413abd57f96e210a9cfe13","6796e1c0ff24ca17c453c51c","67c6ab41247e39ec2d4f23a5","passed","","783","","","","","","","","","","","","","","f","yesOrNo","","","","12","","","mid","3000","","25","536.4288568297004","300"
"","","","","","html-keyboard-response","112","458031","0.0-18.0-0.1","66413abd57f96e210a9cfe13","6796e1c0ff24ca17c453c51c","67c6ab41247e39ec2d4f23a5","passed","","","","","","","","","","","","","","","","","ballFalling","604.4000000000001","596.8711431702998","394.5","10","fallScene","false","","","","26","",""
"","","","","","html-keyboard-response","113","461034","0.0-18.0-1.1","66413abd57f96e210a9cfe13","6796e1c0ff24ca17c453c51c","67c6ab41247e39ec2d4f23a5","passed","","683","","","","","","","","","","","","","","f","yesOrNo","","","","10","","","mid","3000","","26","536.4288568297004","300"
"","","","","","html-keyboard-response","114","462585","0.0-18.0-0.2","66413abd57f96e210a9cfe13","6796e1c0ff24ca17c453c51c","67c6ab41247e39ec2d4f23a5","passed","","","","","","","","","","","","","","","","","ballFalling","604.4000000000001","575.4211431702997","266.76","12","fallScene","true","","","","27","",""
"","","","","","html-keyboard-response","115","465588","0.0-18.0-1.2","66413abd57f96e210a9cfe13","6796e1c0ff24ca17c453c51c","67c6ab41247e39ec2d4f23a5","passed","","953","","","","","","","","","","","","","","j","yesOrNo","","","","12","","","lp","3000","","27","603.4000000000001","151"
"","","","","","html-keyboard-response","116","467139","0.0-18.0-0.3","66413abd57f96e210a9cfe13","6796e1c0ff24ca17c453c51c","67c6ab41247e39ec2d4f23a5","passed","","","","","","","","","","","","","","","","","ballFalling","604.4000000000001","650.0211431702996","404.58000000000004","11","fallScene","false","","","","28","",""
"","","","","","html-keyboard-response","117","470141","0.0-18.0-1.3","66413abd57f96e210a9cfe13","6796e1c0ff24ca17c453c51c","67c6ab41247e39ec2d4f23a5","passed","","887","","","","","","","","","","","","","","j","yesOrNo","","","","11","","","mid","3000","","28","605.4000000000001","300"
"","","","","","html-keyboard-response","118","471693","0.0-18.0-0.4","66413abd57f96e210a9cfe13","6796e1c0ff24ca17c453c51c","67c6ab41247e39ec2d4f23a5","passed","","","","","","","","","","","","","","","","","ballFalling","322.3","379.3711431702997","245.25","1","fallScene","true","","","","29","",""
"","","","","","html-keyboard-response","119","474695","0.0-18.0-1.4","66413abd57f96e210a9cfe13","6796e1c0ff24ca17c453c51c","67c6ab41247e39ec2d4f23a5","passed","","2014","","","","","","","","","","","","","","j","yesOrNo","","","","1","","","gt","3000","","29","379.3711431702997","245.25"
"","","","","","html-keyboard-response","120","476246","0.0-18.0-0.5","66413abd57f96e210a9cfe13","6796e1c0ff24ca17c453c51c","67c6ab41247e39ec2d4f23a5","passed","","","","","","","","","","","","","","","","","ballFalling","604.4000000000001","650.0211431702996","404.58000000000004","11","fallScene","true","","","","30","",""
"","","","","","html-keyboard-response","121","479249","0.0-18.0-1.5","66413abd57f96e210a9cfe13","6796e1c0ff24ca17c453c51c","67c6ab41247e39ec2d4f23a5","passed","","1012","","","","","","","","","","","","","","j","yesOrNo","","","","11","","","mid","3000","","30","605.4000000000001","300"
"","","","","","html-keyboard-response","122","480800","0.0-18.0-0.6","66413abd57f96e210a9cfe13","6796e1c0ff24ca17c453c51c","67c6ab41247e39ec2d4f23a5","passed","","","","","","","","","","","","","","","","","ballFalling","500","453.67114317029973","210.33","5","fallScene","true","","","","31","",""
"","","","","","html-keyboard-response","123","483802","0.0-18.0-1.6","66413abd57f96e210a9cfe13","6796e1c0ff24ca17c453c51c","67c6ab41247e39ec2d4f23a5","passed","","1650","","","","","","","","","","","","","","j","yesOrNo","","","","5","","","mid","3000","","31","499","300"
"","","","","","html-keyboard-response","124","485354","0.0-18.0-0.7","66413abd57f96e210a9cfe13","6796e1c0ff24ca17c453c51c","67c6ab41247e39ec2d4f23a5","passed","","","","","","","","","","","","","","","","","ballFalling","604.4000000000001","650.0211431702996","404.58000000000004","11","fallScene","true","","","","32","",""
"","","","","","html-keyboard-response","125","488356","0.0-18.0-1.7","66413abd57f96e210a9cfe13","6796e1c0ff24ca17c453c51c","67c6ab41247e39ec2d4f23a5","passed","","793","","","","","","","","","","","","","","f","yesOrNo","","","","11","","","gt","3000","","32","650.0211431702996","404.58"
"","","","","","html-keyboard-response","126","489907","0.0-18.0-0.8","66413abd57f96e210a9cfe13","6796e1c0ff24ca17c453c51c","67c6ab41247e39ec2d4f23a5","passed","","","","","","","","","","","","","","","","","ballFalling","322.3","296.07114317029976","371.46","3","fallScene","true","","","","33","",""
"","","","","","html-keyboard-response","127","492910","0.0-18.0-1.8","66413abd57f96e210a9cfe13","6796e1c0ff24ca17c453c51c","67c6ab41247e39ec2d4f23a5","passed","","1079","","","","","","","","","","","","","","j","yesOrNo","","","","3","","","lp","3000","","33","321.3","287.3327096511259"
"","","","","","html-keyboard-response","128","494461","0.0-18.0-0.9","66413abd57f96e210a9cfe13","6796e1c0ff24ca17c453c51c","67c6ab41247e39ec2d4f23a5","passed","","","","","","","","","","","","","","","","","ballFalling","322.3","296.07114317029976","371.46","3","fallScene","true","","","","34","",""
"","","","","","html-keyboard-response","129","497463","0.0-18.0-1.9","66413abd57f96e210a9cfe13","6796e1c0ff24ca17c453c51c","67c6ab41247e39ec2d4f23a5","passed","","910","","","","","","","","","","","","","","j","yesOrNo","","","","3","","","mid","3000","","34","321.3","300"
"","","","","","html-keyboard-response","130","499015","0.0-18.0-0.10","66413abd57f96e210a9cfe13","6796e1c0ff24ca17c453c51c","67c6ab41247e39ec2d4f23a5","passed","","","","","","","","","","","","","","","","","ballFalling","322.3","356.42114317029973","357.87","4","fallScene","false","","","","35","",""
"","","","","","html-keyboard-response","131","502017","0.0-18.0-1.10","66413abd57f96e210a9cfe13","6796e1c0ff24ca17c453c51c","67c6ab41247e39ec2d4f23a5","passed","","612","","","","","","","","","","","","","","f","yesOrNo","","","","4","","","lp","3000","","35","323.3","297.4070551689986"
"","","","","","html-keyboard-response","132","503568","0.0-18.0-0.11","66413abd57f96e210a9cfe13","6796e1c0ff24ca17c453c51c","67c6ab41247e39ec2d4f23a5","passed","","","","","","","","","","","","","","","","","ballFalling","500","453.67114317029973","210.33","5","fallScene","true","","","","36","",""
"","","","","","html-keyboard-response","133","506571","0.0-18.0-1.11","66413abd57f96e210a9cfe13","6796e1c0ff24ca17c453c51c","67c6ab41247e39ec2d4f23a5","passed","","954","","","","","","","","","","","","","","j","yesOrNo","","","","5","","","lp","3000","","36","499","151"
"","","","","","html-keyboard-response","134","508122","0.0-18.0-0.12","66413abd57f96e210a9cfe13","6796e1c0ff24ca17c453c51c","67c6ab41247e39ec2d4f23a5","passed","","","","","","","","","","","","","","","","","ballFalling","604.4000000000001","650.0211431702996","404.58000000000004","11","fallScene","true","","","","37","",""
"","","","","","html-keyboard-response","135","511124","0.0-18.0-1.12","66413abd57f96e210a9cfe13","6796e1c0ff24ca17c453c51c","67c6ab41247e39ec2d4f23a5","passed","","1809","","","","","","","","","","","","","","j","yesOrNo","","","","11","","","gt","3000","","37","650.0211431702996","404.58"
"","","","","","html-keyboard-response","136","512676","0.0-18.0-0.13","66413abd57f96e210a9cfe13","6796e1c0ff24ca17c453c51c","67c6ab41247e39ec2d4f23a5","passed","","","","","","","","","","","","","","","","","ballFalling","604.4000000000001","575.4211431702997","266.76","12","fallScene","false","","","","38","",""
"","","","","","html-keyboard-response","137","515678","0.0-18.0-1.13","66413abd57f96e210a9cfe13","6796e1c0ff24ca17c453c51c","67c6ab41247e39ec2d4f23a5","passed","","895","","","","","","","","","","","","","","f","yesOrNo","","","","12","","","mid","3000","","38","536.4288568297004","300"
"","","","","","html-keyboard-response","138","517163","0.0-18.0-0.14","66413abd57f96e210a9cfe13","6796e1c0ff24ca17c453c51c","67c6ab41247e39ec2d4f23a5","passed","","","","","","","","","","","","","","","","","ballFalling","604.4000000000001","667.6211431702998","201.78","9","fallScene","true","","","","39","",""
"","","","","","html-keyboard-response","139","520165","0.0-18.0-1.14","66413abd57f96e210a9cfe13","6796e1c0ff24ca17c453c51c","67c6ab41247e39ec2d4f23a5","passed","","1360","","","","","","","","","","","","","","f","yesOrNo","","","","9","","","lp","3000","","39","605.4000000000001","151"
"","","","","","html-keyboard-response","140","521716","0.0-18.0-0.15","66413abd57f96e210a9cfe13","6796e1c0ff24ca17c453c51c","67c6ab41247e39ec2d4f23a5","passed","","","","","","","","","","","","","","","","","ballFalling","322.3","356.42114317029973","357.87","4","fallScene","true","","","","40","",""
"","","","","","html-keyboard-response","141","524719","0.0-18.0-1.15","66413abd57f96e210a9cfe13","6796e1c0ff24ca17c453c51c","67c6ab41247e39ec2d4f23a5","passed","","895","","","","","","","","","","","","","","f","yesOrNo","","","","4","","","mid","3000","","40","390.27114317029975","300"
"","","","","","html-keyboard-response","142","526270","0.0-18.0-0.16","66413abd57f96e210a9cfe13","6796e1c0ff24ca17c453c51c","67c6ab41247e39ec2d4f23a5","passed","","","","","","","","","","","","","","","","","ballFalling","322.3","379.3711431702997","245.25","1","fallScene","true","","","","41","",""
"","","","","","html-keyboard-response","143","529271","0.0-18.0-1.16","66413abd57f96e210a9cfe13","6796e1c0ff24ca17c453c51c","67c6ab41247e39ec2d4f23a5","passed","","804","","","","","","","","","","","","","","j","yesOrNo","","","","1","","","gt","3000","","41","379.3711431702997","245.25"
"","","","","","html-keyboard-response","144","530924","0.0-18.0-0.17","66413abd57f96e210a9cfe13","6796e1c0ff24ca17c453c51c","67c6ab41247e39ec2d4f23a5","passed","","","","","","","","","","","","","","","","","ballFalling","500","479.92114317029973","330.87","6","fallScene","false","","","","42","",""
"","","","","","html-keyboard-response","145","533926","0.0-18.0-1.17","66413abd57f96e210a9cfe13","6796e1c0ff24ca17c453c51c","67c6ab41247e39ec2d4f23a5","passed","","959","","","","","","","","","","","","","","j","yesOrNo","","","","6","","","mid","3000","","42","499","300"
"","","","","","html-keyboard-response","146","535494","0.0-18.0-0.18","66413abd57f96e210a9cfe13","6796e1c0ff24ca17c453c51c","67c6ab41247e39ec2d4f23a5","passed","","","","","","","","","","","","","","","","","ballFalling","500","553.4711431702997","282.51","7","fallScene","true","","","","43","",""
"","","","","","html-keyboard-response","147","538497","0.0-18.0-1.18","66413abd57f96e210a9cfe13","6796e1c0ff24ca17c453c51c","67c6ab41247e39ec2d4f23a5","passed","","1629","","","","","","","","","","","","","","j","yesOrNo","","","","7","","","mid","3000","","43","501","300"
"","","","","","html-keyboard-response","148","540498","0.0-18.0-0.19","66413abd57f96e210a9cfe13","6796e1c0ff24ca17c453c51c","67c6ab41247e39ec2d4f23a5","passed","","","","","","","","","","","","","","","","","ballFalling","604.4000000000001","596.8711431702998","394.5","10","fallScene","false","","","","44","",""
"","","","","","html-keyboard-response","149","543501","0.0-18.0-1.19","66413abd57f96e210a9cfe13","6796e1c0ff24ca17c453c51c","67c6ab41247e39ec2d4f23a5","passed","","1224","","","","","","","","","","","","","","f","yesOrNo","","","","10","","","lp","3000","","44","603.4000000000001","215.50214355555383"
"","","","","","html-keyboard-response","150","544985","0.0-18.0-0.20","66413abd57f96e210a9cfe13","6796e1c0ff24ca17c453c51c","67c6ab41247e39ec2d4f23a5","passed","","","","","","","","","","","","","","","","","ballFalling","604.4000000000001","667.6211431702998","201.78","9","fallScene","true","","","","45","",""
"","","","","","html-keyboard-response","151","547988","0.0-18.0-1.20","66413abd57f96e210a9cfe13","6796e1c0ff24ca17c453c51c","67c6ab41247e39ec2d4f23a5","passed","","1562","","","","","","","","","","","","","","f","yesOrNo","","","","9","","","mid","3000","","45","605.4000000000001","300"
"","","","","","html-keyboard-response","152","549989","0.0-18.0-0.21","66413abd57f96e210a9cfe13","6796e1c0ff24ca17c453c51c","67c6ab41247e39ec2d4f23a5","passed","","","","","","","","","","","","","","","","","ballFalling","604.4000000000001","596.8711431702998","394.5","10","fallScene","false","","","","46","",""
"","","","","","html-keyboard-response","153","552992","0.0-18.0-1.21","66413abd57f96e210a9cfe13","6796e1c0ff24ca17c453c51c","67c6ab41247e39ec2d4f23a5","passed","","1486","","","","","","","","","","","","","","j","yesOrNo","","","","10","","","gt","3000","","46","596.8711431702998","394.5"
"","","","","","html-keyboard-response","154","554543","0.0-18.0-0.22","66413abd57f96e210a9cfe13","6796e1c0ff24ca17c453c51c","67c6ab41247e39ec2d4f23a5","passed","","","","","","","","","","","","","","","","","ballFalling","322.3","356.42114317029973","357.87","4","fallScene","true","","","","47","",""
"","","","","","html-keyboard-response","155","557545","0.0-18.0-1.22","66413abd57f96e210a9cfe13","6796e1c0ff24ca17c453c51c","67c6ab41247e39ec2d4f23a5","passed","","1796","","","","","","","","","","","","","","j","yesOrNo","","","","4","","","mid","3000","","47","390.27114317029975","300"
"","","","","","html-keyboard-response","156","559097","0.0-18.0-0.23","66413abd57f96e210a9cfe13","6796e1c0ff24ca17c453c51c","67c6ab41247e39ec2d4f23a5","passed","","","","","","","","","","","","","","","","","ballFalling","500","453.67114317029973","210.33","5","fallScene","false","","","","48","",""
"","","","","","html-keyboard-response","157","562099","0.0-18.0-1.23","66413abd57f96e210a9cfe13","6796e1c0ff24ca17c453c51c","67c6ab41247e39ec2d4f23a5","passed","","618","","","","","","","","","","","","","","j","yesOrNo","","","","5","","","gt","3000","","48","453.6711431702998","210.33"
"","","","","","html-keyboard-response","158","564148","0.0-19.0","66413abd57f96e210a9cfe13","6796e1c0ff24ca17c453c51c","67c6ab41247e39ec2d4f23a5","passed","","2049","","","","","","","","","","","","","<p><span style=""font-size:40px;"">BLOCK 3</span></p><p><span style=""font-size:25px;"">You have <b style=""color: #FF644F;""><strong>0.7 second(s)</strong></b> to respond to the following trials.</span><br></p><p></p> <!-- Blank line -->
                <p id=""blinking-text"" style=""font-weight; animation: blink 2s infinite;"">Press Space to continue</p>
                <style>
                    @keyframes blink {
                        50% {
                            opacity: 0;
                        }
                    }
                </style></p>"," ","","","","","","","","","","","","",""
"","","","","","html-keyboard-response","159","565935","0.0-20.0-0.0","66413abd57f96e210a9cfe13","6796e1c0ff24ca17c453c51c","67c6ab41247e39ec2d4f23a5","passed","","","","","","","","","","","","","","","","","ballFalling","322.3","308.07114317029976","253.89","2","fallScene","true","","","","49","",""
"","","","","","html-keyboard-response","160","566638","0.0-20.0-1.0","66413abd57f96e210a9cfe13","6796e1c0ff24ca17c453c51c","67c6ab41247e39ec2d4f23a5","passed","","571","","","","","","","","","","","","","","f","yesOrNo","","","","2","","","gt","700","","49","308.07114317029976","253.89"
"","","","","","html-keyboard-response","161","568137","0.0-20.0-0.1","66413abd57f96e210a9cfe13","6796e1c0ff24ca17c453c51c","67c6ab41247e39ec2d4f23a5","passed","","","","","","","","","","","","","","","","","ballFalling","604.4000000000001","667.6211431702998","201.78","9","fallScene","true","","","","50","",""
"","","","","","html-keyboard-response","162","568839","0.0-20.0-1.1","66413abd57f96e210a9cfe13","6796e1c0ff24ca17c453c51c","67c6ab41247e39ec2d4f23a5","passed","","682","","","","","","","","","","","","","","j","yesOrNo","","","","9","","","gt","700","","50","667.6211431702998","201.78"
"","","","","","html-keyboard-response","163","570506","0.0-20.0-0.2","66413abd57f96e210a9cfe13","6796e1c0ff24ca17c453c51c","67c6ab41247e39ec2d4f23a5","passed","","","","","","","","","","","","","","","","","ballFalling","500","479.92114317029973","330.87","6","fallScene","true","","","","51","",""
"","","","","","html-keyboard-response","164","571208","0.0-20.0-1.2","66413abd57f96e210a9cfe13","6796e1c0ff24ca17c453c51c","67c6ab41247e39ec2d4f23a5","passed","","505","","","","","","","","","","","","","","f","yesOrNo","","","","6","","","gt","700","","51","479.9211431702998","330.87"
"","","","","","html-keyboard-response","165","572774","0.0-20.0-0.3","66413abd57f96e210a9cfe13","6796e1c0ff24ca17c453c51c","67c6ab41247e39ec2d4f23a5","passed","","","","","","","","","","","","","","","","","ballFalling","322.3","296.07114317029976","371.46","3","fallScene","true","","","","52","",""
"","","","","","html-keyboard-response","166","573476","0.0-20.0-1.3","66413abd57f96e210a9cfe13","6796e1c0ff24ca17c453c51c","67c6ab41247e39ec2d4f23a5","passed","","372","","","","","","","","","","","","","","j","yesOrNo","","","","3","","","gt","700","","52","296.07114317029976","371.46"
"","","","","","html-keyboard-response","167","575493","0.0-20.0-0.4","66413abd57f96e210a9cfe13","6796e1c0ff24ca17c453c51c","67c6ab41247e39ec2d4f23a5","passed","","","","","","","","","","","","","","","","","ballFalling","604.4000000000001","596.8711431702998","394.5","10","fallScene","false","","","","53","",""
"","","","","","html-keyboard-response","168","576194","0.0-20.0-1.4","66413abd57f96e210a9cfe13","6796e1c0ff24ca17c453c51c","67c6ab41247e39ec2d4f23a5","passed","","486","","","","","","","","","","","","","","j","yesOrNo","","","","10","","","gt","700","","53","596.8711431702998","394.5"
"","","","","","html-keyboard-response","169","577995","0.0-20.0-0.5","66413abd57f96e210a9cfe13","6796e1c0ff24ca17c453c51c","67c6ab41247e39ec2d4f23a5","passed","","","","","","","","","","","","","","","","","ballFalling","322.3","308.07114317029976","253.89","2","fallScene","true","","","","54","",""
"","","","","","html-keyboard-response","170","578698","0.0-20.0-1.5","66413abd57f96e210a9cfe13","6796e1c0ff24ca17c453c51c","67c6ab41247e39ec2d4f23a5","passed","","null","","","","","","","","","","","","","","null","yesOrNo","","","","2","","","lp","700","","54","321.3","151"
"","","","","","html-keyboard-response","171","580364","0.0-20.0-0.6","66413abd57f96e210a9cfe13","6796e1c0ff24ca17c453c51c","67c6ab41247e39ec2d4f23a5","passed","","","","","","","","","","","","","","","","","ballFalling","500","479.92114317029973","330.87","6","fallScene","false","","","","55","",""
"","","","","","html-keyboard-response","172","581065","0.0-20.0-1.6","66413abd57f96e210a9cfe13","6796e1c0ff24ca17c453c51c","67c6ab41247e39ec2d4f23a5","passed","","615","","","","","","","","","","","","","","j","yesOrNo","","","","6","","","mid","700","","55","499","300"
"","","","","","html-keyboard-response","173","582866","0.0-20.0-0.7","66413abd57f96e210a9cfe13","6796e1c0ff24ca17c453c51c","67c6ab41247e39ec2d4f23a5","passed","","","","","","","","","","","","","","","","","ballFalling","322.3","308.07114317029976","253.89","2","fallScene","false","","","","56","",""
"","","","","","html-keyboard-response","174","583567","0.0-20.0-1.7","66413abd57f96e210a9cfe13","6796e1c0ff24ca17c453c51c","67c6ab41247e39ec2d4f23a5","passed","","681","","","","","","","","","","","","","","j","yesOrNo","","","","2","","","mid","700","","56","321.3","300"
"","","","","","html-keyboard-response","175","585134","0.0-20.0-0.8","66413abd57f96e210a9cfe13","6796e1c0ff24ca17c453c51c","67c6ab41247e39ec2d4f23a5","passed","","","","","","","","","","","","","","","","","ballFalling","322.3","296.07114317029976","371.46","3","fallScene","false","","","","57","",""
"","","","","","html-keyboard-response","176","585837","0.0-20.0-1.8","66413abd57f96e210a9cfe13","6796e1c0ff24ca17c453c51c","67c6ab41247e39ec2d4f23a5","passed","","null","","","","","","","","","","","","","","null","yesOrNo","","","","3","","","mid","700","","57","321.3","300"
"","","","","","html-keyboard-response","177","587403","0.0-20.0-0.9","66413abd57f96e210a9cfe13","6796e1c0ff24ca17c453c51c","67c6ab41247e39ec2d4f23a5","passed","","","","","","","","","","","","","","","","","ballFalling","604.4000000000001","650.0211431702996","404.58000000000004","11","fallScene","true","","","","58","",""
"","","","","","html-keyboard-response","178","588104","0.0-20.0-1.9","66413abd57f96e210a9cfe13","6796e1c0ff24ca17c453c51c","67c6ab41247e39ec2d4f23a5","passed","","360","","","","","","","","","","","","","","j","yesOrNo","","","","11","","","lp","700","","58","605.4000000000001","372.6340973215488"
"","","","","","html-keyboard-response","179","589604","0.0-20.0-0.10","66413abd57f96e210a9cfe13","6796e1c0ff24ca17c453c51c","67c6ab41247e39ec2d4f23a5","passed","","","","","","","","","","","","","","","","","ballFalling","604.4000000000001","667.6211431702998","201.78","9","fallScene","true","","","","59","",""
"","","","","","html-keyboard-response","180","590306","0.0-20.0-1.10","66413abd57f96e210a9cfe13","6796e1c0ff24ca17c453c51c","67c6ab41247e39ec2d4f23a5","passed","","551","","","","","","","","","","","","","","f","yesOrNo","","","","9","","","lp","700","","59","605.4000000000001","151"
"","","","","","html-keyboard-response","181","591873","0.0-20.0-0.11","66413abd57f96e210a9cfe13","6796e1c0ff24ca17c453c51c","67c6ab41247e39ec2d4f23a5","passed","","","","","","","","","","","","","","","","","ballFalling","604.4000000000001","650.0211431702996","404.58000000000004","11","fallScene","false","","","","60","",""
"","","","","","html-keyboard-response","182","592576","0.0-20.0-1.11","66413abd57f96e210a9cfe13","6796e1c0ff24ca17c453c51c","67c6ab41247e39ec2d4f23a5","passed","","466","","","","","","","","","","","","","","f","yesOrNo","","","","11","","","mid","700","","60","605.4000000000001","300"
"","","","","","html-keyboard-response","183","594592","0.0-20.0-0.12","66413abd57f96e210a9cfe13","6796e1c0ff24ca17c453c51c","67c6ab41247e39ec2d4f23a5","passed","","","","","","","","","","","","","","","","","ballFalling","500","510.8711431702997","369.03","8","fallScene","false","","","","61","",""
"","","","","","html-keyboard-response","184","595295","0.0-20.0-1.12","66413abd57f96e210a9cfe13","6796e1c0ff24ca17c453c51c","67c6ab41247e39ec2d4f23a5","passed","","675","","","","","","","","","","","","","","f","yesOrNo","","","","8","","","lp","700","","61","501","151"
"","","","","","html-keyboard-response","185","596860","0.0-20.0-0.13","66413abd57f96e210a9cfe13","6796e1c0ff24ca17c453c51c","67c6ab41247e39ec2d4f23a5","passed","","","","","","","","","","","","","","","","","ballFalling","604.4000000000001","575.4211431702997","266.76","12","fallScene","false","","","","62","",""
"","","","","","html-keyboard-response","186","597562","0.0-20.0-1.13","66413abd57f96e210a9cfe13","6796e1c0ff24ca17c453c51c","67c6ab41247e39ec2d4f23a5","passed","","695","","","","","","","","","","","","","","j","yesOrNo","","","","12","","","gt","700","","62","575.4211431702997","266.76"
"","","","","","html-keyboard-response","187","599579","0.0-20.0-0.14","66413abd57f96e210a9cfe13","6796e1c0ff24ca17c453c51c","67c6ab41247e39ec2d4f23a5","passed","","","","","","","","","","","","","","","","","ballFalling","604.4000000000001","596.8711431702998","394.5","10","fallScene","true","","","","63","",""
"","","","","","html-keyboard-response","188","600282","0.0-20.0-1.14","66413abd57f96e210a9cfe13","6796e1c0ff24ca17c453c51c","67c6ab41247e39ec2d4f23a5","passed","","null","","","","","","","","","","","","","","null","yesOrNo","","","","10","","","mid","700","","63","536.4288568297004","300"
"","","","","","html-keyboard-response","189","601848","0.0-20.0-0.15","66413abd57f96e210a9cfe13","6796e1c0ff24ca17c453c51c","67c6ab41247e39ec2d4f23a5","passed","","","","","","","","","","","","","","","","","ballFalling","500","453.67114317029973","210.33","5","fallScene","true","","","","64","",""
"","","","","","html-keyboard-response","190","602550","0.0-20.0-1.15","66413abd57f96e210a9cfe13","6796e1c0ff24ca17c453c51c","67c6ab41247e39ec2d4f23a5","passed","","null","","","","","","","","","","","","","","null","yesOrNo","","","","5","","","mid","700","","64","499","300"
"","","","","","html-keyboard-response","191","604116","0.0-20.0-0.16","66413abd57f96e210a9cfe13","6796e1c0ff24ca17c453c51c","67c6ab41247e39ec2d4f23a5","passed","","","","","","","","","","","","","","","","","ballFalling","322.3","356.42114317029973","357.87","4","fallScene","true","","","","65","",""
"","","","","","html-keyboard-response","192","604819","0.0-20.0-1.16","66413abd57f96e210a9cfe13","6796e1c0ff24ca17c453c51c","67c6ab41247e39ec2d4f23a5","passed","","582","","","","","","","","","","","","","","f","yesOrNo","","","","4","","","gt","700","","65","356.42114317029973","357.87"
"","","","","","html-keyboard-response","193","606385","0.0-20.0-0.17","66413abd57f96e210a9cfe13","6796e1c0ff24ca17c453c51c","67c6ab41247e39ec2d4f23a5","passed","","","","","","","","","","","","","","","","","ballFalling","604.4000000000001","650.0211431702996","404.58000000000004","11","fallScene","false","","","","66","",""
"","","","","","html-keyboard-response","194","607086","0.0-20.0-1.17","66413abd57f96e210a9cfe13","6796e1c0ff24ca17c453c51c","67c6ab41247e39ec2d4f23a5","passed","","490","","","","","","","","","","","","","","j","yesOrNo","","","","11","","","gt","700","","66","650.0211431702996","404.58"
"","","","","","html-keyboard-response","195","608653","0.0-20.0-0.18","66413abd57f96e210a9cfe13","6796e1c0ff24ca17c453c51c","67c6ab41247e39ec2d4f23a5","passed","","","","","","","","","","","","","","","","","ballFalling","322.3","356.42114317029973","357.87","4","fallScene","false","","","","67","",""
"","","","","","html-keyboard-response","196","609355","0.0-20.0-1.18","66413abd57f96e210a9cfe13","6796e1c0ff24ca17c453c51c","67c6ab41247e39ec2d4f23a5","passed","","535","","","","","","","","","","","","","","j","yesOrNo","","","","4","","","gt","700","","67","356.42114317029973","357.87"
"","","","","","html-keyboard-response","197","610855","0.0-20.0-0.19","66413abd57f96e210a9cfe13","6796e1c0ff24ca17c453c51c","67c6ab41247e39ec2d4f23a5","passed","","","","","","","","","","","","","","","","","ballFalling","604.4000000000001","667.6211431702998","201.78","9","fallScene","true","","","","68","",""
"","","","","","html-keyboard-response","198","611558","0.0-20.0-1.19","66413abd57f96e210a9cfe13","6796e1c0ff24ca17c453c51c","67c6ab41247e39ec2d4f23a5","passed","","651","","","","","","","","","","","","","","f","yesOrNo","","","","9","","","lp","700","","68","605.4000000000001","151"
"","","","","","html-keyboard-response","199","613124","0.0-20.0-0.20","66413abd57f96e210a9cfe13","6796e1c0ff24ca17c453c51c","67c6ab41247e39ec2d4f23a5","passed","","","","","","","","","","","","","","","","","ballFalling","500","453.67114317029973","210.33","5","fallScene","true","","","","69","",""
"","","","","","html-keyboard-response","200","613826","0.0-20.0-1.20","66413abd57f96e210a9cfe13","6796e1c0ff24ca17c453c51c","67c6ab41247e39ec2d4f23a5","passed","","575","","","","","","","","","","","","","","f","yesOrNo","","","","5","","","lp","700","","69","499","151"
"","","","","","html-keyboard-response","201","615392","0.0-20.0-0.21","66413abd57f96e210a9cfe13","6796e1c0ff24ca17c453c51c","67c6ab41247e39ec2d4f23a5","passed","","","","","","","","","","","","","","","","","ballFalling","604.4000000000001","575.4211431702997","266.76","12","fallScene","true","","","","70","",""
"","","","","","html-keyboard-response","202","616095","0.0-20.0-1.21","66413abd57f96e210a9cfe13","6796e1c0ff24ca17c453c51c","67c6ab41247e39ec2d4f23a5","passed","","507","","","","","","","","","","","","","","j","yesOrNo","","","","12","","","lp","700","","70","603.4000000000001","151"
"","","","","","html-keyboard-response","203","617661","0.0-20.0-0.22","66413abd57f96e210a9cfe13","6796e1c0ff24ca17c453c51c","67c6ab41247e39ec2d4f23a5","passed","","","","","","","","","","","","","","","","","ballFalling","322.3","379.3711431702997","245.25","1","fallScene","true","","","","71","",""
"","","","","","html-keyboard-response","204","618363","0.0-20.0-1.22","66413abd57f96e210a9cfe13","6796e1c0ff24ca17c453c51c","67c6ab41247e39ec2d4f23a5","passed","","null","","","","","","","","","","","","","","null","yesOrNo","","","","1","","","gt","700","","71","379.3711431702997","245.25"
"","","","","","html-keyboard-response","205","620162","0.0-20.0-0.23","66413abd57f96e210a9cfe13","6796e1c0ff24ca17c453c51c","67c6ab41247e39ec2d4f23a5","passed","","","","","","","","","","","","","","","","","ballFalling","322.3","308.07114317029976","253.89","2","fallScene","false","","","","72","",""
"","","","","","html-keyboard-response","206","620865","0.0-20.0-1.23","66413abd57f96e210a9cfe13","6796e1c0ff24ca17c453c51c","67c6ab41247e39ec2d4f23a5","passed","","401","","","","","","","","","","","","","","j","yesOrNo","","","","2","","","lp","700","","72","321.3","151"
"","","","","","html-keyboard-response","207","624412","0.0-21.0","66413abd57f96e210a9cfe13","6796e1c0ff24ca17c453c51c","67c6ab41247e39ec2d4f23a5","passed","","3546","","","","","","","","","","","","","<p><span style=""font-size:40px;"">BLOCK 4</span></p><p><span style=""font-size:25px;"">You have <b style=""color: #FF644F;""><strong>3 second(s)</strong></b> to respond to the following trials.</span><br></p><p></p> <!-- Blank line -->
                <p id=""blinking-text"" style=""font-weight; animation: blink 2s infinite;"">Press Space to continue</p>
                <style>
                    @keyframes blink {
                        50% {
                            opacity: 0;
                        }
                    }
                </style></p>"," ","","","","","","","","","","","","",""
"","","","","","html-keyboard-response","208","625967","0.0-22.0-0.0","66413abd57f96e210a9cfe13","6796e1c0ff24ca17c453c51c","67c6ab41247e39ec2d4f23a5","passed","","","","","","","","","","","","","","","","","ballFalling","500","453.67114317029973","210.33","5","fallScene","true","","","","73","",""
"","","","","","html-keyboard-response","209","628970","0.0-22.0-1.0","66413abd57f96e210a9cfe13","6796e1c0ff24ca17c453c51c","67c6ab41247e39ec2d4f23a5","passed","","723","","","","","","","","","","","","","","f","yesOrNo","","","","5","","","lp","3000","","73","499","151"
"","","","","","html-keyboard-response","210","630971","0.0-22.0-0.1","66413abd57f96e210a9cfe13","6796e1c0ff24ca17c453c51c","67c6ab41247e39ec2d4f23a5","passed","","","","","","","","","","","","","","","","","ballFalling","500","510.8711431702997","369.03","8","fallScene","false","","","","74","",""
"","","","","","html-keyboard-response","211","633973","0.0-22.0-1.1","66413abd57f96e210a9cfe13","6796e1c0ff24ca17c453c51c","67c6ab41247e39ec2d4f23a5","passed","","1201","","","","","","","","","","","","","","f","yesOrNo","","","","8","","","gt","3000","","74","510.8711431702997","369.03"
"","","","","","html-keyboard-response","212","635525","0.0-22.0-0.2","66413abd57f96e210a9cfe13","6796e1c0ff24ca17c453c51c","67c6ab41247e39ec2d4f23a5","passed","","","","","","","","","","","","","","","","","ballFalling","500","453.67114317029973","210.33","5","fallScene","true","","","","75","",""
"","","","","","html-keyboard-response","213","638526","0.0-22.0-1.2","66413abd57f96e210a9cfe13","6796e1c0ff24ca17c453c51c","67c6ab41247e39ec2d4f23a5","passed","","1526","","","","","","","","","","","","","","j","yesOrNo","","","","5","","","gt","3000","","75","453.6711431702998","210.33"
"","","","","","html-keyboard-response","214","640079","0.0-22.0-0.3","66413abd57f96e210a9cfe13","6796e1c0ff24ca17c453c51c","67c6ab41247e39ec2d4f23a5","passed","","","","","","","","","","","","","","","","","ballFalling","322.3","379.3711431702997","245.25","1","fallScene","false","","","","76","",""
"","","","","","html-keyboard-response","215","643080","0.0-22.0-1.3","66413abd57f96e210a9cfe13","6796e1c0ff24ca17c453c51c","67c6ab41247e39ec2d4f23a5","passed","","2020","","","","","","","","","","","","","","f","yesOrNo","","","","1","","","mid","3000","","76","390.27114317029975","300"
"","","","","","html-keyboard-response","216","644866","0.0-22.0-0.4","66413abd57f96e210a9cfe13","6796e1c0ff24ca17c453c51c","67c6ab41247e39ec2d4f23a5","passed","","","","","","","","","","","","","","","","","ballFalling","322.3","308.07114317029976","253.89","2","fallScene","false","","","","77","",""
"","","","","","html-keyboard-response","217","647868","0.0-22.0-1.4","66413abd57f96e210a9cfe13","6796e1c0ff24ca17c453c51c","67c6ab41247e39ec2d4f23a5","passed","","1074","","","","","","","","","","","","","","j","yesOrNo","","","","2","","","gt","3000","","77","308.07114317029976","253.89"
"","","","","","html-keyboard-response","218","649420","0.0-22.0-0.5","66413abd57f96e210a9cfe13","6796e1c0ff24ca17c453c51c","67c6ab41247e39ec2d4f23a5","passed","","","","","","","","","","","","","","","","","ballFalling","322.3","356.42114317029973","357.87","4","fallScene","false","","","","78","",""
"","","","","","html-keyboard-response","219","652422","0.0-22.0-1.5","66413abd57f96e210a9cfe13","6796e1c0ff24ca17c453c51c","67c6ab41247e39ec2d4f23a5","passed","","1239","","","","","","","","","","","","","","f","yesOrNo","","","","4","","","gt","3000","","78","356.42114317029973","357.87"
"","","","","","html-keyboard-response","220","653973","0.0-22.0-0.6","66413abd57f96e210a9cfe13","6796e1c0ff24ca17c453c51c","67c6ab41247e39ec2d4f23a5","passed","","","","","","","","","","","","","","","","","ballFalling","604.4000000000001","575.4211431702997","266.76","12","fallScene","true","","","","79","",""
"","","","","","html-keyboard-response","221","656975","0.0-22.0-1.6","66413abd57f96e210a9cfe13","6796e1c0ff24ca17c453c51c","67c6ab41247e39ec2d4f23a5","passed","","790","","","","","","","","","","","","","","j","yesOrNo","","","","12","","","lp","3000","","79","603.4000000000001","151"
"","","","","","html-keyboard-response","222","658627","0.0-22.0-0.7","66413abd57f96e210a9cfe13","6796e1c0ff24ca17c453c51c","67c6ab41247e39ec2d4f23a5","passed","","","","","","","","","","","","","","","","","ballFalling","500","479.92114317029973","330.87","6","fallScene","false","","","","80","",""
"","","","","","html-keyboard-response","223","661630","0.0-22.0-1.7","66413abd57f96e210a9cfe13","6796e1c0ff24ca17c453c51c","67c6ab41247e39ec2d4f23a5","passed","","944","","","","","","","","","","","","","","j","yesOrNo","","","","6","","","lp","3000","","80","499","189.92909825697632"
"","","","","","html-keyboard-response","224","663414","0.0-22.0-0.8","66413abd57f96e210a9cfe13","6796e1c0ff24ca17c453c51c","67c6ab41247e39ec2d4f23a5","passed","","","","","","","","","","","","","","","","","ballFalling","322.3","308.07114317029976","253.89","2","fallScene","false","","","","81","",""
"","","","","","html-keyboard-response","225","666416","0.0-22.0-1.8","66413abd57f96e210a9cfe13","6796e1c0ff24ca17c453c51c","67c6ab41247e39ec2d4f23a5","passed","","2420","","","","","","","","","","","","","","j","yesOrNo","","","","2","","","mid","3000","","81","321.3","300"
"","","","","","html-keyboard-response","226","667968","0.0-22.0-0.9","66413abd57f96e210a9cfe13","6796e1c0ff24ca17c453c51c","67c6ab41247e39ec2d4f23a5","passed","","","","","","","","","","","","","","","","","ballFalling","322.3","379.3711431702997","245.25","1","fallScene","true","","","","82","",""
"","","","","","html-keyboard-response","227","670970","0.0-22.0-1.9","66413abd57f96e210a9cfe13","6796e1c0ff24ca17c453c51c","67c6ab41247e39ec2d4f23a5","passed","","651","","","","","","","","","","","","","","j","yesOrNo","","","","1","","","lp","3000","","82","323.3","217.74551669457017"
"","","","","","html-keyboard-response","228","672972","0.0-22.0-0.10","66413abd57f96e210a9cfe13","6796e1c0ff24ca17c453c51c","67c6ab41247e39ec2d4f23a5","passed","","","","","","","","","","","","","","","","","ballFalling","604.4000000000001","596.8711431702998","394.5","10","fallScene","false","","","","83","",""
"","","","","","html-keyboard-response","229","675974","0.0-22.0-1.10","66413abd57f96e210a9cfe13","6796e1c0ff24ca17c453c51c","67c6ab41247e39ec2d4f23a5","passed","","592","","","","","","","","","","","","","","j","yesOrNo","","","","10","","","lp","3000","","83","603.4000000000001","215.50214355555383"
"","","","","","html-keyboard-response","230","677459","0.0-22.0-0.11","66413abd57f96e210a9cfe13","6796e1c0ff24ca17c453c51c","67c6ab41247e39ec2d4f23a5","passed","","","","","","","","","","","","","","","","","ballFalling","604.4000000000001","667.6211431702998","201.78","9","fallScene","true","","","","84","",""
"","","","","","html-keyboard-response","231","680461","0.0-22.0-1.11","66413abd57f96e210a9cfe13","6796e1c0ff24ca17c453c51c","67c6ab41247e39ec2d4f23a5","passed","","736","","","","","","","","","","","","","","j","yesOrNo","","","","9","","","gt","3000","","84","667.6211431702998","201.78"
"","","","","","html-keyboard-response","232","681946","0.0-22.0-0.12","66413abd57f96e210a9cfe13","6796e1c0ff24ca17c453c51c","67c6ab41247e39ec2d4f23a5","passed","","","","","","","","","","","","","","","","","ballFalling","604.4000000000001","667.6211431702998","201.78","9","fallScene","true","","","","85","",""
"","","","","","html-keyboard-response","233","684948","0.0-22.0-1.12","66413abd57f96e210a9cfe13","6796e1c0ff24ca17c453c51c","67c6ab41247e39ec2d4f23a5","passed","","1818","","","","","","","","","","","","","","j","yesOrNo","","","","9","","","gt","3000","","85","667.6211431702998","201.78"
"","","","","","html-keyboard-response","234","686500","0.0-22.0-0.13","66413abd57f96e210a9cfe13","6796e1c0ff24ca17c453c51c","67c6ab41247e39ec2d4f23a5","passed","","","","","","","","","","","","","","","","","ballFalling","322.3","296.07114317029976","371.46","3","fallScene","false","","","","86","",""
"","","","","","html-keyboard-response","235","689502","0.0-22.0-1.13","66413abd57f96e210a9cfe13","6796e1c0ff24ca17c453c51c","67c6ab41247e39ec2d4f23a5","passed","","1223","","","","","","","","","","","","","","j","yesOrNo","","","","3","","","lp","3000","","86","321.3","287.3327096511259"
"","","","","","html-keyboard-response","236","691287","0.0-22.0-0.14","66413abd57f96e210a9cfe13","6796e1c0ff24ca17c453c51c","67c6ab41247e39ec2d4f23a5","passed","","","","","","","","","","","","","","","","","ballFalling","322.3","308.07114317029976","253.89","2","fallScene","false","","","","87","",""
"","","","","","html-keyboard-response","237","694289","0.0-22.0-1.14","66413abd57f96e210a9cfe13","6796e1c0ff24ca17c453c51c","67c6ab41247e39ec2d4f23a5","passed","","1036","","","","","","","","","","","","","","f","yesOrNo","","","","2","","","gt","3000","","87","308.07114317029976","253.89"
"","","","","","html-keyboard-response","238","695857","0.0-22.0-0.15","66413abd57f96e210a9cfe13","6796e1c0ff24ca17c453c51c","67c6ab41247e39ec2d4f23a5","passed","","","","","","","","","","","","","","","","","ballFalling","500","553.4711431702997","282.51","7","fallScene","true","","","","88","",""
"","","","","","html-keyboard-response","239","698860","0.0-22.0-1.15","66413abd57f96e210a9cfe13","6796e1c0ff24ca17c453c51c","67c6ab41247e39ec2d4f23a5","passed","","1075","","","","","","","","","","","","","","j","yesOrNo","","","","7","","","lp","3000","","88","501","227.2843295913261"
"","","","","","html-keyboard-response","240","700344","0.0-22.0-0.16","66413abd57f96e210a9cfe13","6796e1c0ff24ca17c453c51c","67c6ab41247e39ec2d4f23a5","passed","","","","","","","","","","","","","","","","","ballFalling","604.4000000000001","667.6211431702998","201.78","9","fallScene","true","","","","89","",""
"","","","","","html-keyboard-response","241","703345","0.0-22.0-1.16","66413abd57f96e210a9cfe13","6796e1c0ff24ca17c453c51c","67c6ab41247e39ec2d4f23a5","passed","","1211","","","","","","","","","","","","","","f","yesOrNo","","","","9","","","mid","3000","","89","605.4000000000001","300"
"","","","","","html-keyboard-response","242","705348","0.0-22.0-0.17","66413abd57f96e210a9cfe13","6796e1c0ff24ca17c453c51c","67c6ab41247e39ec2d4f23a5","passed","","","","","","","","","","","","","","","","","ballFalling","604.4000000000001","596.8711431702998","394.5","10","fallScene","true","","","","90","",""
"","","","","","html-keyboard-response","243","708351","0.0-22.0-1.17","66413abd57f96e210a9cfe13","6796e1c0ff24ca17c453c51c","67c6ab41247e39ec2d4f23a5","passed","","871","","","","","","","","","","","","","","j","yesOrNo","","","","10","","","gt","3000","","90","596.8711431702998","394.5"
"","","","","","html-keyboard-response","244","710136","0.0-22.0-0.18","66413abd57f96e210a9cfe13","6796e1c0ff24ca17c453c51c","67c6ab41247e39ec2d4f23a5","passed","","","","","","","","","","","","","","","","","ballFalling","322.3","308.07114317029976","253.89","2","fallScene","true","","","","91","",""
"","","","","","html-keyboard-response","245","713138","0.0-22.0-1.18","66413abd57f96e210a9cfe13","6796e1c0ff24ca17c453c51c","67c6ab41247e39ec2d4f23a5","passed","","1004","","","","","","","","","","","","","","j","yesOrNo","","","","2","","","lp","3000","","91","321.3","151"
"","","","","","html-keyboard-response","246","714923","0.0-22.0-0.19","66413abd57f96e210a9cfe13","6796e1c0ff24ca17c453c51c","67c6ab41247e39ec2d4f23a5","passed","","","","","","","","","","","","","","","","","ballFalling","322.3","308.07114317029976","253.89","2","fallScene","false","","","","92","",""
"","","","","","html-keyboard-response","247","717925","0.0-22.0-1.19","66413abd57f96e210a9cfe13","6796e1c0ff24ca17c453c51c","67c6ab41247e39ec2d4f23a5","passed","","713","","","","","","","","","","","","","","j","yesOrNo","","","","2","","","mid","3000","","92","321.3","300"
"","","","","","html-keyboard-response","248","719493","0.0-22.0-0.20","66413abd57f96e210a9cfe13","6796e1c0ff24ca17c453c51c","67c6ab41247e39ec2d4f23a5","passed","","","","","","","","","","","","","","","","","ballFalling","500","553.4711431702997","282.51","7","fallScene","true","","","","93","",""
"","","","","","html-keyboard-response","249","722496","0.0-22.0-1.20","66413abd57f96e210a9cfe13","6796e1c0ff24ca17c453c51c","67c6ab41247e39ec2d4f23a5","passed","","583","","","","","","","","","","","","","","j","yesOrNo","","","","7","","","mid","3000","","93","501","300"
"","","","","","html-keyboard-response","250","724047","0.0-22.0-0.21","66413abd57f96e210a9cfe13","6796e1c0ff24ca17c453c51c","67c6ab41247e39ec2d4f23a5","passed","","","","","","","","","","","","","","","","","ballFalling","322.3","379.3711431702997","245.25","1","fallScene","false","","","","94","",""
"","","","","","html-keyboard-response","251","727049","0.0-22.0-1.21","66413abd57f96e210a9cfe13","6796e1c0ff24ca17c453c51c","67c6ab41247e39ec2d4f23a5","passed","","685","","","","","","","","","","","","","","j","yesOrNo","","","","1","","","lp","3000","","94","323.3","217.74551669457017"
"","","","","","html-keyboard-response","252","728701","0.0-22.0-0.22","66413abd57f96e210a9cfe13","6796e1c0ff24ca17c453c51c","67c6ab41247e39ec2d4f23a5","passed","","","","","","","","","","","","","","","","","ballFalling","500","479.92114317029973","330.87","6","fallScene","true","","","","95","",""
"","","","","","html-keyboard-response","253","731703","0.0-22.0-1.22","66413abd57f96e210a9cfe13","6796e1c0ff24ca17c453c51c","67c6ab41247e39ec2d4f23a5","passed","","695","","","","","","","","","","","","","","j","yesOrNo","","","","6","","","mid","3000","","95","499","300"
"","","","","","html-keyboard-response","254","733254","0.0-22.0-0.23","66413abd57f96e210a9cfe13","6796e1c0ff24ca17c453c51c","67c6ab41247e39ec2d4f23a5","passed","","","","","","","","","","","","","","","","","ballFalling","322.3","296.07114317029976","371.46","3","fallScene","false","","","","96","",""
"","","","","","html-keyboard-response","255","736257","0.0-22.0-1.23","66413abd57f96e210a9cfe13","6796e1c0ff24ca17c453c51c","67c6ab41247e39ec2d4f23a5","passed","","1110","","","","","","","","","","","","","","j","yesOrNo","","","","3","","","mid","3000","","96","321.3","300"
"","","","","","html-keyboard-response","256","737932","0.0-23.0","66413abd57f96e210a9cfe13","6796e1c0ff24ca17c453c51c","67c6ab41247e39ec2d4f23a5","passed","","1675","","","","","","","","","","","","","<p><span style=""font-size:40px;"">BLOCK 5</span></p><p><span style=""font-size:25px;"">You have <b style=""color: #FF644F;""><strong>0.7 second(s)</strong></b> to respond to the following trials.</span><br></p><p></p> <!-- Blank line -->
                <p id=""blinking-text"" style=""font-weight; animation: blink 2s infinite;"">Press Space to continue</p>
                <style>
                    @keyframes blink {
                        50% {
                            opacity: 0;
                        }
                    }
                </style></p>"," ","","","","","","","","","","","","",""
"","","","","","html-keyboard-response","257","739593","0.0-24.0-0.0","66413abd57f96e210a9cfe13","6796e1c0ff24ca17c453c51c","67c6ab41247e39ec2d4f23a5","passed","","","","","","","","","","","","","","","","","ballFalling","500","479.92114317029973","330.87","6","fallScene","false","","","","97","",""
"","","","","","html-keyboard-response","258","740294","0.0-24.0-1.0","66413abd57f96e210a9cfe13","6796e1c0ff24ca17c453c51c","67c6ab41247e39ec2d4f23a5","passed","","523","","","","","","","","","","","","","","j","yesOrNo","","","","6","","","mid","700","","97","499","300"
"","","","","","html-keyboard-response","259","741861","0.0-24.0-0.1","66413abd57f96e210a9cfe13","6796e1c0ff24ca17c453c51c","67c6ab41247e39ec2d4f23a5","passed","","","","","","","","","","","","","","","","","ballFalling","500","453.67114317029973","210.33","5","fallScene","false","","","","98","",""
"","","","","","html-keyboard-response","260","742562","0.0-24.0-1.1","66413abd57f96e210a9cfe13","6796e1c0ff24ca17c453c51c","67c6ab41247e39ec2d4f23a5","passed","","422","","","","","","","","","","","","","","f","yesOrNo","","","","5","","","gt","700","","98","453.6711431702998","210.33"
"","","","","","html-keyboard-response","261","744580","0.0-24.0-0.2","66413abd57f96e210a9cfe13","6796e1c0ff24ca17c453c51c","67c6ab41247e39ec2d4f23a5","passed","","","","","","","","","","","","","","","","","ballFalling","500","510.8711431702997","369.03","8","fallScene","false","","","","99","",""
"","","","","","html-keyboard-response","262","745282","0.0-24.0-1.2","66413abd57f96e210a9cfe13","6796e1c0ff24ca17c453c51c","67c6ab41247e39ec2d4f23a5","passed","","504","","","","","","","","","","","","","","f","yesOrNo","","","","8","","","mid","700","","99","501","300"
"","","","","","html-keyboard-response","263","746949","0.0-24.0-0.3","66413abd57f96e210a9cfe13","6796e1c0ff24ca17c453c51c","67c6ab41247e39ec2d4f23a5","passed","","","","","","","","","","","","","","","","","ballFalling","500","479.92114317029973","330.87","6","fallScene","false","","","","100","",""
"","","","","","html-keyboard-response","264","747650","0.0-24.0-1.3","66413abd57f96e210a9cfe13","6796e1c0ff24ca17c453c51c","67c6ab41247e39ec2d4f23a5","passed","","535","","","","","","","","","","","","","","j","yesOrNo","","","","6","","","lp","700","","100","499","189.92909825697632"
"","","","","","html-keyboard-response","265","749217","0.0-24.0-0.4","66413abd57f96e210a9cfe13","6796e1c0ff24ca17c453c51c","67c6ab41247e39ec2d4f23a5","passed","","","","","","","","","","","","","","","","","ballFalling","322.3","296.07114317029976","371.46","3","fallScene","false","","","","101","",""
"","","","","","html-keyboard-response","266","749920","0.0-24.0-1.4","66413abd57f96e210a9cfe13","6796e1c0ff24ca17c453c51c","67c6ab41247e39ec2d4f23a5","passed","","570","","","","","","","","","","","","","","f","yesOrNo","","","","3","","","lp","700","","101","321.3","287.3327096511259"
"","","","","","html-keyboard-response","267","751485","0.0-24.0-0.5","66413abd57f96e210a9cfe13","6796e1c0ff24ca17c453c51c","67c6ab41247e39ec2d4f23a5","passed","","","","","","","","","","","","","","","","","ballFalling","322.3","356.42114317029973","357.87","4","fallScene","false","","","","102","",""
"","","","","","html-keyboard-response","268","752187","0.0-24.0-1.5","66413abd57f96e210a9cfe13","6796e1c0ff24ca17c453c51c","67c6ab41247e39ec2d4f23a5","passed","","686","","","","","","","","","","","","","","f","yesOrNo","","","","4","","","mid","700","","102","390.27114317029975","300"
"","","","","","html-keyboard-response","269","753754","0.0-24.0-0.6","66413abd57f96e210a9cfe13","6796e1c0ff24ca17c453c51c","67c6ab41247e39ec2d4f23a5","passed","","","","","","","","","","","","","","","","","ballFalling","500","453.67114317029973","210.33","5","fallScene","true","","","","103","",""
"","","","","","html-keyboard-response","270","754457","0.0-24.0-1.6","66413abd57f96e210a9cfe13","6796e1c0ff24ca17c453c51c","67c6ab41247e39ec2d4f23a5","passed","","null","","","","","","","","","","","","","","null","yesOrNo","","","","5","","","lp","700","","103","499","151"
"","","","","","html-keyboard-response","271","756473","0.0-24.0-0.7","66413abd57f96e210a9cfe13","6796e1c0ff24ca17c453c51c","67c6ab41247e39ec2d4f23a5","passed","","","","","","","","","","","","","","","","","ballFalling","500","510.8711431702997","369.03","8","fallScene","true","","","","104","",""
"","","","","","html-keyboard-response","272","757174","0.0-24.0-1.7","66413abd57f96e210a9cfe13","6796e1c0ff24ca17c453c51c","67c6ab41247e39ec2d4f23a5","passed","","587","","","","","","","","","","","","","","j","yesOrNo","","","","8","","","gt","700","","104","510.8711431702997","369.03"
"","","","","","html-keyboard-response","273","759192","0.0-24.0-0.8","66413abd57f96e210a9cfe13","6796e1c0ff24ca17c453c51c","67c6ab41247e39ec2d4f23a5","passed","","","","","","","","","","","","","","","","","ballFalling","500","510.8711431702997","369.03","8","fallScene","true","","","","105","",""
"","","","","","html-keyboard-response","274","759894","0.0-24.0-1.8","66413abd57f96e210a9cfe13","6796e1c0ff24ca17c453c51c","67c6ab41247e39ec2d4f23a5","passed","","636","","","","","","","","","","","","","","f","yesOrNo","","","","8","","","mid","700","","105","501","300"
"","","","","","html-keyboard-response","275","761460","0.0-24.0-0.9","66413abd57f96e210a9cfe13","6796e1c0ff24ca17c453c51c","67c6ab41247e39ec2d4f23a5","passed","","","","","","","","","","","","","","","","","ballFalling","322.3","379.3711431702997","245.25","1","fallScene","true","","","","106","",""
"","","","","","html-keyboard-response","276","762163","0.0-24.0-1.9","66413abd57f96e210a9cfe13","6796e1c0ff24ca17c453c51c","67c6ab41247e39ec2d4f23a5","passed","","575","","","","","","","","","","","","","","j","yesOrNo","","","","1","","","gt","700","","106","379.3711431702997","245.25"
"","","","","","html-keyboard-response","277","763745","0.0-24.0-0.10","66413abd57f96e210a9cfe13","6796e1c0ff24ca17c453c51c","67c6ab41247e39ec2d4f23a5","passed","","","","","","","","","","","","","","","","","ballFalling","500","553.4711431702997","282.51","7","fallScene","true","","","","107","",""
"","","","","","html-keyboard-response","278","764448","0.0-24.0-1.10","66413abd57f96e210a9cfe13","6796e1c0ff24ca17c453c51c","67c6ab41247e39ec2d4f23a5","passed","","682","","","","","","","","","","","","","","f","yesOrNo","","","","7","","","mid","700","","107","501","300"
"","","","","","html-keyboard-response","279","766014","0.0-24.0-0.11","66413abd57f96e210a9cfe13","6796e1c0ff24ca17c453c51c","67c6ab41247e39ec2d4f23a5","passed","","","","","","","","","","","","","","","","","ballFalling","322.3","296.07114317029976","371.46","3","fallScene","false","","","","108","",""
"","","","","","html-keyboard-response","280","766717","0.0-24.0-1.11","66413abd57f96e210a9cfe13","6796e1c0ff24ca17c453c51c","67c6ab41247e39ec2d4f23a5","passed","","605","","","","","","","","","","","","","","j","yesOrNo","","","","3","","","mid","700","","108","321.3","300"
"","","","","","html-keyboard-response","281","768282","0.0-24.0-0.12","66413abd57f96e210a9cfe13","6796e1c0ff24ca17c453c51c","67c6ab41247e39ec2d4f23a5","passed","","","","","","","","","","","","","","","","","ballFalling","322.3","356.42114317029973","357.87","4","fallScene","false","","","","109","",""
"","","","","","html-keyboard-response","282","768985","0.0-24.0-1.12","66413abd57f96e210a9cfe13","6796e1c0ff24ca17c453c51c","67c6ab41247e39ec2d4f23a5","passed","","514","","","","","","","","","","","","","","j","yesOrNo","","","","4","","","mid","700","","109","390.27114317029975","300"
"","","","","","html-keyboard-response","283","770785","0.0-24.0-0.13","66413abd57f96e210a9cfe13","6796e1c0ff24ca17c453c51c","67c6ab41247e39ec2d4f23a5","passed","","","","","","","","","","","","","","","","","ballFalling","322.3","308.07114317029976","253.89","2","fallScene","true","","","","110","",""
"","","","","","html-keyboard-response","284","771486","0.0-24.0-1.13","66413abd57f96e210a9cfe13","6796e1c0ff24ca17c453c51c","67c6ab41247e39ec2d4f23a5","passed","","523","","","","","","","","","","","","","","j","yesOrNo","","","","2","","","gt","700","","110","308.07114317029976","253.89"
"","","","","","html-keyboard-response","285","773053","0.0-24.0-0.14","66413abd57f96e210a9cfe13","6796e1c0ff24ca17c453c51c","67c6ab41247e39ec2d4f23a5","passed","","","","","","","","","","","","","","","","","ballFalling","604.4000000000001","650.0211431702996","404.58000000000004","11","fallScene","false","","","","111","",""
"","","","","","html-keyboard-response","286","773756","0.0-24.0-1.14","66413abd57f96e210a9cfe13","6796e1c0ff24ca17c453c51c","67c6ab41247e39ec2d4f23a5","passed","","null","","","","","","","","","","","","","","null","yesOrNo","","","","11","","","gt","700","","111","650.0211431702996","404.58"
"","","","","","html-keyboard-response","287","775322","0.0-24.0-0.15","66413abd57f96e210a9cfe13","6796e1c0ff24ca17c453c51c","67c6ab41247e39ec2d4f23a5","passed","","","","","","","","","","","","","","","","","ballFalling","500","453.67114317029973","210.33","5","fallScene","false","","","","112","",""
"","","","","","html-keyboard-response","288","776024","0.0-24.0-1.15","66413abd57f96e210a9cfe13","6796e1c0ff24ca17c453c51c","67c6ab41247e39ec2d4f23a5","passed","","570","","","","","","","","","","","","","","j","yesOrNo","","","","5","","","mid","700","","112","499","300"
"","","","","","html-keyboard-response","289","778041","0.0-24.0-0.16","66413abd57f96e210a9cfe13","6796e1c0ff24ca17c453c51c","67c6ab41247e39ec2d4f23a5","passed","","","","","","","","","","","","","","","","","ballFalling","604.4000000000001","596.8711431702998","394.5","10","fallScene","true","","","","113","",""
"","","","","","html-keyboard-response","290","778742","0.0-24.0-1.16","66413abd57f96e210a9cfe13","6796e1c0ff24ca17c453c51c","67c6ab41247e39ec2d4f23a5","passed","","427","","","","","","","","","","","","","","j","yesOrNo","","","","10","","","lp","700","","113","603.4000000000001","215.50214355555383"
"","","","","","html-keyboard-response","291","780242","0.0-24.0-0.17","66413abd57f96e210a9cfe13","6796e1c0ff24ca17c453c51c","67c6ab41247e39ec2d4f23a5","passed","","","","","","","","","","","","","","","","","ballFalling","604.4000000000001","667.6211431702998","201.78","9","fallScene","false","","","","114","",""
"","","","","","html-keyboard-response","292","780945","0.0-24.0-1.17","66413abd57f96e210a9cfe13","6796e1c0ff24ca17c453c51c","67c6ab41247e39ec2d4f23a5","passed","","546","","","","","","","","","","","","","","j","yesOrNo","","","","9","","","mid","700","","114","605.4000000000001","300"
"","","","","","html-keyboard-response","293","782511","0.0-24.0-0.18","66413abd57f96e210a9cfe13","6796e1c0ff24ca17c453c51c","67c6ab41247e39ec2d4f23a5","passed","","","","","","","","","","","","","","","","","ballFalling","604.4000000000001","575.4211431702997","266.76","12","fallScene","false","","","","115","",""
"","","","","","html-keyboard-response","294","783212","0.0-24.0-1.18","66413abd57f96e210a9cfe13","6796e1c0ff24ca17c453c51c","67c6ab41247e39ec2d4f23a5","passed","","397","","","","","","","","","","","","","","j","yesOrNo","","","","12","","","gt","700","","115","575.4211431702997","266.76"
"","","","","","html-keyboard-response","295","784879","0.0-24.0-0.19","66413abd57f96e210a9cfe13","6796e1c0ff24ca17c453c51c","67c6ab41247e39ec2d4f23a5","passed","","","","","","","","","","","","","","","","","ballFalling","500","479.92114317029973","330.87","6","fallScene","false","","","","116","",""
"","","","","","html-keyboard-response","296","785581","0.0-24.0-1.19","66413abd57f96e210a9cfe13","6796e1c0ff24ca17c453c51c","67c6ab41247e39ec2d4f23a5","passed","","436","","","","","","","","","","","","","","j","yesOrNo","","","","6","","","gt","700","","116","479.9211431702998","330.87"
"","","","","","html-keyboard-response","297","787148","0.0-24.0-0.20","66413abd57f96e210a9cfe13","6796e1c0ff24ca17c453c51c","67c6ab41247e39ec2d4f23a5","passed","","","","","","","","","","","","","","","","","ballFalling","322.3","379.3711431702997","245.25","1","fallScene","false","","","","117","",""
"","","","","","html-keyboard-response","298","787850","0.0-24.0-1.20","66413abd57f96e210a9cfe13","6796e1c0ff24ca17c453c51c","67c6ab41247e39ec2d4f23a5","passed","","640","","","","","","","","","","","","","","f","yesOrNo","","","","1","","","mid","700","","117","390.27114317029975","300"
"","","","","","html-keyboard-response","299","789416","0.0-24.0-0.21","66413abd57f96e210a9cfe13","6796e1c0ff24ca17c453c51c","67c6ab41247e39ec2d4f23a5","passed","","","","","","","","","","","","","","","","","ballFalling","322.3","356.42114317029973","357.87","4","fallScene","true","","","","118","",""
"","","","","","html-keyboard-response","300","790118","0.0-24.0-1.21","66413abd57f96e210a9cfe13","6796e1c0ff24ca17c453c51c","67c6ab41247e39ec2d4f23a5","passed","","500","","","","","","","","","","","","","","j","yesOrNo","","","","4","","","lp","700","","118","323.3","297.4070551689986"
"","","","","","html-keyboard-response","301","791685","0.0-24.0-0.22","66413abd57f96e210a9cfe13","6796e1c0ff24ca17c453c51c","67c6ab41247e39ec2d4f23a5","passed","","","","","","","","","","","","","","","","","ballFalling","322.3","356.42114317029973","357.87","4","fallScene","false","","","","119","",""
"","","","","","html-keyboard-response","302","792386","0.0-24.0-1.22","66413abd57f96e210a9cfe13","6796e1c0ff24ca17c453c51c","67c6ab41247e39ec2d4f23a5","passed","","423","","","","","","","","","","","","","","j","yesOrNo","","","","4","","","lp","700","","119","323.3","297.4070551689986"
"","","","","","html-keyboard-response","303","794404","0.0-24.0-0.23","66413abd57f96e210a9cfe13","6796e1c0ff24ca17c453c51c","67c6ab41247e39ec2d4f23a5","passed","","","","","","","","","","","","","","","","","ballFalling","604.4000000000001","596.8711431702998","394.5","10","fallScene","false","","","","120","",""
"","","","","","html-keyboard-response","304","795106","0.0-24.0-1.23","66413abd57f96e210a9cfe13","6796e1c0ff24ca17c453c51c","67c6ab41247e39ec2d4f23a5","passed","","480","","","","","","","","","","","","","","f","yesOrNo","","","","10","","","mid","700","","120","536.4288568297004","300"
"","","","","","html-keyboard-response","305","796589","0.0-25.0","66413abd57f96e210a9cfe13","6796e1c0ff24ca17c453c51c","67c6ab41247e39ec2d4f23a5","passed","","1482","","","","","","","","","","","","","<p><span style=""font-size:40px;"">BLOCK 6</span></p><p><span style=""font-size:25px;"">You have <b style=""color: #FF644F;""><strong>3 second(s)</strong></b> to respond to the following trials.</span><br></p><p></p> <!-- Blank line -->
                <p id=""blinking-text"" style=""font-weight; animation: blink 2s infinite;"">Press Space to continue</p>
                <style>
                    @keyframes blink {
                        50% {
                            opacity: 0;
                        }
                    }
                </style></p>"," ","","","","","","","","","","","","",""
"","","","","","html-keyboard-response","306","798157","0.0-26.0-0.0","66413abd57f96e210a9cfe13","6796e1c0ff24ca17c453c51c","67c6ab41247e39ec2d4f23a5","passed","","","","","","","","","","","","","","","","","ballFalling","322.3","356.42114317029973","357.87","4","fallScene","false","","","","121","",""
