"success","timeout","failed_images","failed_audio","failed_video","trial_type","trial_index","time_elapsed","internal_node_id","subject_id","study_id","session_id","practiceTestResult","view_history","rt","width","height","webaudio","browser","browser_version","mobile","os","fullscreen","vsync_rate","webcam","microphone","url","stimulus","response","task","ball_X","obstacle_groundTruth_x","obstacle_groundTruth_y","stimulus_idx","trial_name","flipped","choice","timeLimit","question_order","comprehensionCheck","currentTrial","obstacle_choice_x","obstacle_choice_y"
"true","false","[]","[]","[]","preload","0","956","0.0-0.0","671c6fad5a9935e94b3025fd","6796e1c0ff24ca17c453c51c","67c7160b86c8488303c98404","passed","","","","","","","","","","","","","","","","","","","","","","","","","","","","","",""
"","","","","","instructions","1","7364","0.0-1.0","671c6fad5a9935e94b3025fd","6796e1c0ff24ca17c453c51c","67c7160b86c8488303c98404","passed","[{""page_index"":0,""viewing_time"":6407}]","6408","","","","","","","","","","","","","","","","","","","","","","","","","","","",""
"","","","","","browser-check","2","8349","0.0-2.0","671c6fad5a9935e94b3025fd","6796e1c0ff24ca17c453c51c","67c7160b86c8488303c98404","passed","","","1600","773","true","chrome","133.0.0","false","Windows 10","true","61.31","true","true","","","","","","","","","","","","","","","","",""
"","","","","","external-html","3","16157","0.0-3.0","671c6fad5a9935e94b3025fd","6796e1c0ff24ca17c453c51c","67c7160b86c8488303c98404","passed","","7517","","","","","","","","","","","","consent.html","","","","","","","","","","","","","","","",""
"true","","","","","fullscreen","4","29088","0.0-4.0","671c6fad5a9935e94b3025fd","6796e1c0ff24ca17c453c51c","67c7160b86c8488303c98404","passed","","12624","","","","","","","","","","","","","","","","","","","","","","","","","","","",""
"","","","","","browser-check","5","30080","0.0-5.0","671c6fad5a9935e94b3025fd","6796e1c0ff24ca17c453c51c","67c7160b86c8488303c98404","passed","","","1600","900","true","chrome","133.0.0","false","Windows 10","true","60.61","true","true","","","","","","","","","","","","","","","","",""
"","","","","","html-keyboard-response","6","40345","0.0-6.0","671c6fad5a9935e94b3025fd","6796e1c0ff24ca17c453c51c","67c7160b86c8488303c98404","passed","","10264","","","","","","","","","","","","","<p><b>This experiment requires keyboard input.</b></p> 
        <p><b>To ensure your response will be recorded successfully, please press 'Space' to continue.</b></p>
        <p>If you can't proceed, you won't be able to complete this study.</p>
        <p></p> <!-- Blank line -->
        <p id=""blinking-text"" style=""font-weight; animation: blink 2s infinite;"">Press Space to continue</p>
        <style>
            @keyframes blink {
                50% {
                    opacity: 0;
                }
            }
        </style>"," ","","","","","","","","","","","","","",""
"","","","","","html-keyboard-response","7","47819","0.0-7.0","671c6fad5a9935e94b3025fd","6796e1c0ff24ca17c453c51c","67c7160b86c8488303c98404","passed","","7473","","","","","","","","","","","","","<p><b>This experiment requires keyboard input.</b></p> 
        <p><b>To ensure your response will be recorded successfully, please press the 'f' key to continue.</b></p>
        <p>If you can't proceed, you won't be able to complete this study.</p>
        <p></p> <!-- Blank line -->
        <p id=""blinking-text"" style=""font-weight; animation: blink 2s infinite;"">Press f to continue</p>
        <style>
            @keyframes blink {
                50% {
                    opacity: 0;
                }
            }
        </style>","f","","","","","","","","","","","","","",""
"","","","","","html-keyboard-response","8","49998","0.0-8.0","671c6fad5a9935e94b3025fd","6796e1c0ff24ca17c453c51c","67c7160b86c8488303c98404","passed","","2178","","","","","","","","","","","","","<p><b>This experiment requires keyboard input.</b></p> 
        <p><b>To ensure your response will be recorded successfully, please press the 'j' key to continue.</b></p>
        <p>If you can't proceed, you won't be able to complete this study.</p>
        <p></p> <!-- Blank line -->
        <p id=""blinking-text"" style=""font-weight; animation: blink 2s infinite;"">Press j to continue</p>
        <style>
            @keyframes blink {
                50% {
                    opacity: 0;
                }
            }
        </style>","j","","","","","","","","","","","","","",""
"","","","","","browser-check","9","51013","0.0-9.0","671c6fad5a9935e94b3025fd","6796e1c0ff24ca17c453c51c","67c7160b86c8488303c98404","passed","","","1600","900","true","chrome","133.0.0","false","Windows 10","true","60.08","true","true","","","","","","","","","","","","","","","","",""
"","","","","","survey-text","10","70093","0.0-10.0","671c6fad5a9935e94b3025fd","6796e1c0ff24ca17c453c51c","67c7160b86c8488303c98404","passed","","19072","","","","","","","","","","","","","","{""prolificID"":""671c6fad5a9935e94b3025fd""}","","","","","","","","","","","","","",""
"","","","","","instructions","11","201628","0.0-11.0-0.0-0.0","671c6fad5a9935e94b3025fd","6796e1c0ff24ca17c453c51c","67c7160b86c8488303c98404","passed","[{""page_index"":0,""viewing_time"":69242},{""page_index"":1,""viewing_time"":37272},{""page_index"":2,""viewing_time"":10610},{""page_index"":3,""viewing_time"":14410}]","131534","","","","","","","","","","","","","","","","","","","","","","","","","","","",""
"","","","","","html-keyboard-response","12","224101","0.0-11.0-0.0-1.0","671c6fad5a9935e94b3025fd","6796e1c0ff24ca17c453c51c","67c7160b86c8488303c98404","passed","","21956","","","","","","","","","","","","","<br>Remember! After a ball falls, the screen will disappear, and you'll decide if the proposed position is where the hidden triangle was. <br>You will now practice this by watching a few videos and making decisions.<p>To respond:<br style=""margin-bottom: 5px; text-indent: -20px; padding-left: 20px;"">- Press <b style=""color: #12AD2B;"">J for Yes</b>, if you think the triangle is in the correct position.<br style=""margin-top: 0; text-indent: -20px; padding-left: 20px;"">- Press <b style=""color: orange;"">F for No</b>, if you think the triangle is not in the correct position.</p><p>In this practice round, there is no time limit. Focus on getting comfortable with the task first.<br>Press either J or F to begin your practice trials.</p><img src = ""YesOrNo_instruction.png"" style=""width: 65%;""></img>","j","","","","","","","","","","","","","",""
"","","","","","html-keyboard-response","13","225651","0.0-11.0-0.0-2.0-0.0","671c6fad5a9935e94b3025fd","6796e1c0ff24ca17c453c51c","67c7160b86c8488303c98404","passed","","","","","","","","","","","","","","","","","ballFalling_prac","416","464","296","1","fallScene","false","","","","","","",""
"","","","","","html-keyboard-response","14","227458","0.0-11.0-0.0-2.0-1.0","671c6fad5a9935e94b3025fd","6796e1c0ff24ca17c453c51c","67c7160b86c8488303c98404","passed","","1792","","","","","","","","","","","","","","j","yesOrNo_prac_noTimed","","","","1","","","gt","NA","","","","",""
"","","","","","html-keyboard-response","15","229561","0.0-11.0-0.0-2.0-0.1","671c6fad5a9935e94b3025fd","6796e1c0ff24ca17c453c51c","67c7160b86c8488303c98404","passed","","","","","","","","","","","","","","","","","ballFalling_prac","660","666","350","3","fallScene","false","","","","","","",""
"","","","","","html-keyboard-response","16","231923","0.0-11.0-0.0-2.0-1.1","671c6fad5a9935e94b3025fd","6796e1c0ff24ca17c453c51c","67c7160b86c8488303c98404","passed","","2360","","","","","","","","","","","","","","f","yesOrNo_prac_noTimed","","","","3","","","wrong direction","NA","","","","",""
"","","","","","html-keyboard-response","17","233488","0.0-11.0-0.0-2.0-0.2","671c6fad5a9935e94b3025fd","6796e1c0ff24ca17c453c51c","67c7160b86c8488303c98404","passed","","","","","","","","","","","","","","","","","ballFalling_prac","441","414","302","5","fallScene","true","","","","","","",""
"","","","","","html-keyboard-response","18","235465","0.0-11.0-0.0-2.0-1.2","671c6fad5a9935e94b3025fd","6796e1c0ff24ca17c453c51c","67c7160b86c8488303c98404","passed","","1973","","","","","","","","","","","","","","j","yesOrNo_prac_noTimed","","","","5","","","close gt","NA","","","","",""
"","","","","","instructions","19","301311","0.0-11.0-0.0-3.0","671c6fad5a9935e94b3025fd","6796e1c0ff24ca17c453c51c","67c7160b86c8488303c98404","passed","[{""page_index"":0,""viewing_time"":33790},{""page_index"":1,""viewing_time"":32056}]","65846","","","","","","","","","","","","","","","","","","","","","","","","","","","",""
"","","","","","html-button-response","20","310898","0.0-11.0-0.0-4.0","671c6fad5a9935e94b3025fd","6796e1c0ff24ca17c453c51c","67c7160b86c8488303c98404","passed","","9076","","","","","","","","","","","","","<p>To make sure you understood the task, we just have a <b>brief quiz</b> here.</p><p>If you need to review the instructions, click 'Previous'.</p><p>It's important to understand the task to do the study, so you have to pass the quiz to move to the study.</p>","1","","","","","","","","","","","","","",""
"","","","","","survey-multi-choice","21","331722","0.0-11.0-1.0-0.0","671c6fad5a9935e94b3025fd","6796e1c0ff24ca17c453c51c","67c7160b86c8488303c98404","passed","","20822","","","","","","","","","","","","","","{""generalProcedure"":""Watch a video of a ball falling, some of it behind a gray screen. After each video, decide if the triangle is at the spot where the ball hit the triangle behind the screen. There is time limit for the response.""}","","","","","","","","","","[0]","","","",""
"","","","","","survey-multi-choice","22","336651","0.0-11.0-1.0-1.0","671c6fad5a9935e94b3025fd","6796e1c0ff24ca17c453c51c","67c7160b86c8488303c98404","passed","","4927","","","","","","","","","","","","","","{""checkBallHitObstacle"":""Yes.""}","","","","","","","","","","[0]","","","",""
"","","","","","survey-multi-choice","23","345085","0.0-11.0-1.0-2.0","671c6fad5a9935e94b3025fd","6796e1c0ff24ca17c453c51c","67c7160b86c8488303c98404","passed","","8434","","","","","","","","","","","","","","{""checkTriangleVisibility"":""No, the triangle is hidden behind the gray screen.""}","","","","","","","","","","[0]","","","",""
"","","","","","survey-multi-choice","24","353918","0.0-11.0-1.0-3.0","671c6fad5a9935e94b3025fd","6796e1c0ff24ca17c453c51c","67c7160b86c8488303c98404","passed","","8831","","","","","","","","","","","","","","{""checkTimedResponse"":""Your response will not be recorded, and the trial will move to the next one.""}","","","","","","","","","","[0]","","","",""
"","","","","","survey-multi-choice","25","435481","0.0-11.0-1.0-4.0","671c6fad5a9935e94b3025fd","6796e1c0ff24ca17c453c51c","67c7160b86c8488303c98404","passed","","81563","","","","","","","","","","","","","","{""checkTimeBlockNotice"":""Before every individual trial.""}","","","","","","","","","","[0]","","","",""
"","","","","","survey-multi-choice","26","448712","0.0-11.0-1.0-5.0","671c6fad5a9935e94b3025fd","6796e1c0ff24ca17c453c51c","67c7160b86c8488303c98404","passed","","13230","","","","","","","","","","","","","","{""checkTimeBlockSameness"":""Yes, the time limit is the same for all trials within a block.""}","","","","","","","","","","[0]","","","",""
"","","","","","survey-multi-choice","27","475080","0.0-11.0-1.0-6.0","671c6fad5a9935e94b3025fd","6796e1c0ff24ca17c453c51c","67c7160b86c8488303c98404","passed","","26367","","","","","","","","","","","","","","{""checkTrianglePrecision"":""No. The proposed purple triangle is not in the correct position because it doesn't match the location of the white triangle exactly.""}","","","","","","","","","","[0]","","","",""
"","","","","","html-button-response","28","480785","0.0-11.0-2.0-0.0","671c6fad5a9935e94b3025fd","6796e1c0ff24ca17c453c51c","67c7160b86c8488303c98404","passed","","5703","","","","","","","","","","","","","<p>Oops! You did not pass the quiz.</p><p>You will now repeat the instructions and practice.</p>","0","","","","","","","","","","","failed","","",""
"","","","","","instructions","29","534345","0.0-11.1-0.1-0.1","671c6fad5a9935e94b3025fd","6796e1c0ff24ca17c453c51c","67c7160b86c8488303c98404","passed","[{""page_index"":0,""viewing_time"":31139},{""page_index"":1,""viewing_time"":10742},{""page_index"":2,""viewing_time"":4328},{""page_index"":3,""viewing_time"":7350}]","53559","","","","","","","","","","","","","","","","","","","","","","","","","","","",""
"","","","","","html-keyboard-response","30","544867","0.0-11.1-0.1-1.1","671c6fad5a9935e94b3025fd","6796e1c0ff24ca17c453c51c","67c7160b86c8488303c98404","passed","","10020","","","","","","","","","","","","","<br>Remember! After a ball falls, the screen will disappear, and you'll decide if the proposed position is where the hidden triangle was. <br>You will now practice this by watching a few videos and making decisions.<p>To respond:<br style=""margin-bottom: 5px; text-indent: -20px; padding-left: 20px;"">- Press <b style=""color: #12AD2B;"">J for Yes</b>, if you think the triangle is in the correct position.<br style=""margin-top: 0; text-indent: -20px; padding-left: 20px;"">- Press <b style=""color: orange;"">F for No</b>, if you think the triangle is not in the correct position.</p><p>In this practice round, there is no time limit. Focus on getting comfortable with the task first.<br>Press either J or F to begin your practice trials.</p><img src = ""YesOrNo_instruction.png"" style=""width: 65%;""></img>","f","","","","","","","","","","","","","",""
"","","","","","html-keyboard-response","31","546404","0.0-11.1-0.1-2.1-0.3","671c6fad5a9935e94b3025fd","6796e1c0ff24ca17c453c51c","67c7160b86c8488303c98404","passed","","","","","","","","","","","","","","","","","ballFalling_prac","416","464","296","1","fallScene","false","","","","","","",""
"","","","","","html-keyboard-response","32","548274","0.0-11.1-0.1-2.1-1.3","671c6fad5a9935e94b3025fd","6796e1c0ff24ca17c453c51c","67c7160b86c8488303c98404","passed","","1866","","","","","","","","","","","","","","j","yesOrNo_prac_noTimed","","","","1","","","gt","NA","","","","",""
"","","","","","html-keyboard-response","33","549848","0.0-11.1-0.1-2.1-0.4","671c6fad5a9935e94b3025fd","6796e1c0ff24ca17c453c51c","67c7160b86c8488303c98404","passed","","","","","","","","","","","","","","","","","ballFalling_prac","441","414","302","5","fallScene","true","","","","","","",""
"","","","","","html-keyboard-response","34","553656","0.0-11.1-0.1-2.1-1.4","671c6fad5a9935e94b3025fd","6796e1c0ff24ca17c453c51c","67c7160b86c8488303c98404","passed","","3803","","","","","","","","","","","","","","f","yesOrNo_prac_noTimed","","","","5","","","close gt","NA","","","","",""
"","","","","","html-keyboard-response","35","555755","0.0-11.1-0.1-2.1-0.5","671c6fad5a9935e94b3025fd","6796e1c0ff24ca17c453c51c","67c7160b86c8488303c98404","passed","","","","","","","","","","","","","","","","","ballFalling_prac","660","666","350","3","fallScene","false","","","","","","",""
"","","","","","html-keyboard-response","36","557450","0.0-11.1-0.1-2.1-1.5","671c6fad5a9935e94b3025fd","6796e1c0ff24ca17c453c51c","67c7160b86c8488303c98404","passed","","1691","","","","","","","","","","","","","","f","yesOrNo_prac_noTimed","","","","3","","","wrong direction","NA","","","","",""
"","","","","","instructions","37","646110","0.0-11.1-0.1-3.1","671c6fad5a9935e94b3025fd","6796e1c0ff24ca17c453c51c","67c7160b86c8488303c98404","passed","[{""page_index"":0,""viewing_time"":61483},{""page_index"":1,""viewing_time"":27176}]","88659","","","","","","","","","","","","","","","","","","","","","","","","","","","",""
"","","","","","html-button-response","38","652178","0.0-11.1-0.1-4.1","671c6fad5a9935e94b3025fd","6796e1c0ff24ca17c453c51c","67c7160b86c8488303c98404","passed","","5553","","","","","","","","","","","","","<p>To make sure you understood the task, we just have a <b>brief quiz</b> here.</p><p>If you need to review the instructions, click 'Previous'.</p><p>It's important to understand the task to do the study, so you have to pass the quiz to move to the study.</p>","1","","","","","","","","","","","","","",""
"","","","","","survey-multi-choice","39","698171","0.0-11.1-1.1-0.1","671c6fad5a9935e94b3025fd","6796e1c0ff24ca17c453c51c","67c7160b86c8488303c98404","passed","","45992","","","","","","","","","","","","","","{""generalProcedure"":""Watch a video of a ball falling, some of it behind a gray screen. After each video, decide if the triangle is at the spot where the ball hit the triangle behind the screen. There is time limit for the response.""}","","","","","","","","","","[0]","","","",""
"","","","","","survey-multi-choice","40","765032","0.0-11.1-1.1-1.1","671c6fad5a9935e94b3025fd","6796e1c0ff24ca17c453c51c","67c7160b86c8488303c98404","passed","","66860","","","","","","","","","","","","","","{""checkBallHitObstacle"":""Yes.""}","","","","","","","","","","[0]","","","",""
"","","","","","survey-multi-choice","41","776788","0.0-11.1-1.1-2.1","671c6fad5a9935e94b3025fd","6796e1c0ff24ca17c453c51c","67c7160b86c8488303c98404","passed","","11755","","","","","","","","","","","","","","{""checkTriangleVisibility"":""No, the triangle is hidden behind the gray screen.""}","","","","","","","","","","[0]","","","",""
"","","","","","survey-multi-choice","42","783125","0.0-11.1-1.1-3.1","671c6fad5a9935e94b3025fd","6796e1c0ff24ca17c453c51c","67c7160b86c8488303c98404","passed","","6336","","","","","","","","","","","","","","{""checkTimedResponse"":""Your response will not be recorded, and the trial will move to the next one.""}","","","","","","","","","","[0]","","","",""
"","","","","","survey-multi-choice","43","808327","0.0-11.1-1.1-4.1","671c6fad5a9935e94b3025fd","6796e1c0ff24ca17c453c51c","67c7160b86c8488303c98404","passed","","25201","","","","","","","","","","","","","","{""checkTimeBlockNotice"":""At the beginning of each block.""}","","","","","","","","","","[0]","","","",""
"","","","","","survey-multi-choice","44","815755","0.0-11.1-1.1-5.1","671c6fad5a9935e94b3025fd","6796e1c0ff24ca17c453c51c","67c7160b86c8488303c98404","passed","","7427","","","","","","","","","","","","","","{""checkTimeBlockSameness"":""Yes, the time limit is the same for all trials within a block.""}","","","","","","","","","","[0]","","","",""
"","","","","","survey-multi-choice","45","848309","0.0-11.1-1.1-6.1","671c6fad5a9935e94b3025fd","6796e1c0ff24ca17c453c51c","67c7160b86c8488303c98404","passed","","32553","","","","","","","","","","","","","","{""checkTrianglePrecision"":""No. The proposed purple triangle is not in the correct position because it doesn't match the location of the white triangle exactly.""}","","","","","","","","","","[0]","","","",""
"","","","","","instructions","46","874946","0.0-12.0","671c6fad5a9935e94b3025fd","6796e1c0ff24ca17c453c51c","67c7160b86c8488303c98404","passed","[{""page_index"":0,""viewing_time"":10188},{""page_index"":1,""viewing_time"":5554},{""page_index"":2,""viewing_time"":5913},{""page_index"":3,""viewing_time"":4981}]","26637","","","","","","","","","","","","","","","","","","","","","","","","","","","",""
"","","","","","instructions","47","891005","0.0-13.0-0.0","671c6fad5a9935e94b3025fd","6796e1c0ff24ca17c453c51c","67c7160b86c8488303c98404","passed","[{""page_index"":0,""viewing_time"":16058}]","16059","","","","","","","","","","","","","","","","","","","","","","","","","","","",""
"","","","","","html-keyboard-response","48","895932","0.0-13.0-1.0","671c6fad5a9935e94b3025fd","6796e1c0ff24ca17c453c51c","67c7160b86c8488303c98404","passed","","4926","","","","","","","","","","","","","<p><span style=""font-size:40px;"">Practice BLOCK 1</span></p><p><span style=""font-size:25px;"">You have <b style=""color: #FF644F;""><strong>3 second(s)</strong></b> to respond to the following trials.</span><br></p><p id=""blinking-text"" style=""font-weight; animation: blink 2s infinite;"">Press Space to continue</p><style>
                    @keyframes blink {
                        50% {
                            opacity: 0;
                        }
                    }
                </style>"," ","","","","","","","","","","","","","",""
"","","","","","html-keyboard-response","49","897492","0.0-13.0-2.0-0.0","671c6fad5a9935e94b3025fd","6796e1c0ff24ca17c453c51c","67c7160b86c8488303c98404","passed","","","","","","","","","","","","","","","","","ballFalling_prac","416","464","296","1","fallScene","false","","","","","","",""
"","","","","","html-keyboard-response","50","900503","0.0-13.0-2.0-1.0","671c6fad5a9935e94b3025fd","6796e1c0ff24ca17c453c51c","67c7160b86c8488303c98404","passed","","1605","","","","","","","","","","","","","","j","yesOrNo_prac","","","","1","","","far gt","3000","","","","",""
"","","","","","html-keyboard-response","51","902067","0.0-13.0-2.0-0.1","671c6fad5a9935e94b3025fd","6796e1c0ff24ca17c453c51c","67c7160b86c8488303c98404","passed","","","","","","","","","","","","","","","","","ballFalling_prac","584","536","296","1","fallScene","true","","","","","","",""
"","","","","","html-keyboard-response","52","905078","0.0-13.0-2.0-1.1","671c6fad5a9935e94b3025fd","6796e1c0ff24ca17c453c51c","67c7160b86c8488303c98404","passed","","1315","","","","","","","","","","","","","","f","yesOrNo_prac","","","","1","","","close gt","3000","","","","",""
"","","","","","html-keyboard-response","53","906643","0.0-13.0-2.0-0.2","671c6fad5a9935e94b3025fd","6796e1c0ff24ca17c453c51c","67c7160b86c8488303c98404","passed","","","","","","","","","","","","","","","","","ballFalling_prac","660","610","263","4","fallScene","false","","","","","","",""
"","","","","","html-keyboard-response","54","909654","0.0-13.0-2.0-1.2","671c6fad5a9935e94b3025fd","6796e1c0ff24ca17c453c51c","67c7160b86c8488303c98404","passed","","1127","","","","","","","","","","","","","","j","yesOrNo_prac","","","","4","","","gt","3000","","","","",""
"","","","","","html-keyboard-response","55","912677","0.0-13.0-3.0","671c6fad5a9935e94b3025fd","6796e1c0ff24ca17c453c51c","67c7160b86c8488303c98404","passed","","3021","","","","","","","","","","","","","<p><span style=""font-size:40px;"">Practice BLOCK 2</span></p><p><span style=""font-size:25px;"">You have <b style=""color: #FF644F;""><strong>0.7 second(s)</strong></b> to respond to the following trials.</span><br></p><p id=""blinking-text"" style=""font-weight; animation: blink 2s infinite;"">Press Space to continue</p><style>
                    @keyframes blink {
                        50% {
                            opacity: 0;
                        }
                    }
                </style>"," ","","","","","","","","","","","","","",""
"","","","","","html-keyboard-response","56","914796","0.0-13.0-4.0-0.0","671c6fad5a9935e94b3025fd","6796e1c0ff24ca17c453c51c","67c7160b86c8488303c98404","passed","","","","","","","","","","","","","","","","","ballFalling_prac","340","334","350","3","fallScene","true","","","","","","",""
"","","","","","html-keyboard-response","57","915501","0.0-13.0-4.0-1.0","671c6fad5a9935e94b3025fd","6796e1c0ff24ca17c453c51c","67c7160b86c8488303c98404","passed","","null","","","","","","","","","","","","","","null","yesOrNo_prac","","","","3","","","close gt","700","","","","",""
"","","","","","html-keyboard-response","58","917081","0.0-13.0-4.0-0.1","671c6fad5a9935e94b3025fd","6796e1c0ff24ca17c453c51c","67c7160b86c8488303c98404","passed","","","","","","","","","","","","","","","","","ballFalling_prac","660","610","263","4","fallScene","false","","","","","","",""
"","","","","","html-keyboard-response","59","917792","0.0-13.0-4.0-1.1","671c6fad5a9935e94b3025fd","6796e1c0ff24ca17c453c51c","67c7160b86c8488303c98404","passed","","680","","","","","","","","","","","","","","j","yesOrNo_prac","","","","4","","","far gt","700","","","","",""
"","","","","","html-keyboard-response","60","919362","0.0-13.0-4.0-0.2","671c6fad5a9935e94b3025fd","6796e1c0ff24ca17c453c51c","67c7160b86c8488303c98404","passed","","","","","","","","","","","","","","","","","ballFalling_prac","441","500","317","6","fallScene","true","","","","","","",""
"","","","","","html-keyboard-response","61","920067","0.0-13.0-4.0-1.2","671c6fad5a9935e94b3025fd","6796e1c0ff24ca17c453c51c","67c7160b86c8488303c98404","passed","","null","","","","","","","","","","","","","","null","yesOrNo_prac","","","","6","","","gt","700","","","","",""
"","","","","","instructions","62","931718","0.0-13.0-5.0","671c6fad5a9935e94b3025fd","6796e1c0ff24ca17c453c51c","67c7160b86c8488303c98404","passed","[{""page_index"":0,""viewing_time"":11649}]","11650","","","","","","","","","","","","","","","","","","","","","","","","","","","",""
"","","","","","html-keyboard-response","63","935051","0.0-13.0-6.0","671c6fad5a9935e94b3025fd","6796e1c0ff24ca17c453c51c","67c7160b86c8488303c98404","passed","","3332","","","","","","","","","","","","","<p><span style=""font-size:40px;"">Practice Test BLOCK 1</span></p><p><span style=""font-size:25px;"">You have <b style=""color: #FF644F;""><strong>0.7 second(s)</strong></b> to respond to the following trials.</span><br></p><p id=""blinking-text"" style=""font-weight; animation: blink 2s infinite;"">Press Space to continue</p><style>
                    @keyframes blink {
                        50% {
                            opacity: 0;
                        }
                    }
                </style>"," ","","","","","","","","","","","","","",""
"","","","","","html-keyboard-response","64","936628","0.0-13.0-7.0-0.0","671c6fad5a9935e94b3025fd","6796e1c0ff24ca17c453c51c","67c7160b86c8488303c98404","passed","","","","","","","","","","","","","","","","","ballFalling_prac","559","586","302","5","fallScene","false","","","","","","",""
"","","","","","html-keyboard-response","65","937342","0.0-13.0-7.0-1.0","671c6fad5a9935e94b3025fd","6796e1c0ff24ca17c453c51c","67c7160b86c8488303c98404","passed","","null","","","","","","","","","","","","","","null","yesOrNo_prac","","","","5","","","gt","700","","","","",""
"","","","","","html-keyboard-response","66","938892","0.0-13.0-7.0-0.1","671c6fad5a9935e94b3025fd","6796e1c0ff24ca17c453c51c","67c7160b86c8488303c98404","passed","","","","","","","","","","","","","","","","","ballFalling_prac","441","500","317","6","fallScene","true","","","","","","",""
"","","","","","html-keyboard-response","67","939606","0.0-13.0-7.0-1.1","671c6fad5a9935e94b3025fd","6796e1c0ff24ca17c453c51c","67c7160b86c8488303c98404","passed","","574","","","","","","","","","","","","","","j","yesOrNo_prac","","","","6","","","close gt","700","","","","",""
"","","","","","html-keyboard-response","68","941178","0.0-13.0-7.0-0.2","671c6fad5a9935e94b3025fd","6796e1c0ff24ca17c453c51c","67c7160b86c8488303c98404","passed","","","","","","","","","","","","","","","","","ballFalling_prac","340","390","263","4","fallScene","true","","","","","","",""
"","","","","","html-keyboard-response","69","941882","0.0-13.0-7.0-1.2","671c6fad5a9935e94b3025fd","6796e1c0ff24ca17c453c51c","67c7160b86c8488303c98404","passed","","574","","","","","","","","","","","","","","f","yesOrNo_prac","","","","4","","","far gt","700","","","","",""
"","","","","","html-keyboard-response","70","944001","0.0-13.0-8.0","671c6fad5a9935e94b3025fd","6796e1c0ff24ca17c453c51c","67c7160b86c8488303c98404","passed","","2118","","","","","","","","","","","","","<p><span style=""font-size:40px;"">Practice Test BLOCK 2</span></p><p><span style=""font-size:25px;"">You have <b style=""color: #FF644F;""><strong>3 second(s)</strong></b> to respond to the following trials.</span><br></p><p id=""blinking-text"" style=""font-weight; animation: blink 2s infinite;"">Press Space to continue</p><style>
                    @keyframes blink {
                        50% {
                            opacity: 0;
                        }
                    }
                </style>"," ","","","","","","","","","","","","","",""
"","","","","","html-keyboard-response","71","945581","0.0-13.0-9.0-0.0","671c6fad5a9935e94b3025fd","6796e1c0ff24ca17c453c51c","67c7160b86c8488303c98404","passed","","","","","","","","","","","","","","","","","ballFalling_prac","559","586","302","5","fallScene","false","","","","","","",""
"","","","","","html-keyboard-response","72","948586","0.0-13.0-9.0-1.0","671c6fad5a9935e94b3025fd","6796e1c0ff24ca17c453c51c","67c7160b86c8488303c98404","passed","","944","","","","","","","","","","","","","","j","yesOrNo_prac","","","","5","","","far gt","3000","","","","",""
"","","","","","html-keyboard-response","73","950157","0.0-13.0-9.0-0.1","671c6fad5a9935e94b3025fd","6796e1c0ff24ca17c453c51c","67c7160b86c8488303c98404","passed","","","","","","","","","","","","","","","","","ballFalling_prac","340","390","263","4","fallScene","true","","","","","","",""
"","","","","","html-keyboard-response","74","953167","0.0-13.0-9.0-1.1","671c6fad5a9935e94b3025fd","6796e1c0ff24ca17c453c51c","67c7160b86c8488303c98404","passed","","1131","","","","","","","","","","","","","","j","yesOrNo_prac","","","","4","","","close gt","3000","","","","",""
"","","","","","html-keyboard-response","75","954732","0.0-13.0-9.0-0.2","671c6fad5a9935e94b3025fd","6796e1c0ff24ca17c453c51c","67c7160b86c8488303c98404","passed","","","","","","","","","","","","","","","","","ballFalling_prac","416","365","249","2","fallScene","false","","","","","","",""
"","","","","","html-keyboard-response","76","957736","0.0-13.0-9.0-1.2","671c6fad5a9935e94b3025fd","6796e1c0ff24ca17c453c51c","67c7160b86c8488303c98404","passed","","1118","","","","","","","","","","","","","","j","yesOrNo_prac","","","","2","","","gt","3000","","","","",""
"","","","","","instructions","77","973724","0.0-14.0","671c6fad5a9935e94b3025fd","6796e1c0ff24ca17c453c51c","67c7160b86c8488303c98404","passed","[{""page_index"":0,""viewing_time"":15986}]","15986","","","","","","","","","","","","","","","","","","","","","","","","","","","",""
"","","","","","html-keyboard-response","78","975627","0.0-15.0","671c6fad5a9935e94b3025fd","6796e1c0ff24ca17c453c51c","67c7160b86c8488303c98404","passed","","1901","","","","","","","","","","","","","<p><span style=""font-size:40px;"">BLOCK 1</span></p><p><span style=""font-size:25px;"">You have <b style=""color: #FF644F;""><strong>3 second(s)</strong></b> to respond to the following trials.</span><br></p><p></p> <!-- Blank line -->
                <p id=""blinking-text"" style=""font-weight; animation: blink 2s infinite;"">Press Space to continue</p>
                <style>
                    @keyframes blink {
                        50% {
                            opacity: 0;
                        }
                    }
                </style></p>"," ","","","","","","","","","","","","","",""
"","","","","","html-keyboard-response","79","977180","0.0-16.0-0.0","671c6fad5a9935e94b3025fd","6796e1c0ff24ca17c453c51c","67c7160b86c8488303c98404","passed","","","","","","","","","","","","","","","","","ballFalling","322.3","356.42114317029973","357.87","4","fallScene","true","","","","","1","",""
"","","","","","html-keyboard-response","80","980192","0.0-16.0-1.0","671c6fad5a9935e94b3025fd","6796e1c0ff24ca17c453c51c","67c7160b86c8488303c98404","passed","","889","","","","","","","","","","","","","","f","yesOrNo","","","","4","","","lp","3000","","","1","323.3","297.4070551689986"
"","","","","","html-keyboard-response","81","981769","0.0-16.0-0.1","671c6fad5a9935e94b3025fd","6796e1c0ff24ca17c453c51c","67c7160b86c8488303c98404","passed","","","","","","","","","","","","","","","","","ballFalling","322.3","296.07114317029976","371.46","3","fallScene","false","","","","","2","",""
"","","","","","html-keyboard-response","82","984770","0.0-16.0-1.1","671c6fad5a9935e94b3025fd","6796e1c0ff24ca17c453c51c","67c7160b86c8488303c98404","passed","","1485","","","","","","","","","","","","","","f","yesOrNo","","","","3","","","mid","3000","","","2","321.3","300"
"","","","","","html-keyboard-response","83","986266","0.0-16.0-0.2","671c6fad5a9935e94b3025fd","6796e1c0ff24ca17c453c51c","67c7160b86c8488303c98404","passed","","","","","","","","","","","","","","","","","ballFalling","604.4000000000001","667.6211431702998","201.78","9","fallScene","false","","","","","3","",""
"","","","","","html-keyboard-response","84","989276","0.0-16.0-1.2","671c6fad5a9935e94b3025fd","6796e1c0ff24ca17c453c51c","67c7160b86c8488303c98404","passed","","1233","","","","","","","","","","","","","","j","yesOrNo","","","","9","","","gt","3000","","","3","667.6211431702998","201.78"
"","","","","","html-keyboard-response","85","990925","0.0-16.0-0.3","671c6fad5a9935e94b3025fd","6796e1c0ff24ca17c453c51c","67c7160b86c8488303c98404","passed","","","","","","","","","","","","","","","","","ballFalling","500","479.92114317029973","330.87","6","fallScene","false","","","","","4","",""
"","","","","","html-keyboard-response","86","993936","0.0-16.0-1.3","671c6fad5a9935e94b3025fd","6796e1c0ff24ca17c453c51c","67c7160b86c8488303c98404","passed","","1332","","","","","","","","","","","","","","j","yesOrNo","","","","6","","","mid","3000","","","4","499","300"
"","","","","","html-keyboard-response","87","995584","0.0-16.0-0.4","671c6fad5a9935e94b3025fd","6796e1c0ff24ca17c453c51c","67c7160b86c8488303c98404","passed","","","","","","","","","","","","","","","","","ballFalling","500","479.92114317029973","330.87","6","fallScene","false","","","","","5","",""
"","","","","","html-keyboard-response","88","998595","0.0-16.0-1.4","671c6fad5a9935e94b3025fd","6796e1c0ff24ca17c453c51c","67c7160b86c8488303c98404","passed","","1334","","","","","","","","","","","","","","j","yesOrNo","","","","6","","","mid","3000","","","5","499","300"
"","","","","","html-keyboard-response","89","1000152","0.0-16.0-0.5","671c6fad5a9935e94b3025fd","6796e1c0ff24ca17c453c51c","67c7160b86c8488303c98404","passed","","","","","","","","","","","","","","","","","ballFalling","604.4000000000001","650.0211431702996","404.58000000000004","11","fallScene","true","","","","","6","",""
"","","","","","html-keyboard-response","90","1003155","0.0-16.0-1.5","671c6fad5a9935e94b3025fd","6796e1c0ff24ca17c453c51c","67c7160b86c8488303c98404","passed","","1506","","","","","","","","","","","","","","j","yesOrNo","","","","11","","","mid","3000","","","6","605.4000000000001","300"
"","","","","","html-keyboard-response","91","1004962","0.0-16.0-0.6","671c6fad5a9935e94b3025fd","6796e1c0ff24ca17c453c51c","67c7160b86c8488303c98404","passed","","","","","","","","","","","","","","","","","ballFalling","322.3","308.07114317029976","253.89","2","fallScene","false","","","","","7","",""
"","","","","","html-keyboard-response","92","1007964","0.0-16.0-1.6","671c6fad5a9935e94b3025fd","6796e1c0ff24ca17c453c51c","67c7160b86c8488303c98404","passed","","1493","","","","","","","","","","","","","","j","yesOrNo","","","","2","","","mid","3000","","","7","321.3","300"
"","","","","","html-keyboard-response","93","1009529","0.0-16.0-0.7","671c6fad5a9935e94b3025fd","6796e1c0ff24ca17c453c51c","67c7160b86c8488303c98404","passed","","","","","","","","","","","","","","","","","ballFalling","604.4000000000001","650.0211431702996","404.58000000000004","11","fallScene","false","","","","","8","",""
"","","","","","html-keyboard-response","94","1012543","0.0-16.0-1.7","671c6fad5a9935e94b3025fd","6796e1c0ff24ca17c453c51c","67c7160b86c8488303c98404","passed","","1457","","","","","","","","","","","","","","f","yesOrNo","","","","11","","","mid","3000","","","8","605.4000000000001","300"
"","","","","","html-keyboard-response","95","1014047","0.0-16.0-0.8","671c6fad5a9935e94b3025fd","6796e1c0ff24ca17c453c51c","67c7160b86c8488303c98404","passed","","","","","","","","","","","","","","","","","ballFalling","604.4000000000001","667.6211431702998","201.78","9","fallScene","true","","","","","9","",""
"","","","","","html-keyboard-response","96","1017050","0.0-16.0-1.8","671c6fad5a9935e94b3025fd","6796e1c0ff24ca17c453c51c","67c7160b86c8488303c98404","passed","","1461","","","","","","","","","","","","","","f","yesOrNo","","","","9","","","lp","3000","","","9","605.4000000000001","151"
"","","","","","html-keyboard-response","97","1018615","0.0-16.0-0.9","671c6fad5a9935e94b3025fd","6796e1c0ff24ca17c453c51c","67c7160b86c8488303c98404","passed","","","","","","","","","","","","","","","","","ballFalling","604.4000000000001","575.4211431702997","266.76","12","fallScene","false","","","","","10","",""
"","","","","","html-keyboard-response","98","1021627","0.0-16.0-1.9","671c6fad5a9935e94b3025fd","6796e1c0ff24ca17c453c51c","67c7160b86c8488303c98404","passed","","1296","","","","","","","","","","","","","","f","yesOrNo","","","","12","","","mid","3000","","","10","536.4288568297004","300"
"","","","","","html-keyboard-response","99","1023423","0.0-16.0-0.10","671c6fad5a9935e94b3025fd","6796e1c0ff24ca17c453c51c","67c7160b86c8488303c98404","passed","","","","","","","","","","","","","","","","","ballFalling","322.3","308.07114317029976","253.89","2","fallScene","false","","","","","11","",""
"","","","","","html-keyboard-response","100","1026427","0.0-16.0-1.10","671c6fad5a9935e94b3025fd","6796e1c0ff24ca17c453c51c","67c7160b86c8488303c98404","passed","","1081","","","","","","","","","","","","","","j","yesOrNo","","","","2","","","mid","3000","","","11","321.3","300"
"","","","","","html-keyboard-response","101","1028441","0.0-16.0-0.11","671c6fad5a9935e94b3025fd","6796e1c0ff24ca17c453c51c","67c7160b86c8488303c98404","passed","","","","","","","","","","","","","","","","","ballFalling","500","510.8711431702997","369.03","8","fallScene","true","","","","","12","",""
"","","","","","html-keyboard-response","102","1031446","0.0-16.0-1.11","671c6fad5a9935e94b3025fd","6796e1c0ff24ca17c453c51c","67c7160b86c8488303c98404","passed","","1208","","","","","","","","","","","","","","f","yesOrNo","","","","8","","","lp","3000","","","12","501","151"
"","","","","","html-keyboard-response","103","1033013","0.0-16.0-0.12","671c6fad5a9935e94b3025fd","6796e1c0ff24ca17c453c51c","67c7160b86c8488303c98404","passed","","","","","","","","","","","","","","","","","ballFalling","604.4000000000001","650.0211431702996","404.58000000000004","11","fallScene","false","","","","","13","",""
"","","","","","html-keyboard-response","104","1036016","0.0-16.0-1.12","671c6fad5a9935e94b3025fd","6796e1c0ff24ca17c453c51c","67c7160b86c8488303c98404","passed","","1056","","","","","","","","","","","","","","j","yesOrNo","","","","11","","","lp","3000","","","13","605.4000000000001","372.6340973215488"
"","","","","","html-keyboard-response","105","1037568","0.0-16.0-0.13","671c6fad5a9935e94b3025fd","6796e1c0ff24ca17c453c51c","67c7160b86c8488303c98404","passed","","","","","","","","","","","","","","","","","ballFalling","322.3","379.3711431702997","245.25","1","fallScene","true","","","","","14","",""
"","","","","","html-keyboard-response","106","1040588","0.0-16.0-1.13","671c6fad5a9935e94b3025fd","6796e1c0ff24ca17c453c51c","67c7160b86c8488303c98404","passed","","898","","","","","","","","","","","","","","f","yesOrNo","","","","1","","","lp","3000","","","14","323.3","217.74551669457017"
"","","","","","html-keyboard-response","107","1042390","0.0-16.0-0.14","671c6fad5a9935e94b3025fd","6796e1c0ff24ca17c453c51c","67c7160b86c8488303c98404","passed","","","","","","","","","","","","","","","","","ballFalling","322.3","308.07114317029976","253.89","2","fallScene","false","","","","","15","",""
"","","","","","html-keyboard-response","108","1045395","0.0-16.0-1.14","671c6fad5a9935e94b3025fd","6796e1c0ff24ca17c453c51c","67c7160b86c8488303c98404","passed","","1264","","","","","","","","","","","","","","j","yesOrNo","","","","2","","","gt","3000","","","15","308.07114317029976","253.89"
"","","","","","html-keyboard-response","109","1047195","0.0-16.0-0.15","671c6fad5a9935e94b3025fd","6796e1c0ff24ca17c453c51c","67c7160b86c8488303c98404","passed","","","","","","","","","","","","","","","","","ballFalling","322.3","308.07114317029976","253.89","2","fallScene","true","","","","","16","",""
"","","","","","html-keyboard-response","110","1050208","0.0-16.0-1.15","671c6fad5a9935e94b3025fd","6796e1c0ff24ca17c453c51c","67c7160b86c8488303c98404","passed","","1499","","","","","","","","","","","","","","j","yesOrNo","","","","2","","","gt","3000","","","16","308.07114317029976","253.89"
"","","","","","html-keyboard-response","111","1051766","0.0-16.0-0.16","671c6fad5a9935e94b3025fd","6796e1c0ff24ca17c453c51c","67c7160b86c8488303c98404","passed","","","","","","","","","","","","","","","","","ballFalling","322.3","296.07114317029976","371.46","3","fallScene","true","","","","","17","",""
"","","","","","html-keyboard-response","112","1054771","0.0-16.0-1.16","671c6fad5a9935e94b3025fd","6796e1c0ff24ca17c453c51c","67c7160b86c8488303c98404","passed","","1377","","","","","","","","","","","","","","f","yesOrNo","","","","3","","","lp","3000","","","17","321.3","287.3327096511259"
"","","","","","html-keyboard-response","113","1056290","0.0-16.0-0.17","671c6fad5a9935e94b3025fd","6796e1c0ff24ca17c453c51c","67c7160b86c8488303c98404","passed","","","","","","","","","","","","","","","","","ballFalling","604.4000000000001","667.6211431702998","201.78","9","fallScene","true","","","","","18","",""
"","","","","","html-keyboard-response","114","1059297","0.0-16.0-1.17","671c6fad5a9935e94b3025fd","6796e1c0ff24ca17c453c51c","67c7160b86c8488303c98404","passed","","976","","","","","","","","","","","","","","f","yesOrNo","","","","9","","","gt","3000","","","18","667.6211431702998","201.78"
"","","","","","html-keyboard-response","115","1060946","0.0-16.0-0.18","671c6fad5a9935e94b3025fd","6796e1c0ff24ca17c453c51c","67c7160b86c8488303c98404","passed","","","","","","","","","","","","","","","","","ballFalling","500","479.92114317029973","330.87","6","fallScene","false","","","","","19","",""
"","","","","","html-keyboard-response","116","1063963","0.0-16.0-1.18","671c6fad5a9935e94b3025fd","6796e1c0ff24ca17c453c51c","67c7160b86c8488303c98404","passed","","1821","","","","","","","","","","","","","","f","yesOrNo","","","","6","","","lp","3000","","","19","499","189.92909825697632"
"","","","","","html-keyboard-response","117","1065545","0.0-16.0-0.19","671c6fad5a9935e94b3025fd","6796e1c0ff24ca17c453c51c","67c7160b86c8488303c98404","passed","","","","","","","","","","","","","","","","","ballFalling","500","553.4711431702997","282.51","7","fallScene","true","","","","","20","",""
"","","","","","html-keyboard-response","118","1068548","0.0-16.0-1.19","671c6fad5a9935e94b3025fd","6796e1c0ff24ca17c453c51c","67c7160b86c8488303c98404","passed","","907","","","","","","","","","","","","","","j","yesOrNo","","","","7","","","mid","3000","","","20","501","300"
"","","","","","html-keyboard-response","119","1070085","0.0-16.0-0.20","671c6fad5a9935e94b3025fd","6796e1c0ff24ca17c453c51c","67c7160b86c8488303c98404","passed","","","","","","","","","","","","","","","","","ballFalling","604.4000000000001","650.0211431702996","404.58000000000004","11","fallScene","true","","","","","21","",""
"","","","","","html-keyboard-response","120","1073088","0.0-16.0-1.20","671c6fad5a9935e94b3025fd","6796e1c0ff24ca17c453c51c","67c7160b86c8488303c98404","passed","","1344","","","","","","","","","","","","","","j","yesOrNo","","","","11","","","gt","3000","","","21","650.0211431702996","404.58"
"","","","","","html-keyboard-response","121","1074654","0.0-16.0-0.21","671c6fad5a9935e94b3025fd","6796e1c0ff24ca17c453c51c","67c7160b86c8488303c98404","passed","","","","","","","","","","","","","","","","","ballFalling","500","453.67114317029973","210.33","5","fallScene","true","","","","","22","",""
"","","","","","html-keyboard-response","122","1077660","0.0-16.0-1.21","671c6fad5a9935e94b3025fd","6796e1c0ff24ca17c453c51c","67c7160b86c8488303c98404","passed","","773","","","","","","","","","","","","","","f","yesOrNo","","","","5","","","lp","3000","","","22","499","151"
"","","","","","html-keyboard-response","123","1079243","0.0-16.0-0.22","671c6fad5a9935e94b3025fd","6796e1c0ff24ca17c453c51c","67c7160b86c8488303c98404","passed","","","","","","","","","","","","","","","","","ballFalling","500","553.4711431702997","282.51","7","fallScene","true","","","","","23","",""
"","","","","","html-keyboard-response","124","1082255","0.0-16.0-1.22","671c6fad5a9935e94b3025fd","6796e1c0ff24ca17c453c51c","67c7160b86c8488303c98404","passed","","737","","","","","","","","","","","","","","j","yesOrNo","","","","7","","","mid","3000","","","23","501","300"
"","","","","","html-keyboard-response","125","1083815","0.0-16.0-0.23","671c6fad5a9935e94b3025fd","6796e1c0ff24ca17c453c51c","67c7160b86c8488303c98404","passed","","","","","","","","","","","","","","","","","ballFalling","500","453.67114317029973","210.33","5","fallScene","true","","","","","24","",""
"","","","","","html-keyboard-response","126","1086819","0.0-16.0-1.23","671c6fad5a9935e94b3025fd","6796e1c0ff24ca17c453c51c","67c7160b86c8488303c98404","passed","","821","","","","","","","","","","","","","","j","yesOrNo","","","","5","","","mid","3000","","","24","499","300"
"","","","","","html-keyboard-response","127","1089006","0.0-17.0","671c6fad5a9935e94b3025fd","6796e1c0ff24ca17c453c51c","67c7160b86c8488303c98404","passed","","2186","","","","","","","","","","","","","<p><span style=""font-size:40px;"">BLOCK 2</span></p><p><span style=""font-size:25px;"">You have <b style=""color: #FF644F;""><strong>0.7 second(s)</strong></b> to respond to the following trials.</span><br></p><p></p> <!-- Blank line -->
                <p id=""blinking-text"" style=""font-weight; animation: blink 2s infinite;"">Press Space to continue</p>
                <style>
                    @keyframes blink {
                        50% {
                            opacity: 0;
                        }
                    }
                </style></p>"," ","","","","","","","","","","","","","",""
"","","","","","html-keyboard-response","128","1090665","0.0-18.0-0.0","671c6fad5a9935e94b3025fd","6796e1c0ff24ca17c453c51c","67c7160b86c8488303c98404","passed","","","","","","","","","","","","","","","","","ballFalling","500","479.92114317029973","330.87","6","fallScene","false","","","","","25","",""
"","","","","","html-keyboard-response","129","1091371","0.0-18.0-1.0","671c6fad5a9935e94b3025fd","6796e1c0ff24ca17c453c51c","67c7160b86c8488303c98404","passed","","473","","","","","","","","","","","","","","j","yesOrNo","","","","6","","","gt","700","","","25","479.9211431702998","330.87"
"","","","","","html-keyboard-response","130","1092939","0.0-18.0-0.1","671c6fad5a9935e94b3025fd","6796e1c0ff24ca17c453c51c","67c7160b86c8488303c98404","passed","","","","","","","","","","","","","","","","","ballFalling","322.3","356.42114317029973","357.87","4","fallScene","false","","","","","26","",""
"","","","","","html-keyboard-response","131","1093643","0.0-18.0-1.1","671c6fad5a9935e94b3025fd","6796e1c0ff24ca17c453c51c","67c7160b86c8488303c98404","passed","","502","","","","","","","","","","","","","","j","yesOrNo","","","","4","","","gt","700","","","26","356.42114317029973","357.87"
"","","","","","html-keyboard-response","132","1095442","0.0-18.0-0.2","671c6fad5a9935e94b3025fd","6796e1c0ff24ca17c453c51c","67c7160b86c8488303c98404","passed","","","","","","","","","","","","","","","","","ballFalling","322.3","308.07114317029976","253.89","2","fallScene","true","","","","","27","",""
"","","","","","html-keyboard-response","133","1096151","0.0-18.0-1.2","671c6fad5a9935e94b3025fd","6796e1c0ff24ca17c453c51c","67c7160b86c8488303c98404","passed","","null","","","","","","","","","","","","","","null","yesOrNo","","","","2","","","lp","700","","","27","321.3","151"
"","","","","","html-keyboard-response","134","1097704","0.0-18.0-0.3","671c6fad5a9935e94b3025fd","6796e1c0ff24ca17c453c51c","67c7160b86c8488303c98404","passed","","","","","","","","","","","","","","","","","ballFalling","500","453.67114317029973","210.33","5","fallScene","false","","","","","28","",""
"","","","","","html-keyboard-response","135","1098411","0.0-18.0-1.3","671c6fad5a9935e94b3025fd","6796e1c0ff24ca17c453c51c","67c7160b86c8488303c98404","passed","","507","","","","","","","","","","","","","","j","yesOrNo","","","","5","","","gt","700","","","28","453.6711431702998","210.33"
"","","","","","html-keyboard-response","136","1100210","0.0-18.0-0.4","671c6fad5a9935e94b3025fd","6796e1c0ff24ca17c453c51c","67c7160b86c8488303c98404","passed","","","","","","","","","","","","","","","","","ballFalling","322.3","308.07114317029976","253.89","2","fallScene","true","","","","","29","",""
"","","","","","html-keyboard-response","137","1100914","0.0-18.0-1.4","671c6fad5a9935e94b3025fd","6796e1c0ff24ca17c453c51c","67c7160b86c8488303c98404","passed","","640","","","","","","","","","","","","","","f","yesOrNo","","","","2","","","gt","700","","","29","308.07114317029976","253.89"
"","","","","","html-keyboard-response","138","1102466","0.0-18.0-0.5","671c6fad5a9935e94b3025fd","6796e1c0ff24ca17c453c51c","67c7160b86c8488303c98404","passed","","","","","","","","","","","","","","","","","ballFalling","500","453.67114317029973","210.33","5","fallScene","true","","","","","30","",""
"","","","","","html-keyboard-response","139","1103172","0.0-18.0-1.5","671c6fad5a9935e94b3025fd","6796e1c0ff24ca17c453c51c","67c7160b86c8488303c98404","passed","","702","","","","","","","","","","","","","","j","yesOrNo","","","","5","","","gt","700","","","30","453.6711431702998","210.33"
"","","","","","html-keyboard-response","140","1104734","0.0-18.0-0.6","671c6fad5a9935e94b3025fd","6796e1c0ff24ca17c453c51c","67c7160b86c8488303c98404","passed","","","","","","","","","","","","","","","","","ballFalling","322.3","296.07114317029976","371.46","3","fallScene","true","","","","","31","",""
"","","","","","html-keyboard-response","141","1105440","0.0-18.0-1.6","671c6fad5a9935e94b3025fd","6796e1c0ff24ca17c453c51c","67c7160b86c8488303c98404","passed","","null","","","","","","","","","","","","","","null","yesOrNo","","","","3","","","mid","700","","","31","321.3","300"
"","","","","","html-keyboard-response","142","1106936","0.0-18.0-0.7","671c6fad5a9935e94b3025fd","6796e1c0ff24ca17c453c51c","67c7160b86c8488303c98404","passed","","","","","","","","","","","","","","","","","ballFalling","604.4000000000001","667.6211431702998","201.78","9","fallScene","false","","","","","32","",""
"","","","","","html-keyboard-response","143","1107640","0.0-18.0-1.7","671c6fad5a9935e94b3025fd","6796e1c0ff24ca17c453c51c","67c7160b86c8488303c98404","passed","","326","","","","","","","","","","","","","","f","yesOrNo","","","","9","","","gt","700","","","32","667.6211431702998","201.78"
"","","","","","html-keyboard-response","144","1109206","0.0-18.0-0.8","671c6fad5a9935e94b3025fd","6796e1c0ff24ca17c453c51c","67c7160b86c8488303c98404","passed","","","","","","","","","","","","","","","","","ballFalling","322.3","296.07114317029976","371.46","3","fallScene","false","","","","","33","",""
"","","","","","html-keyboard-response","145","1109916","0.0-18.0-1.8","671c6fad5a9935e94b3025fd","6796e1c0ff24ca17c453c51c","67c7160b86c8488303c98404","passed","","null","","","","","","","","","","","","","","null","yesOrNo","","","","3","","","gt","700","","","33","296.07114317029976","371.46"
"","","","","","html-keyboard-response","146","1111491","0.0-18.0-0.9","671c6fad5a9935e94b3025fd","6796e1c0ff24ca17c453c51c","67c7160b86c8488303c98404","passed","","","","","","","","","","","","","","","","","ballFalling","500","553.4711431702997","282.51","7","fallScene","false","","","","","34","",""
"","","","","","html-keyboard-response","147","1112195","0.0-18.0-1.9","671c6fad5a9935e94b3025fd","6796e1c0ff24ca17c453c51c","67c7160b86c8488303c98404","passed","","605","","","","","","","","","","","","","","j","yesOrNo","","","","7","","","gt","700","","","34","553.4711431702997","282.51"
"","","","","","html-keyboard-response","148","1113861","0.0-18.0-0.10","671c6fad5a9935e94b3025fd","6796e1c0ff24ca17c453c51c","67c7160b86c8488303c98404","passed","","","","","","","","","","","","","","","","","ballFalling","500","479.92114317029973","330.87","6","fallScene","false","","","","","35","",""
"","","","","","html-keyboard-response","149","1114575","0.0-18.0-1.10","671c6fad5a9935e94b3025fd","6796e1c0ff24ca17c453c51c","67c7160b86c8488303c98404","passed","","599","","","","","","","","","","","","","","f","yesOrNo","","","","6","","","lp","700","","","35","499","189.92909825697632"
"","","","","","html-keyboard-response","150","1116226","0.0-18.0-0.11","671c6fad5a9935e94b3025fd","6796e1c0ff24ca17c453c51c","67c7160b86c8488303c98404","passed","","","","","","","","","","","","","","","","","ballFalling","500","479.92114317029973","330.87","6","fallScene","false","","","","","36","",""
"","","","","","html-keyboard-response","151","1116938","0.0-18.0-1.11","671c6fad5a9935e94b3025fd","6796e1c0ff24ca17c453c51c","67c7160b86c8488303c98404","passed","","null","","","","","","","","","","","","","","null","yesOrNo","","","","6","","","mid","700","","","36","499","300"
"","","","","","html-keyboard-response","152","1118936","0.0-18.0-0.12","671c6fad5a9935e94b3025fd","6796e1c0ff24ca17c453c51c","67c7160b86c8488303c98404","passed","","","","","","","","","","","","","","","","","ballFalling","500","510.8711431702997","369.03","8","fallScene","false","","","","","37","",""
"","","","","","html-keyboard-response","153","1119644","0.0-18.0-1.12","671c6fad5a9935e94b3025fd","6796e1c0ff24ca17c453c51c","67c7160b86c8488303c98404","passed","","680","","","","","","","","","","","","","","j","yesOrNo","","","","8","","","gt","700","","","37","510.8711431702997","369.03"
"","","","","","html-keyboard-response","154","1121201","0.0-18.0-0.13","671c6fad5a9935e94b3025fd","6796e1c0ff24ca17c453c51c","67c7160b86c8488303c98404","passed","","","","","","","","","","","","","","","","","ballFalling","322.3","379.3711431702997","245.25","1","fallScene","false","","","","","38","",""
"","","","","","html-keyboard-response","155","1121908","0.0-18.0-1.13","671c6fad5a9935e94b3025fd","6796e1c0ff24ca17c453c51c","67c7160b86c8488303c98404","passed","","702","","","","","","","","","","","","","","f","yesOrNo","","","","1","","","gt","700","","","38","379.3711431702997","245.25"
"","","","","","html-keyboard-response","156","1123404","0.0-18.0-0.14","671c6fad5a9935e94b3025fd","6796e1c0ff24ca17c453c51c","67c7160b86c8488303c98404","passed","","","","","","","","","","","","","","","","","ballFalling","604.4000000000001","667.6211431702998","201.78","9","fallScene","true","","","","","39","",""
"","","","","","html-keyboard-response","157","1124110","0.0-18.0-1.14","671c6fad5a9935e94b3025fd","6796e1c0ff24ca17c453c51c","67c7160b86c8488303c98404","passed","","665","","","","","","","","","","","","","","j","yesOrNo","","","","9","","","mid","700","","","39","605.4000000000001","300"
"","","","","","html-keyboard-response","158","1125672","0.0-18.0-0.15","671c6fad5a9935e94b3025fd","6796e1c0ff24ca17c453c51c","67c7160b86c8488303c98404","passed","","","","","","","","","","","","","","","","","ballFalling","604.4000000000001","650.0211431702996","404.58000000000004","11","fallScene","false","","","","","40","",""
"","","","","","html-keyboard-response","159","1126385","0.0-18.0-1.15","671c6fad5a9935e94b3025fd","6796e1c0ff24ca17c453c51c","67c7160b86c8488303c98404","passed","","null","","","","","","","","","","","","","","null","yesOrNo","","","","11","","","lp","700","","","40","605.4000000000001","372.6340973215488"
"","","","","","html-keyboard-response","160","1127941","0.0-18.0-0.16","671c6fad5a9935e94b3025fd","6796e1c0ff24ca17c453c51c","67c7160b86c8488303c98404","passed","","","","","","","","","","","","","","","","","ballFalling","322.3","379.3711431702997","245.25","1","fallScene","false","","","","","41","",""
"","","","","","html-keyboard-response","161","1128643","0.0-18.0-1.16","671c6fad5a9935e94b3025fd","6796e1c0ff24ca17c453c51c","67c7160b86c8488303c98404","passed","","497","","","","","","","","","","","","","","j","yesOrNo","","","","1","","","lp","700","","","41","323.3","217.74551669457017"
"","","","","","html-keyboard-response","162","1130151","0.0-18.0-0.17","671c6fad5a9935e94b3025fd","6796e1c0ff24ca17c453c51c","67c7160b86c8488303c98404","passed","","","","","","","","","","","","","","","","","ballFalling","604.4000000000001","667.6211431702998","201.78","9","fallScene","true","","","","","42","",""
"","","","","","html-keyboard-response","163","1130856","0.0-18.0-1.17","671c6fad5a9935e94b3025fd","6796e1c0ff24ca17c453c51c","67c7160b86c8488303c98404","passed","","611","","","","","","","","","","","","","","f","yesOrNo","","","","9","","","lp","700","","","42","605.4000000000001","151"
"","","","","","html-keyboard-response","164","1132412","0.0-18.0-0.18","671c6fad5a9935e94b3025fd","6796e1c0ff24ca17c453c51c","67c7160b86c8488303c98404","passed","","","","","","","","","","","","","","","","","ballFalling","604.4000000000001","650.0211431702996","404.58000000000004","11","fallScene","true","","","","","43","",""
"","","","","","html-keyboard-response","165","1133121","0.0-18.0-1.18","671c6fad5a9935e94b3025fd","6796e1c0ff24ca17c453c51c","67c7160b86c8488303c98404","passed","","422","","","","","","","","","","","","","","j","yesOrNo","","","","11","","","gt","700","","","43","650.0211431702996","404.58"
"","","","","","html-keyboard-response","166","1134681","0.0-18.0-0.19","671c6fad5a9935e94b3025fd","6796e1c0ff24ca17c453c51c","67c7160b86c8488303c98404","passed","","","","","","","","","","","","","","","","","ballFalling","500","553.4711431702997","282.51","7","fallScene","false","","","","","44","",""
"","","","","","html-keyboard-response","167","1135386","0.0-18.0-1.19","671c6fad5a9935e94b3025fd","6796e1c0ff24ca17c453c51c","67c7160b86c8488303c98404","passed","","697","","","","","","","","","","","","","","j","yesOrNo","","","","7","","","lp","700","","","44","501","227.2843295913261"
"","","","","","html-keyboard-response","168","1137184","0.0-18.0-0.20","671c6fad5a9935e94b3025fd","6796e1c0ff24ca17c453c51c","67c7160b86c8488303c98404","passed","","","","","","","","","","","","","","","","","ballFalling","322.3","308.07114317029976","253.89","2","fallScene","true","","","","","45","",""
"","","","","","html-keyboard-response","169","1137888","0.0-18.0-1.20","671c6fad5a9935e94b3025fd","6796e1c0ff24ca17c453c51c","67c7160b86c8488303c98404","passed","","528","","","","","","","","","","","","","","j","yesOrNo","","","","2","","","mid","700","","","45","321.3","300"
"","","","","","html-keyboard-response","170","1139453","0.0-18.0-0.21","671c6fad5a9935e94b3025fd","6796e1c0ff24ca17c453c51c","67c7160b86c8488303c98404","passed","","","","","","","","","","","","","","","","","ballFalling","322.3","356.42114317029973","357.87","4","fallScene","true","","","","","46","",""
"","","","","","html-keyboard-response","171","1140159","0.0-18.0-1.21","671c6fad5a9935e94b3025fd","6796e1c0ff24ca17c453c51c","67c7160b86c8488303c98404","passed","","545","","","","","","","","","","","","","","j","yesOrNo","","","","4","","","mid","700","","","46","390.27114317029975","300"
"","","","","","html-keyboard-response","172","1141722","0.0-18.0-0.22","671c6fad5a9935e94b3025fd","6796e1c0ff24ca17c453c51c","67c7160b86c8488303c98404","passed","","","","","","","","","","","","","","","","","ballFalling","322.3","296.07114317029976","371.46","3","fallScene","false","","","","","47","",""
"","","","","","html-keyboard-response","173","1142431","0.0-18.0-1.22","671c6fad5a9935e94b3025fd","6796e1c0ff24ca17c453c51c","67c7160b86c8488303c98404","passed","","586","","","","","","","","","","","","","","j","yesOrNo","","","","3","","","gt","700","","","47","296.07114317029976","371.46"
"","","","","","html-keyboard-response","174","1144090","0.0-18.0-0.23","671c6fad5a9935e94b3025fd","6796e1c0ff24ca17c453c51c","67c7160b86c8488303c98404","passed","","","","","","","","","","","","","","","","","ballFalling","500","479.92114317029973","330.87","6","fallScene","false","","","","","48","",""
"","","","","","html-keyboard-response","175","1144794","0.0-18.0-1.23","671c6fad5a9935e94b3025fd","6796e1c0ff24ca17c453c51c","67c7160b86c8488303c98404","passed","","628","","","","","","","","","","","","","","f","yesOrNo","","","","6","","","lp","700","","","48","499","189.92909825697632"
"","","","","","html-keyboard-response","176","1146372","0.0-19.0","671c6fad5a9935e94b3025fd","6796e1c0ff24ca17c453c51c","67c7160b86c8488303c98404","passed","","1577","","","","","","","","","","","","","<p><span style=""font-size:40px;"">BLOCK 3</span></p><p><span style=""font-size:25px;"">You have <b style=""color: #FF644F;""><strong>3 second(s)</strong></b> to respond to the following trials.</span><br></p><p></p> <!-- Blank line -->
                <p id=""blinking-text"" style=""font-weight; animation: blink 2s infinite;"">Press Space to continue</p>
                <style>
                    @keyframes blink {
                        50% {
                            opacity: 0;
                        }
                    }
                </style></p>"," ","","","","","","","","","","","","","",""
"","","","","","html-keyboard-response","177","1147924","0.0-20.0-0.0","671c6fad5a9935e94b3025fd","6796e1c0ff24ca17c453c51c","67c7160b86c8488303c98404","passed","","","","","","","","","","","","","","","","","ballFalling","604.4000000000001","650.0211431702996","404.58000000000004","11","fallScene","false","","","","","49","",""
"","","","","","html-keyboard-response","178","1150931","0.0-20.0-1.0","671c6fad5a9935e94b3025fd","6796e1c0ff24ca17c453c51c","67c7160b86c8488303c98404","passed","","601","","","","","","","","","","","","","","j","yesOrNo","","","","11","","","gt","3000","","","49","650.0211431702996","404.58"
"","","","","","html-keyboard-response","179","1152482","0.0-20.0-0.1","671c6fad5a9935e94b3025fd","6796e1c0ff24ca17c453c51c","67c7160b86c8488303c98404","passed","","","","","","","","","","","","","","","","","ballFalling","604.4000000000001","575.4211431702997","266.76","12","fallScene","false","","","","","50","",""
"","","","","","html-keyboard-response","180","1155490","0.0-20.0-1.1","671c6fad5a9935e94b3025fd","6796e1c0ff24ca17c453c51c","67c7160b86c8488303c98404","passed","","831","","","","","","","","","","","","","","f","yesOrNo","","","","12","","","lp","3000","","","50","603.4000000000001","151"
"","","","","","html-keyboard-response","181","1157042","0.0-20.0-0.2","671c6fad5a9935e94b3025fd","6796e1c0ff24ca17c453c51c","67c7160b86c8488303c98404","passed","","","","","","","","","","","","","","","","","ballFalling","322.3","296.07114317029976","371.46","3","fallScene","false","","","","","51","",""
"","","","","","html-keyboard-response","182","1160055","0.0-20.0-1.2","671c6fad5a9935e94b3025fd","6796e1c0ff24ca17c453c51c","67c7160b86c8488303c98404","passed","","513","","","","","","","","","","","","","","j","yesOrNo","","","","3","","","mid","3000","","","51","321.3","300"
"","","","","","html-keyboard-response","183","1161618","0.0-20.0-0.3","671c6fad5a9935e94b3025fd","6796e1c0ff24ca17c453c51c","67c7160b86c8488303c98404","passed","","","","","","","","","","","","","","","","","ballFalling","500","453.67114317029973","210.33","5","fallScene","false","","","","","52","",""
"","","","","","html-keyboard-response","184","1164627","0.0-20.0-1.3","671c6fad5a9935e94b3025fd","6796e1c0ff24ca17c453c51c","67c7160b86c8488303c98404","passed","","1107","","","","","","","","","","","","","","j","yesOrNo","","","","5","","","gt","3000","","","52","453.6711431702998","210.33"
"","","","","","html-keyboard-response","185","1166194","0.0-20.0-0.4","671c6fad5a9935e94b3025fd","6796e1c0ff24ca17c453c51c","67c7160b86c8488303c98404","passed","","","","","","","","","","","","","","","","","ballFalling","322.3","356.42114317029973","357.87","4","fallScene","false","","","","","53","",""
"","","","","","html-keyboard-response","186","1169197","0.0-20.0-1.4","671c6fad5a9935e94b3025fd","6796e1c0ff24ca17c453c51c","67c7160b86c8488303c98404","passed","","1153","","","","","","","","","","","","","","f","yesOrNo","","","","4","","","gt","3000","","","53","356.42114317029973","357.87"
"","","","","","html-keyboard-response","187","1170750","0.0-20.0-0.5","671c6fad5a9935e94b3025fd","6796e1c0ff24ca17c453c51c","67c7160b86c8488303c98404","passed","","","","","","","","","","","","","","","","","ballFalling","322.3","379.3711431702997","245.25","1","fallScene","false","","","","","54","",""
"","","","","","html-keyboard-response","188","1173754","0.0-20.0-1.5","671c6fad5a9935e94b3025fd","6796e1c0ff24ca17c453c51c","67c7160b86c8488303c98404","passed","","1069","","","","","","","","","","","","","","j","yesOrNo","","","","1","","","lp","3000","","","54","323.3","217.74551669457017"
"","","","","","html-keyboard-response","189","1175323","0.0-20.0-0.6","671c6fad5a9935e94b3025fd","6796e1c0ff24ca17c453c51c","67c7160b86c8488303c98404","passed","","","","","","","","","","","","","","","","","ballFalling","604.4000000000001","575.4211431702997","266.76","12","fallScene","false","","","","","55","",""
"","","","","","html-keyboard-response","190","1178327","0.0-20.0-1.6","671c6fad5a9935e94b3025fd","6796e1c0ff24ca17c453c51c","67c7160b86c8488303c98404","passed","","825","","","","","","","","","","","","","","f","yesOrNo","","","","12","","","mid","3000","","","55","536.4288568297004","300"
"","","","","","html-keyboard-response","191","1179993","0.0-20.0-0.7","671c6fad5a9935e94b3025fd","6796e1c0ff24ca17c453c51c","67c7160b86c8488303c98404","passed","","","","","","","","","","","","","","","","","ballFalling","500","479.92114317029973","330.87","6","fallScene","true","","","","","56","",""
"","","","","","html-keyboard-response","192","1182998","0.0-20.0-1.7","671c6fad5a9935e94b3025fd","6796e1c0ff24ca17c453c51c","67c7160b86c8488303c98404","passed","","1426","","","","","","","","","","","","","","f","yesOrNo","","","","6","","","lp","3000","","","56","499","189.92909825697632"
"","","","","","html-keyboard-response","193","1184998","0.0-20.0-0.8","671c6fad5a9935e94b3025fd","6796e1c0ff24ca17c453c51c","67c7160b86c8488303c98404","passed","","","","","","","","","","","","","","","","","ballFalling","500","510.8711431702997","369.03","8","fallScene","false","","","","","57","",""
"","","","","","html-keyboard-response","194","1188004","0.0-20.0-1.8","671c6fad5a9935e94b3025fd","6796e1c0ff24ca17c453c51c","67c7160b86c8488303c98404","passed","","969","","","","","","","","","","","","","","j","yesOrNo","","","","8","","","mid","3000","","","57","501","300"
"","","","","","html-keyboard-response","195","1189570","0.0-20.0-0.9","671c6fad5a9935e94b3025fd","6796e1c0ff24ca17c453c51c","67c7160b86c8488303c98404","passed","","","","","","","","","","","","","","","","","ballFalling","322.3","296.07114317029976","371.46","3","fallScene","false","","","","","58","",""
"","","","","","html-keyboard-response","196","1192580","0.0-20.0-1.9","671c6fad5a9935e94b3025fd","6796e1c0ff24ca17c453c51c","67c7160b86c8488303c98404","passed","","821","","","","","","","","","","","","","","f","yesOrNo","","","","3","","","gt","3000","","","58","296.07114317029976","371.46"
"","","","","","html-keyboard-response","197","1194140","0.0-20.0-0.10","671c6fad5a9935e94b3025fd","6796e1c0ff24ca17c453c51c","67c7160b86c8488303c98404","passed","","","","","","","","","","","","","","","","","ballFalling","322.3","356.42114317029973","357.87","4","fallScene","false","","","","","59","",""
"","","","","","html-keyboard-response","198","1197145","0.0-20.0-1.10","671c6fad5a9935e94b3025fd","6796e1c0ff24ca17c453c51c","67c7160b86c8488303c98404","passed","","776","","","","","","","","","","","","","","j","yesOrNo","","","","4","","","lp","3000","","","59","323.3","297.4070551689986"
"","","","","","html-keyboard-response","199","1198695","0.0-20.0-0.11","671c6fad5a9935e94b3025fd","6796e1c0ff24ca17c453c51c","67c7160b86c8488303c98404","passed","","","","","","","","","","","","","","","","","ballFalling","500","453.67114317029973","210.33","5","fallScene","true","","","","","60","",""
"","","","","","html-keyboard-response","200","1201710","0.0-20.0-1.11","671c6fad5a9935e94b3025fd","6796e1c0ff24ca17c453c51c","67c7160b86c8488303c98404","passed","","1048","","","","","","","","","","","","","","f","yesOrNo","","","","5","","","gt","3000","","","60","453.6711431702998","210.33"
"","","","","","html-keyboard-response","201","1203726","0.0-20.0-0.12","671c6fad5a9935e94b3025fd","6796e1c0ff24ca17c453c51c","67c7160b86c8488303c98404","passed","","","","","","","","","","","","","","","","","ballFalling","500","510.8711431702997","369.03","8","fallScene","true","","","","","61","",""
"","","","","","html-keyboard-response","202","1206729","0.0-20.0-1.12","671c6fad5a9935e94b3025fd","6796e1c0ff24ca17c453c51c","67c7160b86c8488303c98404","passed","","1055","","","","","","","","","","","","","","j","yesOrNo","","","","8","","","lp","3000","","","61","501","151"
"","","","","","html-keyboard-response","203","1208294","0.0-20.0-0.13","671c6fad5a9935e94b3025fd","6796e1c0ff24ca17c453c51c","67c7160b86c8488303c98404","passed","","","","","","","","","","","","","","","","","ballFalling","322.3","356.42114317029973","357.87","4","fallScene","true","","","","","62","",""
"","","","","","html-keyboard-response","204","1211309","0.0-20.0-1.13","671c6fad5a9935e94b3025fd","6796e1c0ff24ca17c453c51c","67c7160b86c8488303c98404","passed","","1352","","","","","","","","","","","","","","j","yesOrNo","","","","4","","","mid","3000","","","62","390.27114317029975","300"
"","","","","","html-keyboard-response","205","1213110","0.0-20.0-0.14","671c6fad5a9935e94b3025fd","6796e1c0ff24ca17c453c51c","67c7160b86c8488303c98404","passed","","","","","","","","","","","","","","","","","ballFalling","322.3","308.07114317029976","253.89","2","fallScene","true","","","","","63","",""
"","","","","","html-keyboard-response","206","1216116","0.0-20.0-1.14","671c6fad5a9935e94b3025fd","6796e1c0ff24ca17c453c51c","67c7160b86c8488303c98404","passed","","867","","","","","","","","","","","","","","f","yesOrNo","","","","2","","","lp","3000","","","63","321.3","151"
"","","","","","html-keyboard-response","207","1218115","0.0-20.0-0.15","671c6fad5a9935e94b3025fd","6796e1c0ff24ca17c453c51c","67c7160b86c8488303c98404","passed","","","","","","","","","","","","","","","","","ballFalling","500","510.8711431702997","369.03","8","fallScene","false","","","","","64","",""
"","","","","","html-keyboard-response","208","1221119","0.0-20.0-1.15","671c6fad5a9935e94b3025fd","6796e1c0ff24ca17c453c51c","67c7160b86c8488303c98404","passed","","828","","","","","","","","","","","","","","j","yesOrNo","","","","8","","","gt","3000","","","64","510.8711431702997","369.03"
"","","","","","html-keyboard-response","209","1222686","0.0-20.0-0.16","671c6fad5a9935e94b3025fd","6796e1c0ff24ca17c453c51c","67c7160b86c8488303c98404","passed","","","","","","","","","","","","","","","","","ballFalling","322.3","379.3711431702997","245.25","1","fallScene","false","","","","","65","",""
"","","","","","html-keyboard-response","210","1225691","0.0-20.0-1.16","671c6fad5a9935e94b3025fd","6796e1c0ff24ca17c453c51c","67c7160b86c8488303c98404","passed","","1505","","","","","","","","","","","","","","j","yesOrNo","","","","1","","","gt","3000","","","65","379.3711431702997","245.25"
"","","","","","html-keyboard-response","211","1227361","0.0-20.0-0.17","671c6fad5a9935e94b3025fd","6796e1c0ff24ca17c453c51c","67c7160b86c8488303c98404","passed","","","","","","","","","","","","","","","","","ballFalling","500","479.92114317029973","330.87","6","fallScene","true","","","","","66","",""
"","","","","","html-keyboard-response","212","1230366","0.0-20.0-1.17","671c6fad5a9935e94b3025fd","6796e1c0ff24ca17c453c51c","67c7160b86c8488303c98404","passed","","1194","","","","","","","","","","","","","","j","yesOrNo","","","","6","","","gt","3000","","","66","479.9211431702998","330.87"
"","","","","","html-keyboard-response","213","1231942","0.0-20.0-0.18","671c6fad5a9935e94b3025fd","6796e1c0ff24ca17c453c51c","67c7160b86c8488303c98404","passed","","","","","","","","","","","","","","","","","ballFalling","322.3","356.42114317029973","357.87","4","fallScene","false","","","","","67","",""
"","","","","","html-keyboard-response","214","1234947","0.0-20.0-1.18","671c6fad5a9935e94b3025fd","6796e1c0ff24ca17c453c51c","67c7160b86c8488303c98404","passed","","1265","","","","","","","","","","","","","","f","yesOrNo","","","","4","","","gt","3000","","","67","356.42114317029973","357.87"
"","","","","","html-keyboard-response","215","1236483","0.0-20.0-0.19","671c6fad5a9935e94b3025fd","6796e1c0ff24ca17c453c51c","67c7160b86c8488303c98404","passed","","","","","","","","","","","","","","","","","ballFalling","500","453.67114317029973","210.33","5","fallScene","true","","","","","68","",""
"","","","","","html-keyboard-response","216","1239491","0.0-20.0-1.19","671c6fad5a9935e94b3025fd","6796e1c0ff24ca17c453c51c","67c7160b86c8488303c98404","passed","","799","","","","","","","","","","","","","","j","yesOrNo","","","","5","","","lp","3000","","","68","499","151"
"","","","","","html-keyboard-response","217","1241287","0.0-20.0-0.20","671c6fad5a9935e94b3025fd","6796e1c0ff24ca17c453c51c","67c7160b86c8488303c98404","passed","","","","","","","","","","","","","","","","","ballFalling","322.3","308.07114317029976","253.89","2","fallScene","true","","","","","69","",""
"","","","","","html-keyboard-response","218","1244305","0.0-20.0-1.20","671c6fad5a9935e94b3025fd","6796e1c0ff24ca17c453c51c","67c7160b86c8488303c98404","passed","","986","","","","","","","","","","","","","","f","yesOrNo","","","","2","","","lp","3000","","","69","321.3","151"
"","","","","","html-keyboard-response","219","1246310","0.0-20.0-0.21","671c6fad5a9935e94b3025fd","6796e1c0ff24ca17c453c51c","67c7160b86c8488303c98404","passed","","","","","","","","","","","","","","","","","ballFalling","604.4000000000001","596.8711431702998","394.5","10","fallScene","false","","","","","70","",""
"","","","","","html-keyboard-response","220","1249324","0.0-20.0-1.21","671c6fad5a9935e94b3025fd","6796e1c0ff24ca17c453c51c","67c7160b86c8488303c98404","passed","","1248","","","","","","","","","","","","","","f","yesOrNo","","","","10","","","lp","3000","","","70","603.4000000000001","215.50214355555383"
"","","","","","html-keyboard-response","221","1250898","0.0-20.0-0.22","671c6fad5a9935e94b3025fd","6796e1c0ff24ca17c453c51c","67c7160b86c8488303c98404","passed","","","","","","","","","","","","","","","","","ballFalling","500","553.4711431702997","282.51","7","fallScene","true","","","","","71","",""
"","","","","","html-keyboard-response","222","1253914","0.0-20.0-1.22","671c6fad5a9935e94b3025fd","6796e1c0ff24ca17c453c51c","67c7160b86c8488303c98404","passed","","1109","","","","","","","","","","","","","","j","yesOrNo","","","","7","","","lp","3000","","","71","501","227.2843295913261"
"","","","","","html-keyboard-response","223","1255452","0.0-20.0-0.23","671c6fad5a9935e94b3025fd","6796e1c0ff24ca17c453c51c","67c7160b86c8488303c98404","passed","","","","","","","","","","","","","","","","","ballFalling","322.3","296.07114317029976","371.46","3","fallScene","false","","","","","72","",""
"","","","","","html-keyboard-response","224","1258461","0.0-20.0-1.23","671c6fad5a9935e94b3025fd","6796e1c0ff24ca17c453c51c","67c7160b86c8488303c98404","passed","","1000","","","","","","","","","","","","","","j","yesOrNo","","","","3","","","gt","3000","","","72","296.07114317029976","371.46"
"","","","","","html-keyboard-response","225","1260320","0.0-21.0","671c6fad5a9935e94b3025fd","6796e1c0ff24ca17c453c51c","67c7160b86c8488303c98404","passed","","1858","","","","","","","","","","","","","<p><span style=""font-size:40px;"">BLOCK 4</span></p><p><span style=""font-size:25px;"">You have <b style=""color: #FF644F;""><strong>3 second(s)</strong></b> to respond to the following trials.</span><br></p><p></p> <!-- Blank line -->
                <p id=""blinking-text"" style=""font-weight; animation: blink 2s infinite;"">Press Space to continue</p>
                <style>
                    @keyframes blink {
                        50% {
                            opacity: 0;
                        }
                    }
                </style></p>"," ","","","","","","","","","","","","","",""
"","","","","","html-keyboard-response","226","1261868","0.0-22.0-0.0","671c6fad5a9935e94b3025fd","6796e1c0ff24ca17c453c51c","67c7160b86c8488303c98404","passed","","","","","","","","","","","","","","","","","ballFalling","322.3","356.42114317029973","357.87","4","fallScene","true","","","","","73","",""
"","","","","","html-keyboard-response","227","1264871","0.0-22.0-1.0","671c6fad5a9935e94b3025fd","6796e1c0ff24ca17c453c51c","67c7160b86c8488303c98404","passed","","866","","","","","","","","","","","","","","j","yesOrNo","","","","4","","","mid","3000","","","73","390.27114317029975","300"
"","","","","","html-keyboard-response","228","1266430","0.0-22.0-0.1","671c6fad5a9935e94b3025fd","6796e1c0ff24ca17c453c51c","67c7160b86c8488303c98404","passed","","","","","","","","","","","","","","","","","ballFalling","500","453.67114317029973","210.33","5","fallScene","false","","","","","74","",""
"","","","","","html-keyboard-response","229","1269444","0.0-22.0-1.1","671c6fad5a9935e94b3025fd","6796e1c0ff24ca17c453c51c","67c7160b86c8488303c98404","passed","","1200","","","","","","","","","","","","","","j","yesOrNo","","","","5","","","mid","3000","","","74","499","300"
"","","","","","html-keyboard-response","230","1271451","0.0-22.0-0.2","671c6fad5a9935e94b3025fd","6796e1c0ff24ca17c453c51c","67c7160b86c8488303c98404","passed","","","","","","","","","","","","","","","","","ballFalling","500","510.8711431702997","369.03","8","fallScene","true","","","","","75","",""
"","","","","","html-keyboard-response","231","1274455","0.0-22.0-1.2","671c6fad5a9935e94b3025fd","6796e1c0ff24ca17c453c51c","67c7160b86c8488303c98404","passed","","763","","","","","","","","","","","","","","j","yesOrNo","","","","8","","","mid","3000","","","75","501","300"
"","","","","","html-keyboard-response","232","1276133","0.0-22.0-0.3","671c6fad5a9935e94b3025fd","6796e1c0ff24ca17c453c51c","67c7160b86c8488303c98404","passed","","","","","","","","","","","","","","","","","ballFalling","500","479.92114317029973","330.87","6","fallScene","false","","","","","76","",""
"","","","","","html-keyboard-response","233","1279135","0.0-22.0-1.3","671c6fad5a9935e94b3025fd","6796e1c0ff24ca17c453c51c","67c7160b86c8488303c98404","passed","","983","","","","","","","","","","","","","","j","yesOrNo","","","","6","","","gt","3000","","","76","479.9211431702998","330.87"
"","","","","","html-keyboard-response","234","1281127","0.0-22.0-0.4","671c6fad5a9935e94b3025fd","6796e1c0ff24ca17c453c51c","67c7160b86c8488303c98404","passed","","","","","","","","","","","","","","","","","ballFalling","604.4000000000001","596.8711431702998","394.5","10","fallScene","true","","","","","77","",""
"","","","","","html-keyboard-response","235","1284131","0.0-22.0-1.4","671c6fad5a9935e94b3025fd","6796e1c0ff24ca17c453c51c","67c7160b86c8488303c98404","passed","","1029","","","","","","","","","","","","","","j","yesOrNo","","","","10","","","gt","3000","","","77","596.8711431702998","394.5"
"","","","","","html-keyboard-response","236","1285699","0.0-22.0-0.5","671c6fad5a9935e94b3025fd","6796e1c0ff24ca17c453c51c","67c7160b86c8488303c98404","passed","","","","","","","","","","","","","","","","","ballFalling","322.3","379.3711431702997","245.25","1","fallScene","false","","","","","78","",""
"","","","","","html-keyboard-response","237","1288706","0.0-22.0-1.5","671c6fad5a9935e94b3025fd","6796e1c0ff24ca17c453c51c","67c7160b86c8488303c98404","passed","","960","","","","","","","","","","","","","","f","yesOrNo","","","","1","","","mid","3000","","","78","390.27114317029975","300"
"","","","","","html-keyboard-response","238","1290271","0.0-22.0-0.6","671c6fad5a9935e94b3025fd","6796e1c0ff24ca17c453c51c","67c7160b86c8488303c98404","passed","","","","","","","","","","","","","","","","","ballFalling","322.3","379.3711431702997","245.25","1","fallScene","false","","","","","79","",""
"","","","","","html-keyboard-response","239","1293276","0.0-22.0-1.6","671c6fad5a9935e94b3025fd","6796e1c0ff24ca17c453c51c","67c7160b86c8488303c98404","passed","","989","","","","","","","","","","","","","","j","yesOrNo","","","","1","","","gt","3000","","","79","379.3711431702997","245.25"
"","","","","","html-keyboard-response","240","1295274","0.0-22.0-0.7","671c6fad5a9935e94b3025fd","6796e1c0ff24ca17c453c51c","67c7160b86c8488303c98404","passed","","","","","","","","","","","","","","","","","ballFalling","604.4000000000001","596.8711431702998","394.5","10","fallScene","false","","","","","80","",""
"","","","","","html-keyboard-response","241","1298280","0.0-22.0-1.7","671c6fad5a9935e94b3025fd","6796e1c0ff24ca17c453c51c","67c7160b86c8488303c98404","passed","","1087","","","","","","","","","","","","","","j","yesOrNo","","","","10","","","gt","3000","","","80","596.8711431702998","394.5"
"","","","","","html-keyboard-response","242","1300280","0.0-22.0-0.8","671c6fad5a9935e94b3025fd","6796e1c0ff24ca17c453c51c","67c7160b86c8488303c98404","passed","","","","","","","","","","","","","","","","","ballFalling","604.4000000000001","596.8711431702998","394.5","10","fallScene","false","","","","","81","",""
"","","","","","html-keyboard-response","243","1303284","0.0-22.0-1.8","671c6fad5a9935e94b3025fd","6796e1c0ff24ca17c453c51c","67c7160b86c8488303c98404","passed","","1100","","","","","","","","","","","","","","f","yesOrNo","","","","10","","","mid","3000","","","81","536.4288568297004","300"
"","","","","","html-keyboard-response","244","1304870","0.0-22.0-0.9","671c6fad5a9935e94b3025fd","6796e1c0ff24ca17c453c51c","67c7160b86c8488303c98404","passed","","","","","","","","","","","","","","","","","ballFalling","500","553.4711431702997","282.51","7","fallScene","false","","","","","82","",""
"","","","","","html-keyboard-response","245","1307875","0.0-22.0-1.9","671c6fad5a9935e94b3025fd","6796e1c0ff24ca17c453c51c","67c7160b86c8488303c98404","passed","","803","","","","","","","","","","","","","","j","yesOrNo","","","","7","","","gt","3000","","","82","553.4711431702997","282.51"
"","","","","","html-keyboard-response","246","1309439","0.0-22.0-0.10","671c6fad5a9935e94b3025fd","6796e1c0ff24ca17c453c51c","67c7160b86c8488303c98404","passed","","","","","","","","","","","","","","","","","ballFalling","604.4000000000001","650.0211431702996","404.58000000000004","11","fallScene","false","","","","","83","",""
"","","","","","html-keyboard-response","247","1312444","0.0-22.0-1.10","671c6fad5a9935e94b3025fd","6796e1c0ff24ca17c453c51c","67c7160b86c8488303c98404","passed","","1279","","","","","","","","","","","","","","j","yesOrNo","","","","11","","","lp","3000","","","83","605.4000000000001","372.6340973215488"
"","","","","","html-keyboard-response","248","1314011","0.0-22.0-0.11","671c6fad5a9935e94b3025fd","6796e1c0ff24ca17c453c51c","67c7160b86c8488303c98404","passed","","","","","","","","","","","","","","","","","ballFalling","500","553.4711431702997","282.51","7","fallScene","false","","","","","84","",""
"","","","","","html-keyboard-response","249","1317018","0.0-22.0-1.11","671c6fad5a9935e94b3025fd","6796e1c0ff24ca17c453c51c","67c7160b86c8488303c98404","passed","","1115","","","","","","","","","","","","","","j","yesOrNo","","","","7","","","lp","3000","","","84","501","227.2843295913261"
"","","","","","html-keyboard-response","250","1319042","0.0-22.0-0.12","671c6fad5a9935e94b3025fd","6796e1c0ff24ca17c453c51c","67c7160b86c8488303c98404","passed","","","","","","","","","","","","","","","","","ballFalling","500","510.8711431702997","369.03","8","fallScene","true","","","","","85","",""
"","","","","","html-keyboard-response","251","1322044","0.0-22.0-1.12","671c6fad5a9935e94b3025fd","6796e1c0ff24ca17c453c51c","67c7160b86c8488303c98404","passed","","850","","","","","","","","","","","","","","j","yesOrNo","","","","8","","","gt","3000","","","85","510.8711431702997","369.03"
"","","","","","html-keyboard-response","252","1323537","0.0-22.0-0.13","671c6fad5a9935e94b3025fd","6796e1c0ff24ca17c453c51c","67c7160b86c8488303c98404","passed","","","","","","","","","","","","","","","","","ballFalling","604.4000000000001","667.6211431702998","201.78","9","fallScene","true","","","","","86","",""
"","","","","","html-keyboard-response","253","1326540","0.0-22.0-1.13","671c6fad5a9935e94b3025fd","6796e1c0ff24ca17c453c51c","67c7160b86c8488303c98404","passed","","732","","","","","","","","","","","","","","j","yesOrNo","","","","9","","","mid","3000","","","86","605.4000000000001","300"
"","","","","","html-keyboard-response","254","1328108","0.0-22.0-0.14","671c6fad5a9935e94b3025fd","6796e1c0ff24ca17c453c51c","67c7160b86c8488303c98404","passed","","","","","","","","","","","","","","","","","ballFalling","322.3","379.3711431702997","245.25","1","fallScene","false","","","","","87","",""
"","","","","","html-keyboard-response","255","1331113","0.0-22.0-1.14","671c6fad5a9935e94b3025fd","6796e1c0ff24ca17c453c51c","67c7160b86c8488303c98404","passed","","1320","","","","","","","","","","","","","","f","yesOrNo","","","","1","","","mid","3000","","","87","390.27114317029975","300"
"","","","","","html-keyboard-response","256","1332687","0.0-22.0-0.15","671c6fad5a9935e94b3025fd","6796e1c0ff24ca17c453c51c","67c7160b86c8488303c98404","passed","","","","","","","","","","","","","","","","","ballFalling","500","553.4711431702997","282.51","7","fallScene","false","","","","","88","",""
"","","","","","html-keyboard-response","257","1335692","0.0-22.0-1.15","671c6fad5a9935e94b3025fd","6796e1c0ff24ca17c453c51c","67c7160b86c8488303c98404","passed","","980","","","","","","","","","","","","","","j","yesOrNo","","","","7","","","gt","3000","","","88","553.4711431702997","282.51"
"","","","","","html-keyboard-response","258","1337184","0.0-22.0-0.16","671c6fad5a9935e94b3025fd","6796e1c0ff24ca17c453c51c","67c7160b86c8488303c98404","passed","","","","","","","","","","","","","","","","","ballFalling","604.4000000000001","667.6211431702998","201.78","9","fallScene","false","","","","","89","",""
"","","","","","html-keyboard-response","259","1340191","0.0-22.0-1.16","671c6fad5a9935e94b3025fd","6796e1c0ff24ca17c453c51c","67c7160b86c8488303c98404","passed","","1049","","","","","","","","","","","","","","f","yesOrNo","","","","9","","","lp","3000","","","89","605.4000000000001","151"
"","","","","","html-keyboard-response","260","1341756","0.0-22.0-0.17","671c6fad5a9935e94b3025fd","6796e1c0ff24ca17c453c51c","67c7160b86c8488303c98404","passed","","","","","","","","","","","","","","","","","ballFalling","322.3","296.07114317029976","371.46","3","fallScene","false","","","","","90","",""
"","","","","","html-keyboard-response","261","1344760","0.0-22.0-1.17","671c6fad5a9935e94b3025fd","6796e1c0ff24ca17c453c51c","67c7160b86c8488303c98404","passed","","1348","","","","","","","","","","","","","","j","yesOrNo","","","","3","","","lp","3000","","","90","321.3","287.3327096511259"
"","","","","","html-keyboard-response","262","1346760","0.0-22.0-0.18","671c6fad5a9935e94b3025fd","6796e1c0ff24ca17c453c51c","67c7160b86c8488303c98404","passed","","","","","","","","","","","","","","","","","ballFalling","604.4000000000001","596.8711431702998","394.5","10","fallScene","true","","","","","91","",""
"","","","","","html-keyboard-response","263","1349765","0.0-22.0-1.18","671c6fad5a9935e94b3025fd","6796e1c0ff24ca17c453c51c","67c7160b86c8488303c98404","passed","","917","","","","","","","","","","","","","","f","yesOrNo","","","","10","","","mid","3000","","","91","536.4288568297004","300"
"","","","","","html-keyboard-response","264","1351765","0.0-22.0-0.19","671c6fad5a9935e94b3025fd","6796e1c0ff24ca17c453c51c","67c7160b86c8488303c98404","passed","","","","","","","","","","","","","","","","","ballFalling","604.4000000000001","596.8711431702998","394.5","10","fallScene","false","","","","","92","",""
"","","","","","html-keyboard-response","265","1354774","0.0-22.0-1.19","671c6fad5a9935e94b3025fd","6796e1c0ff24ca17c453c51c","67c7160b86c8488303c98404","passed","","1321","","","","","","","","","","","","","","j","yesOrNo","","","","10","","","lp","3000","","","92","603.4000000000001","215.50214355555383"
"","","","","","html-keyboard-response","266","1356337","0.0-22.0-0.20","671c6fad5a9935e94b3025fd","6796e1c0ff24ca17c453c51c","67c7160b86c8488303c98404","passed","","","","","","","","","","","","","","","","","ballFalling","604.4000000000001","575.4211431702997","266.76","12","fallScene","true","","","","","93","",""
"","","","","","html-keyboard-response","267","1359349","0.0-22.0-1.20","671c6fad5a9935e94b3025fd","6796e1c0ff24ca17c453c51c","67c7160b86c8488303c98404","passed","","1250","","","","","","","","","","","","","","j","yesOrNo","","","","12","","","gt","3000","","","93","575.4211431702997","266.76"
"","","","","","html-keyboard-response","268","1360840","0.0-22.0-0.21","671c6fad5a9935e94b3025fd","6796e1c0ff24ca17c453c51c","67c7160b86c8488303c98404","passed","","","","","","","","","","","","","","","","","ballFalling","604.4000000000001","667.6211431702998","201.78","9","fallScene","true","","","","","94","",""
"","","","","","html-keyboard-response","269","1363846","0.0-22.0-1.21","671c6fad5a9935e94b3025fd","6796e1c0ff24ca17c453c51c","67c7160b86c8488303c98404","passed","","885","","","","","","","","","","","","","","j","yesOrNo","","","","9","","","mid","3000","","","94","605.4000000000001","300"
"","","","","","html-keyboard-response","270","1365396","0.0-22.0-0.22","671c6fad5a9935e94b3025fd","6796e1c0ff24ca17c453c51c","67c7160b86c8488303c98404","passed","","","","","","","","","","","","","","","","","ballFalling","604.4000000000001","575.4211431702997","266.76","12","fallScene","false","","","","","95","",""
"","","","","","html-keyboard-response","271","1368402","0.0-22.0-1.22","671c6fad5a9935e94b3025fd","6796e1c0ff24ca17c453c51c","67c7160b86c8488303c98404","passed","","785","","","","","","","","","","","","","","j","yesOrNo","","","","12","","","gt","3000","","","95","575.4211431702997","266.76"
"","","","","","html-keyboard-response","272","1369975","0.0-22.0-0.23","671c6fad5a9935e94b3025fd","6796e1c0ff24ca17c453c51c","67c7160b86c8488303c98404","passed","","","","","","","","","","","","","","","","","ballFalling","604.4000000000001","575.4211431702997","266.76","12","fallScene","true","","","","","96","",""
"","","","","","html-keyboard-response","273","1372985","0.0-22.0-1.23","671c6fad5a9935e94b3025fd","6796e1c0ff24ca17c453c51c","67c7160b86c8488303c98404","passed","","874","","","","","","","","","","","","","","f","yesOrNo","","","","12","","","lp","3000","","","96","603.4000000000001","151"
"","","","","","html-keyboard-response","274","1374919","0.0-23.0","671c6fad5a9935e94b3025fd","6796e1c0ff24ca17c453c51c","67c7160b86c8488303c98404","passed","","1932","","","","","","","","","","","","","<p><span style=""font-size:40px;"">BLOCK 5</span></p><p><span style=""font-size:25px;"">You have <b style=""color: #FF644F;""><strong>0.7 second(s)</strong></b> to respond to the following trials.</span><br></p><p></p> <!-- Blank line -->
                <p id=""blinking-text"" style=""font-weight; animation: blink 2s infinite;"">Press Space to continue</p>
                <style>
                    @keyframes blink {
                        50% {
                            opacity: 0;
                        }
                    }
                </style></p>"," ","","","","","","","","","","","","","",""
"","","","","","html-keyboard-response","275","1376489","0.0-24.0-0.0","671c6fad5a9935e94b3025fd","6796e1c0ff24ca17c453c51c","67c7160b86c8488303c98404","passed","","","","","","","","","","","","","","","","","ballFalling","500","553.4711431702997","282.51","7","fallScene","false","","","","","97","",""
"","","","","","html-keyboard-response","276","1377203","0.0-24.0-1.0","671c6fad5a9935e94b3025fd","6796e1c0ff24ca17c453c51c","67c7160b86c8488303c98404","passed","","null","","","","","","","","","","","","","","null","yesOrNo","","","","7","","","lp","700","","","97","501","227.2843295913261"
"","","","","","html-keyboard-response","277","1379208","0.0-24.0-0.1","671c6fad5a9935e94b3025fd","6796e1c0ff24ca17c453c51c","67c7160b86c8488303c98404","passed","","","","","","","","","","","","","","","","","ballFalling","604.4000000000001","596.8711431702998","394.5","10","fallScene","true","","","","","98","",""
"","","","","","html-keyboard-response","278","1379912","0.0-24.0-1.1","671c6fad5a9935e94b3025fd","6796e1c0ff24ca17c453c51c","67c7160b86c8488303c98404","passed","","532","","","","","","","","","","","","","","j","yesOrNo","","","","10","","","gt","700","","","98","596.8711431702998","394.5"
"","","","","","html-keyboard-response","279","1381491","0.0-24.0-0.2","671c6fad5a9935e94b3025fd","6796e1c0ff24ca17c453c51c","67c7160b86c8488303c98404","passed","","","","","","","","","","","","","","","","","ballFalling","500","453.67114317029973","210.33","5","fallScene","true","","","","","99","",""
"","","","","","html-keyboard-response","280","1382196","0.0-24.0-1.2","671c6fad5a9935e94b3025fd","6796e1c0ff24ca17c453c51c","67c7160b86c8488303c98404","passed","","573","","","","","","","","","","","","","","f","yesOrNo","","","","5","","","lp","700","","","99","499","151"
"","","","","","html-keyboard-response","281","1383754","0.0-24.0-0.3","671c6fad5a9935e94b3025fd","6796e1c0ff24ca17c453c51c","67c7160b86c8488303c98404","passed","","","","","","","","","","","","","","","","","ballFalling","322.3","356.42114317029973","357.87","4","fallScene","false","","","","","100","",""
"","","","","","html-keyboard-response","282","1384460","0.0-24.0-1.3","671c6fad5a9935e94b3025fd","6796e1c0ff24ca17c453c51c","67c7160b86c8488303c98404","passed","","685","","","","","","","","","","","","","","j","yesOrNo","","","","4","","","lp","700","","","100","323.3","297.4070551689986"
"","","","","","html-keyboard-response","283","1386016","0.0-24.0-0.4","671c6fad5a9935e94b3025fd","6796e1c0ff24ca17c453c51c","67c7160b86c8488303c98404","passed","","","","","","","","","","","","","","","","","ballFalling","604.4000000000001","575.4211431702997","266.76","12","fallScene","true","","","","","101","",""
"","","","","","html-keyboard-response","284","1386721","0.0-24.0-1.4","671c6fad5a9935e94b3025fd","6796e1c0ff24ca17c453c51c","67c7160b86c8488303c98404","passed","","619","","","","","","","","","","","","","","j","yesOrNo","","","","12","","","gt","700","","","101","575.4211431702997","266.76"
"","","","","","html-keyboard-response","285","1388214","0.0-24.0-0.5","671c6fad5a9935e94b3025fd","6796e1c0ff24ca17c453c51c","67c7160b86c8488303c98404","passed","","","","","","","","","","","","","","","","","ballFalling","604.4000000000001","667.6211431702998","201.78","9","fallScene","false","","","","","102","",""
"","","","","","html-keyboard-response","286","1388919","0.0-24.0-1.5","671c6fad5a9935e94b3025fd","6796e1c0ff24ca17c453c51c","67c7160b86c8488303c98404","passed","","622","","","","","","","","","","","","","","f","yesOrNo","","","","9","","","lp","700","","","102","605.4000000000001","151"
"","","","","","html-keyboard-response","287","1390503","0.0-24.0-0.6","671c6fad5a9935e94b3025fd","6796e1c0ff24ca17c453c51c","67c7160b86c8488303c98404","passed","","","","","","","","","","","","","","","","","ballFalling","500","553.4711431702997","282.51","7","fallScene","true","","","","","103","",""
"","","","","","html-keyboard-response","288","1391215","0.0-24.0-1.6","671c6fad5a9935e94b3025fd","6796e1c0ff24ca17c453c51c","67c7160b86c8488303c98404","passed","","434","","","","","","","","","","","","","","j","yesOrNo","","","","7","","","mid","700","","","103","501","300"
"","","","","","html-keyboard-response","289","1393222","0.0-24.0-0.7","671c6fad5a9935e94b3025fd","6796e1c0ff24ca17c453c51c","67c7160b86c8488303c98404","passed","","","","","","","","","","","","","","","","","ballFalling","500","510.8711431702997","369.03","8","fallScene","true","","","","","104","",""
"","","","","","html-keyboard-response","290","1393927","0.0-24.0-1.7","671c6fad5a9935e94b3025fd","6796e1c0ff24ca17c453c51c","67c7160b86c8488303c98404","passed","","604","","","","","","","","","","","","","","j","yesOrNo","","","","8","","","gt","700","","","104","510.8711431702997","369.03"
"","","","","","html-keyboard-response","291","1395711","0.0-24.0-0.8","671c6fad5a9935e94b3025fd","6796e1c0ff24ca17c453c51c","67c7160b86c8488303c98404","passed","","","","","","","","","","","","","","","","","ballFalling","322.3","308.07114317029976","253.89","2","fallScene","true","","","","","105","",""
"","","","","","html-keyboard-response","292","1396427","0.0-24.0-1.8","671c6fad5a9935e94b3025fd","6796e1c0ff24ca17c453c51c","67c7160b86c8488303c98404","passed","","666","","","","","","","","","","","","","","j","yesOrNo","","","","2","","","mid","700","","","105","321.3","300"
"","","","","","html-keyboard-response","293","1398444","0.0-24.0-0.9","671c6fad5a9935e94b3025fd","6796e1c0ff24ca17c453c51c","67c7160b86c8488303c98404","passed","","","","","","","","","","","","","","","","","ballFalling","500","510.8711431702997","369.03","8","fallScene","true","","","","","106","",""
"","","","","","html-keyboard-response","294","1399155","0.0-24.0-1.9","671c6fad5a9935e94b3025fd","6796e1c0ff24ca17c453c51c","67c7160b86c8488303c98404","passed","","633","","","","","","","","","","","","","","f","yesOrNo","","","","8","","","lp","700","","","106","501","151"
"","","","","","html-keyboard-response","295","1400714","0.0-24.0-0.10","671c6fad5a9935e94b3025fd","6796e1c0ff24ca17c453c51c","67c7160b86c8488303c98404","passed","","","","","","","","","","","","","","","","","ballFalling","322.3","356.42114317029973","357.87","4","fallScene","true","","","","","107","",""
"","","","","","html-keyboard-response","296","1401425","0.0-24.0-1.10","671c6fad5a9935e94b3025fd","6796e1c0ff24ca17c453c51c","67c7160b86c8488303c98404","passed","","null","","","","","","","","","","","","","","null","yesOrNo","","","","4","","","mid","700","","","107","390.27114317029975","300"
"","","","","","html-keyboard-response","297","1402994","0.0-24.0-0.11","671c6fad5a9935e94b3025fd","6796e1c0ff24ca17c453c51c","67c7160b86c8488303c98404","passed","","","","","","","","","","","","","","","","","ballFalling","604.4000000000001","650.0211431702996","404.58000000000004","11","fallScene","false","","","","","108","",""
"","","","","","html-keyboard-response","298","1403697","0.0-24.0-1.11","671c6fad5a9935e94b3025fd","6796e1c0ff24ca17c453c51c","67c7160b86c8488303c98404","passed","","null","","","","","","","","","","","","","","null","yesOrNo","","","","11","","","mid","700","","","108","605.4000000000001","300"
"","","","","","html-keyboard-response","299","1405267","0.0-24.0-0.12","671c6fad5a9935e94b3025fd","6796e1c0ff24ca17c453c51c","67c7160b86c8488303c98404","passed","","","","","","","","","","","","","","","","","ballFalling","322.3","379.3711431702997","245.25","1","fallScene","true","","","","","109","",""
