"success","timeout","failed_images","failed_audio","failed_video","trial_type","trial_index","time_elapsed","internal_node_id","subject_id","study_id","session_id","practiceTestResult","view_history","rt","width","height","webaudio","browser","browser_version","mobile","os","fullscreen","vsync_rate","webcam","microphone","url","stimulus","response","task","ball_X","obstacle_groundTruth_x","obstacle_groundTruth_y","stimulus_idx","trial_name","flipped","choice","timeLimit","question_order","comprehensionCheck","practiceTest","currentTrial","obstacle_choice_x","obstacle_choice_y"
"true","false","[]","[]","[]","preload","0","77","0.0-0.0","6728092788e31f69b592fda0","6796e1c0ff24ca17c453c51c","67c6a3882610e5ab7ad81719","passed","","","","","","","","","","","","","","","","","","","","","","","","","","","","","","",""
"","","","","","instructions","1","29095","0.0-1.0","6728092788e31f69b592fda0","6796e1c0ff24ca17c453c51c","67c6a3882610e5ab7ad81719","passed","[{""page_index"":0,""viewing_time"":29017}]","29017","","","","","","","","","","","","","","","","","","","","","","","","","","","","",""
"","","","","","browser-check","2","30092","0.0-2.0","6728092788e31f69b592fda0","6796e1c0ff24ca17c453c51c","67c6a3882610e5ab7ad81719","passed","","","1600","773","true","chrome","133.0.0","false","Windows 10","true","60.4","false","false","","","","","","","","","","","","","","","","","",""
"","","","","","external-html","3","40415","0.0-3.0","6728092788e31f69b592fda0","6796e1c0ff24ca17c453c51c","67c6a3882610e5ab7ad81719","passed","","10199","","","","","","","","","","","","consent.html","","","","","","","","","","","","","","","","",""
"true","","","","","fullscreen","4","48150","0.0-4.0","6728092788e31f69b592fda0","6796e1c0ff24ca17c453c51c","67c6a3882610e5ab7ad81719","passed","","7431","","","","","","","","","","","","","","","","","","","","","","","","","","","","",""
"","","","","","browser-check","5","49136","0.0-5.0","6728092788e31f69b592fda0","6796e1c0ff24ca17c453c51c","67c6a3882610e5ab7ad81719","passed","","","1600","900","true","chrome","133.0.0","false","Windows 10","true","60.93","false","false","","","","","","","","","","","","","","","","","",""
"","","","","","html-keyboard-response","6","52945","0.0-6.0","6728092788e31f69b592fda0","6796e1c0ff24ca17c453c51c","67c6a3882610e5ab7ad81719","passed","","3808","","","","","","","","","","","","","<p><b>This experiment requires keyboard input.</b></p> 
        <p><b>To ensure your response will be recorded successfully, please press 'Space' to continue.</b></p>
        <p>If you can't proceed, you won't be able to complete this study.</p>
        <p></p> <!-- Blank line -->
        <p id=""blinking-text"" style=""font-weight; animation: blink 2s infinite;"">Press Space to continue</p>
        <style>
            @keyframes blink {
                50% {
                    opacity: 0;
                }
            }
        </style>"," ","","","","","","","","","","","","","","",""
"","","","","","html-keyboard-response","7","60224","0.0-7.0","6728092788e31f69b592fda0","6796e1c0ff24ca17c453c51c","67c6a3882610e5ab7ad81719","passed","","7279","","","","","","","","","","","","","<p><b>This experiment requires keyboard input.</b></p> 
        <p><b>To ensure your response will be recorded successfully, please press the 'f' key to continue.</b></p>
        <p>If you can't proceed, you won't be able to complete this study.</p>
        <p></p> <!-- Blank line -->
        <p id=""blinking-text"" style=""font-weight; animation: blink 2s infinite;"">Press f to continue</p>
        <style>
            @keyframes blink {
                50% {
                    opacity: 0;
                }
            }
        </style>","f","","","","","","","","","","","","","","",""
"","","","","","html-keyboard-response","8","65836","0.0-8.0","6728092788e31f69b592fda0","6796e1c0ff24ca17c453c51c","67c6a3882610e5ab7ad81719","passed","","5611","","","","","","","","","","","","","<p><b>This experiment requires keyboard input.</b></p> 
        <p><b>To ensure your response will be recorded successfully, please press the 'j' key to continue.</b></p>
        <p>If you can't proceed, you won't be able to complete this study.</p>
        <p></p> <!-- Blank line -->
        <p id=""blinking-text"" style=""font-weight; animation: blink 2s infinite;"">Press j to continue</p>
        <style>
            @keyframes blink {
                50% {
                    opacity: 0;
                }
            }
        </style>","j","","","","","","","","","","","","","","",""
"","","","","","browser-check","9","66838","0.0-9.0","6728092788e31f69b592fda0","6796e1c0ff24ca17c453c51c","67c6a3882610e5ab7ad81719","passed","","","1600","900","true","chrome","133.0.0","false","Windows 10","true","60.13","false","false","","","","","","","","","","","","","","","","","",""
"","","","","","survey-text","10","75027","0.0-10.0","6728092788e31f69b592fda0","6796e1c0ff24ca17c453c51c","67c6a3882610e5ab7ad81719","passed","","8187","","","","","","","","","","","","","","{""prolificID"":""6728092788e31f69b592fda0""}","","","","","","","","","","","","","","",""
"","","","","","instructions","11","168797","0.0-11.0-0.0-0.0","6728092788e31f69b592fda0","6796e1c0ff24ca17c453c51c","67c6a3882610e5ab7ad81719","passed","[{""page_index"":0,""viewing_time"":49948},{""page_index"":1,""viewing_time"":2601},{""page_index"":2,""viewing_time"":16609},{""page_index"":3,""viewing_time"":24611}]","93770","","","","","","","","","","","","","","","","","","","","","","","","","","","","",""
"","","","","","html-keyboard-response","12","186834","0.0-11.0-0.0-1.0","6728092788e31f69b592fda0","6796e1c0ff24ca17c453c51c","67c6a3882610e5ab7ad81719","passed","","17520","","","","","","","","","","","","","<br>Remember! After a ball falls, the screen will disappear, and you'll decide if the proposed position is where the hidden triangle was. <br>You will now practice this by watching a few videos and making decisions.<p>To respond:<br style=""margin-bottom: 5px; text-indent: -20px; padding-left: 20px;"">- Press <b style=""color: #12AD2B;"">J for Yes</b>, if you think the triangle is in the correct position.<br style=""margin-top: 0; text-indent: -20px; padding-left: 20px;"">- Press <b style=""color: orange;"">F for No</b>, if you think the triangle is not in the correct position.</p><p>In this practice round, there is no time limit. Focus on getting comfortable with the task first.<br>Press either J or F to begin your practice trials.</p><img src = ""YesOrNo_instruction.png"" style=""width: 65%;""></img>","f","","","","","","","","","","","","","","",""
"","","","","","html-keyboard-response","13","188368","0.0-11.0-0.0-2.0-0.0","6728092788e31f69b592fda0","6796e1c0ff24ca17c453c51c","67c6a3882610e5ab7ad81719","passed","","","","","","","","","","","","","","","","","ballFalling_prac","441","414","302","5","fallScene","true","","","","","","","",""
"","","","","","html-keyboard-response","14","195765","0.0-11.0-0.0-2.0-1.0","6728092788e31f69b592fda0","6796e1c0ff24ca17c453c51c","67c6a3882610e5ab7ad81719","passed","","7393","","","","","","","","","","","","","","j","yesOrNo_prac_noTimed","","","","5","","","close gt","NA","","","","","",""
"","","","","","html-keyboard-response","15","197878","0.0-11.0-0.0-2.0-0.1","6728092788e31f69b592fda0","6796e1c0ff24ca17c453c51c","67c6a3882610e5ab7ad81719","passed","","","","","","","","","","","","","","","","","ballFalling_prac","660","666","350","3","fallScene","false","","","","","","","",""
"","","","","","html-keyboard-response","16","201915","0.0-11.0-0.0-2.0-1.1","6728092788e31f69b592fda0","6796e1c0ff24ca17c453c51c","67c6a3882610e5ab7ad81719","passed","","4036","","","","","","","","","","","","","","j","yesOrNo_prac_noTimed","","","","3","","","wrong direction","NA","","","","","",""
"","","","","","html-keyboard-response","17","203488","0.0-11.0-0.0-2.0-0.2","6728092788e31f69b592fda0","6796e1c0ff24ca17c453c51c","67c6a3882610e5ab7ad81719","passed","","","","","","","","","","","","","","","","","ballFalling_prac","416","464","296","1","fallScene","false","","","","","","","",""
"","","","","","html-keyboard-response","18","209755","0.0-11.0-0.0-2.0-1.2","6728092788e31f69b592fda0","6796e1c0ff24ca17c453c51c","67c6a3882610e5ab7ad81719","passed","","6266","","","","","","","","","","","","","","f","yesOrNo_prac_noTimed","","","","1","","","gt","NA","","","","","",""
"","","","","","instructions","19","259154","0.0-11.0-0.0-3.0","6728092788e31f69b592fda0","6796e1c0ff24ca17c453c51c","67c6a3882610e5ab7ad81719","passed","[{""page_index"":0,""viewing_time"":42340},{""page_index"":1,""viewing_time"":7059}]","49400","","","","","","","","","","","","","","","","","","","","","","","","","","","","",""
"","","","","","html-button-response","20","265346","0.0-11.0-0.0-4.0","6728092788e31f69b592fda0","6796e1c0ff24ca17c453c51c","67c6a3882610e5ab7ad81719","passed","","5684","","","","","","","","","","","","","<p>To make sure you understood the task, we just have a <b>brief quiz</b> here.</p><p>If you need to review the instructions, click 'Previous'.</p><p>It's important to understand the task to do the study, so you have to pass the quiz to move to the study.</p>","1","","","","","","","","","","","","","","",""
"","","","","","survey-multi-choice","21","306205","0.0-11.0-1.0-0.0","6728092788e31f69b592fda0","6796e1c0ff24ca17c453c51c","67c6a3882610e5ab7ad81719","passed","","40858","","","","","","","","","","","","","","{""generalProcedure"":""Watch a video of a ball falling, some of it behind a gray screen. After each video, decide if the triangle is at the spot where the ball hit the triangle behind the screen. There is time limit for the response.""}","","","","","","","","","","[0]","","","","",""
"","","","","","survey-multi-choice","22","317016","0.0-11.0-1.0-1.0","6728092788e31f69b592fda0","6796e1c0ff24ca17c453c51c","67c6a3882610e5ab7ad81719","passed","","10810","","","","","","","","","","","","","","{""checkBallHitObstacle"":""Yes.""}","","","","","","","","","","[0]","","","","",""
"","","","","","survey-multi-choice","23","355385","0.0-11.0-1.0-2.0","6728092788e31f69b592fda0","6796e1c0ff24ca17c453c51c","67c6a3882610e5ab7ad81719","passed","","38369","","","","","","","","","","","","","","{""checkTriangleVisibility"":""No, the triangle is hidden behind the gray screen.""}","","","","","","","","","","[0]","","","","",""
"","","","","","survey-multi-choice","24","365405","0.0-11.0-1.0-3.0","6728092788e31f69b592fda0","6796e1c0ff24ca17c453c51c","67c6a3882610e5ab7ad81719","passed","","10019","","","","","","","","","","","","","","{""checkTimedResponse"":""Your response will not be recorded, and the trial will move to the next one.""}","","","","","","","","","","[0]","","","","",""
"","","","","","survey-multi-choice","25","386317","0.0-11.0-1.0-4.0","6728092788e31f69b592fda0","6796e1c0ff24ca17c453c51c","67c6a3882610e5ab7ad81719","passed","","20911","","","","","","","","","","","","","","{""checkTimeBlockNotice"":""You won't be notified about the time limit.""}","","","","","","","","","","[0]","","","","",""
"","","","","","survey-multi-choice","26","400607","0.0-11.0-1.0-5.0","6728092788e31f69b592fda0","6796e1c0ff24ca17c453c51c","67c6a3882610e5ab7ad81719","passed","","14289","","","","","","","","","","","","","","{""checkTimeBlockSameness"":""Yes, the time limit is the same for all trials within a block.""}","","","","","","","","","","[0]","","","","",""
"","","","","","survey-multi-choice","27","418117","0.0-11.0-1.0-6.0","6728092788e31f69b592fda0","6796e1c0ff24ca17c453c51c","67c6a3882610e5ab7ad81719","passed","","17509","","","","","","","","","","","","","","{""checkTrianglePrecision"":""Yes. The proposed purple triangle is very close to the correct position, so I should choose 'Yes.'""}","","","","","","","","","","[0]","","","","",""
"","","","","","html-button-response","28","435786","0.0-11.0-2.0-0.0","6728092788e31f69b592fda0","6796e1c0ff24ca17c453c51c","67c6a3882610e5ab7ad81719","passed","","17669","","","","","","","","","","","","","<p>Oops! You did not pass the quiz.</p><p>You will now repeat the instructions and practice.</p>","0","","","","","","","","","","","failed","","","",""
"","","","","","instructions","29","462385","0.0-11.1-0.1-0.1","6728092788e31f69b592fda0","6796e1c0ff24ca17c453c51c","67c6a3882610e5ab7ad81719","passed","[{""page_index"":0,""viewing_time"":21212},{""page_index"":1,""viewing_time"":497},{""page_index"":2,""viewing_time"":2329},{""page_index"":3,""viewing_time"":2560}]","26598","","","","","","","","","","","","","","","","","","","","","","","","","","","","",""
"","","","","","html-keyboard-response","30","477515","0.0-11.1-0.1-1.1","6728092788e31f69b592fda0","6796e1c0ff24ca17c453c51c","67c6a3882610e5ab7ad81719","passed","","14618","","","","","","","","","","","","","<br>Remember! After a ball falls, the screen will disappear, and you'll decide if the proposed position is where the hidden triangle was. <br>You will now practice this by watching a few videos and making decisions.<p>To respond:<br style=""margin-bottom: 5px; text-indent: -20px; padding-left: 20px;"">- Press <b style=""color: #12AD2B;"">J for Yes</b>, if you think the triangle is in the correct position.<br style=""margin-top: 0; text-indent: -20px; padding-left: 20px;"">- Press <b style=""color: orange;"">F for No</b>, if you think the triangle is not in the correct position.</p><p>In this practice round, there is no time limit. Focus on getting comfortable with the task first.<br>Press either J or F to begin your practice trials.</p><img src = ""YesOrNo_instruction.png"" style=""width: 65%;""></img>","j","","","","","","","","","","","","","","",""
"","","","","","html-keyboard-response","31","479069","0.0-11.1-0.1-2.1-0.3","6728092788e31f69b592fda0","6796e1c0ff24ca17c453c51c","67c6a3882610e5ab7ad81719","passed","","","","","","","","","","","","","","","","","ballFalling_prac","416","464","296","1","fallScene","false","","","","","","","",""
"","","","","","html-keyboard-response","32","486925","0.0-11.1-0.1-2.1-1.3","6728092788e31f69b592fda0","6796e1c0ff24ca17c453c51c","67c6a3882610e5ab7ad81719","passed","","7854","","","","","","","","","","","","","","j","yesOrNo_prac_noTimed","","","","1","","","gt","NA","","","","","",""
"","","","","","html-keyboard-response","33","488511","0.0-11.1-0.1-2.1-0.4","6728092788e31f69b592fda0","6796e1c0ff24ca17c453c51c","67c6a3882610e5ab7ad81719","passed","","","","","","","","","","","","","","","","","ballFalling_prac","441","414","302","5","fallScene","true","","","","","","","",""
"","","","","","html-keyboard-response","34","493145","0.0-11.1-0.1-2.1-1.4","6728092788e31f69b592fda0","6796e1c0ff24ca17c453c51c","67c6a3882610e5ab7ad81719","passed","","4632","","","","","","","","","","","","","","j","yesOrNo_prac_noTimed","","","","5","","","close gt","NA","","","","","",""
"","","","","","html-keyboard-response","35","495264","0.0-11.1-0.1-2.1-0.5","6728092788e31f69b592fda0","6796e1c0ff24ca17c453c51c","67c6a3882610e5ab7ad81719","passed","","","","","","","","","","","","","","","","","ballFalling_prac","660","666","350","3","fallScene","false","","","","","","","",""
"","","","","","html-keyboard-response","36","498295","0.0-11.1-0.1-2.1-1.5","6728092788e31f69b592fda0","6796e1c0ff24ca17c453c51c","67c6a3882610e5ab7ad81719","passed","","3029","","","","","","","","","","","","","","f","yesOrNo_prac_noTimed","","","","3","","","wrong direction","NA","","","","","",""
"","","","","","instructions","37","542505","0.0-11.1-0.1-3.1","6728092788e31f69b592fda0","6796e1c0ff24ca17c453c51c","67c6a3882610e5ab7ad81719","passed","[{""page_index"":0,""viewing_time"":29100},{""page_index"":1,""viewing_time"":15110}]","44210","","","","","","","","","","","","","","","","","","","","","","","","","","","","",""
"","","","","","html-button-response","38","551777","0.0-11.1-0.1-4.1","6728092788e31f69b592fda0","6796e1c0ff24ca17c453c51c","67c6a3882610e5ab7ad81719","passed","","8769","","","","","","","","","","","","","<p>To make sure you understood the task, we just have a <b>brief quiz</b> here.</p><p>If you need to review the instructions, click 'Previous'.</p><p>It's important to understand the task to do the study, so you have to pass the quiz to move to the study.</p>","1","","","","","","","","","","","","","","",""
"","","","","","survey-multi-choice","39","563495","0.0-11.1-1.1-0.1","6728092788e31f69b592fda0","6796e1c0ff24ca17c453c51c","67c6a3882610e5ab7ad81719","passed","","11718","","","","","","","","","","","","","","{""generalProcedure"":""Watch a video of a ball falling, some of it behind a gray screen. After each video, decide if the triangle is at the spot where the ball hit the triangle behind the screen. There is time limit for the response.""}","","","","","","","","","","[0]","","","","",""
"","","","","","survey-multi-choice","40","568236","0.0-11.1-1.1-1.1","6728092788e31f69b592fda0","6796e1c0ff24ca17c453c51c","67c6a3882610e5ab7ad81719","passed","","4740","","","","","","","","","","","","","","{""checkBallHitObstacle"":""Yes.""}","","","","","","","","","","[0]","","","","",""
"","","","","","survey-multi-choice","41","573326","0.0-11.1-1.1-2.1","6728092788e31f69b592fda0","6796e1c0ff24ca17c453c51c","67c6a3882610e5ab7ad81719","passed","","5090","","","","","","","","","","","","","","{""checkTriangleVisibility"":""No, the triangle is hidden behind the gray screen.""}","","","","","","","","","","[0]","","","","",""
"","","","","","survey-multi-choice","42","580665","0.0-11.1-1.1-3.1","6728092788e31f69b592fda0","6796e1c0ff24ca17c453c51c","67c6a3882610e5ab7ad81719","passed","","7338","","","","","","","","","","","","","","{""checkTimedResponse"":""Your response will not be recorded, and the trial will move to the next one.""}","","","","","","","","","","[0]","","","","",""
"","","","","","survey-multi-choice","43","590575","0.0-11.1-1.1-4.1","6728092788e31f69b592fda0","6796e1c0ff24ca17c453c51c","67c6a3882610e5ab7ad81719","passed","","9910","","","","","","","","","","","","","","{""checkTimeBlockNotice"":""At the beginning of each block.""}","","","","","","","","","","[0]","","","","",""
"","","","","","survey-multi-choice","44","610607","0.0-11.1-1.1-5.1","6728092788e31f69b592fda0","6796e1c0ff24ca17c453c51c","67c6a3882610e5ab7ad81719","passed","","20031","","","","","","","","","","","","","","{""checkTimeBlockSameness"":""Yes, the time limit is the same for all trials within a block.""}","","","","","","","","","","[0]","","","","",""
"","","","","","survey-multi-choice","45","639653","0.0-11.1-1.1-6.1","6728092788e31f69b592fda0","6796e1c0ff24ca17c453c51c","67c6a3882610e5ab7ad81719","passed","","29046","","","","","","","","","","","","","","{""checkTrianglePrecision"":""No. The proposed purple triangle is not in the correct position because it doesn't match the location of the white triangle exactly.""}","","","","","","","","","","[0]","","","","",""
"","","","","","instructions","46","672876","0.0-12.0","6728092788e31f69b592fda0","6796e1c0ff24ca17c453c51c","67c6a3882610e5ab7ad81719","passed","[{""page_index"":0,""viewing_time"":8493},{""page_index"":1,""viewing_time"":13460},{""page_index"":2,""viewing_time"":8580},{""page_index"":3,""viewing_time"":2690}]","33223","","","","","","","","","","","","","","","","","","","","","","","","","","","","",""
"","","","","","instructions","47","676374","0.0-13.0-0.0","6728092788e31f69b592fda0","6796e1c0ff24ca17c453c51c","67c6a3882610e5ab7ad81719","passed","[{""page_index"":0,""viewing_time"":3498}]","3498","","","","","","","","","","","","","","","","","","","","","","","","","","","","",""
"","","","","","html-keyboard-response","48","686215","0.0-13.0-1.0","6728092788e31f69b592fda0","6796e1c0ff24ca17c453c51c","67c6a3882610e5ab7ad81719","passed","","9840","","","","","","","","","","","","","<p><span style=""font-size:40px;"">Practice BLOCK 1</span></p><p><span style=""font-size:25px;"">You have <b style=""color: #FF644F;""><strong>3 second(s)</strong></b> to respond to the following trials.</span><br></p><p id=""blinking-text"" style=""font-weight; animation: blink 2s infinite;"">Press Space to continue</p><style>
                    @keyframes blink {
                        50% {
                            opacity: 0;
                        }
                    }
                </style>"," ","","","","","","","","","","","","","","",""
"","","","","","html-keyboard-response","49","687769","0.0-13.0-2.0-0.0","6728092788e31f69b592fda0","6796e1c0ff24ca17c453c51c","67c6a3882610e5ab7ad81719","passed","","","","","","","","","","","","","","","","","ballFalling_prac","416","464","296","1","fallScene","false","","","","","","","",""
"","","","","","html-keyboard-response","50","690773","0.0-13.0-2.0-1.0","6728092788e31f69b592fda0","6796e1c0ff24ca17c453c51c","67c6a3882610e5ab7ad81719","passed","","null","","","","","","","","","","","","","","null","yesOrNo_prac","","","","1","","","far gt","3000","","","","","",""
"","","","","","html-keyboard-response","51","692327","0.0-13.0-2.0-0.1","6728092788e31f69b592fda0","6796e1c0ff24ca17c453c51c","67c6a3882610e5ab7ad81719","passed","","","","","","","","","","","","","","","","","ballFalling_prac","584","536","296","1","fallScene","true","","","","","","","",""
"","","","","","html-keyboard-response","52","695331","0.0-13.0-2.0-1.1","6728092788e31f69b592fda0","6796e1c0ff24ca17c453c51c","67c6a3882610e5ab7ad81719","passed","","null","","","","","","","","","","","","","","null","yesOrNo_prac","","","","1","","","close gt","3000","","","","","",""
"","","","","","html-keyboard-response","53","696893","0.0-13.0-2.0-0.2","6728092788e31f69b592fda0","6796e1c0ff24ca17c453c51c","67c6a3882610e5ab7ad81719","passed","","","","","","","","","","","","","","","","","ballFalling_prac","660","610","263","4","fallScene","false","","","","","","","",""
"","","","","","html-keyboard-response","54","699896","0.0-13.0-2.0-1.2","6728092788e31f69b592fda0","6796e1c0ff24ca17c453c51c","67c6a3882610e5ab7ad81719","passed","","1200","","","","","","","","","","","","","","j","yesOrNo_prac","","","","4","","","gt","3000","","","","","",""
"","","","","","html-keyboard-response","55","703254","0.0-13.0-3.0","6728092788e31f69b592fda0","6796e1c0ff24ca17c453c51c","67c6a3882610e5ab7ad81719","passed","","3358","","","","","","","","","","","","","<p><span style=""font-size:40px;"">Practice BLOCK 2</span></p><p><span style=""font-size:25px;"">You have <b style=""color: #FF644F;""><strong>0.7 second(s)</strong></b> to respond to the following trials.</span><br></p><p id=""blinking-text"" style=""font-weight; animation: blink 2s infinite;"">Press Space to continue</p><style>
                    @keyframes blink {
                        50% {
                            opacity: 0;
                        }
                    }
                </style>"," ","","","","","","","","","","","","","","",""
"","","","","","html-keyboard-response","56","704817","0.0-13.0-4.0-0.0","6728092788e31f69b592fda0","6796e1c0ff24ca17c453c51c","67c6a3882610e5ab7ad81719","passed","","","","","","","","","","","","","","","","","ballFalling_prac","441","500","317","6","fallScene","true","","","","","","","",""
"","","","","","html-keyboard-response","57","705522","0.0-13.0-4.0-1.0","6728092788e31f69b592fda0","6796e1c0ff24ca17c453c51c","67c6a3882610e5ab7ad81719","passed","","null","","","","","","","","","","","","","","null","yesOrNo_prac","","","","6","","","gt","700","","","","","",""
"","","","","","html-keyboard-response","58","707632","0.0-13.0-4.0-0.1","6728092788e31f69b592fda0","6796e1c0ff24ca17c453c51c","67c6a3882610e5ab7ad81719","passed","","","","","","","","","","","","","","","","","ballFalling_prac","340","334","350","3","fallScene","true","","","","","","","",""
"","","","","","html-keyboard-response","59","708339","0.0-13.0-4.0-1.1","6728092788e31f69b592fda0","6796e1c0ff24ca17c453c51c","67c6a3882610e5ab7ad81719","passed","","null","","","","","","","","","","","","","","null","yesOrNo_prac","","","","3","","","close gt","700","","","","","",""
"","","","","","html-keyboard-response","60","709914","0.0-13.0-4.0-0.2","6728092788e31f69b592fda0","6796e1c0ff24ca17c453c51c","67c6a3882610e5ab7ad81719","passed","","","","","","","","","","","","","","","","","ballFalling_prac","660","610","263","4","fallScene","false","","","","","","","",""
"","","","","","html-keyboard-response","61","710617","0.0-13.0-4.0-1.2","6728092788e31f69b592fda0","6796e1c0ff24ca17c453c51c","67c6a3882610e5ab7ad81719","passed","","null","","","","","","","","","","","","","","null","yesOrNo_prac","","","","4","","","far gt","700","","","","","",""
"","","","","","instructions","62","717028","0.0-13.0-5.0","6728092788e31f69b592fda0","6796e1c0ff24ca17c453c51c","67c6a3882610e5ab7ad81719","passed","[{""page_index"":0,""viewing_time"":6410}]","6411","","","","","","","","","","","","","","","","","","","","","","","","","","","","",""
"","","","","","html-keyboard-response","63","723235","0.0-13.0-6.0","6728092788e31f69b592fda0","6796e1c0ff24ca17c453c51c","67c6a3882610e5ab7ad81719","passed","","6206","","","","","","","","","","","","","<p><span style=""font-size:40px;"">Practice Test BLOCK 1</span></p><p><span style=""font-size:25px;"">You have <b style=""color: #FF644F;""><strong>0.7 second(s)</strong></b> to respond to the following trials.</span><br></p><p id=""blinking-text"" style=""font-weight; animation: blink 2s infinite;"">Press Space to continue</p><style>
                    @keyframes blink {
                        50% {
                            opacity: 0;
                        }
                    }
                </style>"," ","","","","","","","","","","","","","","",""
"","","","","","html-keyboard-response","64","724806","0.0-13.0-7.0-0.0","6728092788e31f69b592fda0","6796e1c0ff24ca17c453c51c","67c6a3882610e5ab7ad81719","passed","","","","","","","","","","","","","","","","","ballFalling_prac","340","390","263","4","fallScene","true","","","","","","","",""
"","","","","","html-keyboard-response","65","725508","0.0-13.0-7.0-1.0","6728092788e31f69b592fda0","6796e1c0ff24ca17c453c51c","67c6a3882610e5ab7ad81719","passed","","null","","","","","","","","","","","","","","null","yesOrNo_prac","","","","4","","","far gt","700","","","","","",""
"","","","","","html-keyboard-response","66","727075","0.0-13.0-7.0-0.1","6728092788e31f69b592fda0","6796e1c0ff24ca17c453c51c","67c6a3882610e5ab7ad81719","passed","","","","","","","","","","","","","","","","","ballFalling_prac","559","586","302","5","fallScene","false","","","","","","","",""
"","","","","","html-keyboard-response","67","727777","0.0-13.0-7.0-1.1","6728092788e31f69b592fda0","6796e1c0ff24ca17c453c51c","67c6a3882610e5ab7ad81719","passed","","null","","","","","","","","","","","","","","null","yesOrNo_prac","","","","5","","","gt","700","","","","","",""
"","","","","","html-keyboard-response","68","729334","0.0-13.0-7.0-0.2","6728092788e31f69b592fda0","6796e1c0ff24ca17c453c51c","67c6a3882610e5ab7ad81719","passed","","","","","","","","","","","","","","","","","ballFalling_prac","441","500","317","6","fallScene","true","","","","","","","",""
"","","","","","html-keyboard-response","69","730038","0.0-13.0-7.0-1.2","6728092788e31f69b592fda0","6796e1c0ff24ca17c453c51c","67c6a3882610e5ab7ad81719","passed","","580","","","","","","","","","","","","","","f","yesOrNo_prac","","","","6","","","close gt","700","","","","","",""
"","","","","","html-keyboard-response","70","731985","0.0-13.0-8.0","6728092788e31f69b592fda0","6796e1c0ff24ca17c453c51c","67c6a3882610e5ab7ad81719","passed","","1947","","","","","","","","","","","","","<p><span style=""font-size:40px;"">Practice Test BLOCK 2</span></p><p><span style=""font-size:25px;"">You have <b style=""color: #FF644F;""><strong>3 second(s)</strong></b> to respond to the following trials.</span><br></p><p id=""blinking-text"" style=""font-weight; animation: blink 2s infinite;"">Press Space to continue</p><style>
                    @keyframes blink {
                        50% {
                            opacity: 0;
                        }
                    }
                </style>"," ","","","","","","","","","","","","","","",""
"","","","","","html-keyboard-response","71","733551","0.0-13.0-9.0-0.0","6728092788e31f69b592fda0","6796e1c0ff24ca17c453c51c","67c6a3882610e5ab7ad81719","passed","","","","","","","","","","","","","","","","","ballFalling_prac","340","390","263","4","fallScene","true","","","","","","","",""
"","","","","","html-keyboard-response","72","736554","0.0-13.0-9.0-1.0","6728092788e31f69b592fda0","6796e1c0ff24ca17c453c51c","67c6a3882610e5ab7ad81719","passed","","703","","","","","","","","","","","","","","j","yesOrNo_prac","","","","4","","","close gt","3000","","","","","",""
"","","","","","html-keyboard-response","73","738120","0.0-13.0-9.0-0.1","6728092788e31f69b592fda0","6796e1c0ff24ca17c453c51c","67c6a3882610e5ab7ad81719","passed","","","","","","","","","","","","","","","","","ballFalling_prac","559","586","302","5","fallScene","false","","","","","","","",""
"","","","","","html-keyboard-response","74","741123","0.0-13.0-9.0-1.1","6728092788e31f69b592fda0","6796e1c0ff24ca17c453c51c","67c6a3882610e5ab7ad81719","passed","","1894","","","","","","","","","","","","","","f","yesOrNo_prac","","","","5","","","far gt","3000","","","","","",""
"","","","","","html-keyboard-response","75","742706","0.0-13.0-9.0-0.2","6728092788e31f69b592fda0","6796e1c0ff24ca17c453c51c","67c6a3882610e5ab7ad81719","passed","","","","","","","","","","","","","","","","","ballFalling_prac","416","365","249","2","fallScene","false","","","","","","","",""
"","","","","","html-keyboard-response","76","745710","0.0-13.0-9.0-1.2","6728092788e31f69b592fda0","6796e1c0ff24ca17c453c51c","67c6a3882610e5ab7ad81719","passed","","1037","","","","","","","","","","","","","","j","yesOrNo_prac","","","","2","","","gt","3000","","","","","",""
"","","","","","html-button-response","77","751616","0.0-13.0-10.0-0.0","6728092788e31f69b592fda0","6796e1c0ff24ca17c453c51c","67c6a3882610e5ab7ad81719","passed","","5906","","","","","","","","","","","","","<p>Oops! You did not pass the practice test. You missed 2 out of 6 trials.</p><p>You will now repeat the practice and the test.</p>","0","","","","","","","","","","","","failed","","",""
"","","","","","instructions","78","756146","0.0-13.1-0.1","6728092788e31f69b592fda0","6796e1c0ff24ca17c453c51c","67c6a3882610e5ab7ad81719","passed","[{""page_index"":0,""viewing_time"":4529}]","4530","","","","","","","","","","","","","","","","","","","","","","","","","","","","",""
"","","","","","html-keyboard-response","79","758515","0.0-13.1-1.1","6728092788e31f69b592fda0","6796e1c0ff24ca17c453c51c","67c6a3882610e5ab7ad81719","passed","","2368","","","","","","","","","","","","","<p><span style=""font-size:40px;"">Practice BLOCK 1</span></p><p><span style=""font-size:25px;"">You have <b style=""color: #FF644F;""><strong>3 second(s)</strong></b> to respond to the following trials.</span><br></p><p id=""blinking-text"" style=""font-weight; animation: blink 2s infinite;"">Press Space to continue</p><style>
                    @keyframes blink {
                        50% {
                            opacity: 0;
                        }
                    }
                </style>"," ","","","","","","","","","","","","","","",""
"","","","","","html-keyboard-response","80","760100","0.0-13.1-2.1-0.3","6728092788e31f69b592fda0","6796e1c0ff24ca17c453c51c","67c6a3882610e5ab7ad81719","passed","","","","","","","","","","","","","","","","","ballFalling_prac","660","610","263","4","fallScene","false","","","","","","","",""
"","","","","","html-keyboard-response","81","763104","0.0-13.1-2.1-1.3","6728092788e31f69b592fda0","6796e1c0ff24ca17c453c51c","67c6a3882610e5ab7ad81719","passed","","1192","","","","","","","","","","","","","","j","yesOrNo_prac","","","","4","","","gt","3000","","","","","",""
"","","","","","html-keyboard-response","82","764666","0.0-13.1-2.1-0.4","6728092788e31f69b592fda0","6796e1c0ff24ca17c453c51c","67c6a3882610e5ab7ad81719","passed","","","","","","","","","","","","","","","","","ballFalling_prac","416","464","296","1","fallScene","false","","","","","","","",""
"","","","","","html-keyboard-response","83","767668","0.0-13.1-2.1-1.4","6728092788e31f69b592fda0","6796e1c0ff24ca17c453c51c","67c6a3882610e5ab7ad81719","passed","","1819","","","","","","","","","","","","","","f","yesOrNo_prac","","","","1","","","far gt","3000","","","","","",""
"","","","","","html-keyboard-response","84","769235","0.0-13.1-2.1-0.5","6728092788e31f69b592fda0","6796e1c0ff24ca17c453c51c","67c6a3882610e5ab7ad81719","passed","","","","","","","","","","","","","","","","","ballFalling_prac","584","536","296","1","fallScene","true","","","","","","","",""
"","","","","","html-keyboard-response","85","772237","0.0-13.1-2.1-1.5","6728092788e31f69b592fda0","6796e1c0ff24ca17c453c51c","67c6a3882610e5ab7ad81719","passed","","1532","","","","","","","","","","","","","","j","yesOrNo_prac","","","","1","","","close gt","3000","","","","","",""
"","","","","","html-keyboard-response","86","774256","0.0-13.1-3.1","6728092788e31f69b592fda0","6796e1c0ff24ca17c453c51c","67c6a3882610e5ab7ad81719","passed","","2019","","","","","","","","","","","","","<p><span style=""font-size:40px;"">Practice BLOCK 2</span></p><p><span style=""font-size:25px;"">You have <b style=""color: #FF644F;""><strong>0.7 second(s)</strong></b> to respond to the following trials.</span><br></p><p id=""blinking-text"" style=""font-weight; animation: blink 2s infinite;"">Press Space to continue</p><style>
                    @keyframes blink {
                        50% {
                            opacity: 0;
                        }
                    }
                </style>"," ","","","","","","","","","","","","","","",""
"","","","","","html-keyboard-response","87","776357","0.0-13.1-4.1-0.3","6728092788e31f69b592fda0","6796e1c0ff24ca17c453c51c","67c6a3882610e5ab7ad81719","passed","","","","","","","","","","","","","","","","","ballFalling_prac","340","334","350","3","fallScene","true","","","","","","","",""
"","","","","","html-keyboard-response","88","777061","0.0-13.1-4.1-1.3","6728092788e31f69b592fda0","6796e1c0ff24ca17c453c51c","67c6a3882610e5ab7ad81719","passed","","null","","","","","","","","","","","","","","null","yesOrNo_prac","","","","3","","","close gt","700","","","","","",""
"","","","","","html-keyboard-response","89","778639","0.0-13.1-4.1-0.4","6728092788e31f69b592fda0","6796e1c0ff24ca17c453c51c","67c6a3882610e5ab7ad81719","passed","","","","","","","","","","","","","","","","","ballFalling_prac","660","610","263","4","fallScene","false","","","","","","","",""
"","","","","","html-keyboard-response","90","779342","0.0-13.1-4.1-1.4","6728092788e31f69b592fda0","6796e1c0ff24ca17c453c51c","67c6a3882610e5ab7ad81719","passed","","274","","","","","","","","","","","","","","j","yesOrNo_prac","","","","4","","","far gt","700","","","","","",""
"","","","","","html-keyboard-response","91","780904","0.0-13.1-4.1-0.5","6728092788e31f69b592fda0","6796e1c0ff24ca17c453c51c","67c6a3882610e5ab7ad81719","passed","","","","","","","","","","","","","","","","","ballFalling_prac","441","500","317","6","fallScene","true","","","","","","","",""
"","","","","","html-keyboard-response","92","781607","0.0-13.1-4.1-1.5","6728092788e31f69b592fda0","6796e1c0ff24ca17c453c51c","67c6a3882610e5ab7ad81719","passed","","null","","","","","","","","","","","","","","null","yesOrNo_prac","","","","6","","","gt","700","","","","","",""
"","","","","","instructions","93","786785","0.0-13.1-5.1","6728092788e31f69b592fda0","6796e1c0ff24ca17c453c51c","67c6a3882610e5ab7ad81719","passed","[{""page_index"":0,""viewing_time"":5178}]","5178","","","","","","","","","","","","","","","","","","","","","","","","","","","","",""
"","","","","","html-keyboard-response","94","789025","0.0-13.1-6.1","6728092788e31f69b592fda0","6796e1c0ff24ca17c453c51c","67c6a3882610e5ab7ad81719","passed","","2239","","","","","","","","","","","","","<p><span style=""font-size:40px;"">Practice Test BLOCK 1</span></p><p><span style=""font-size:25px;"">You have <b style=""color: #FF644F;""><strong>0.7 second(s)</strong></b> to respond to the following trials.</span><br></p><p id=""blinking-text"" style=""font-weight; animation: blink 2s infinite;"">Press Space to continue</p><style>
                    @keyframes blink {
                        50% {
                            opacity: 0;
                        }
                    }
                </style>"," ","","","","","","","","","","","","","","",""
"","","","","","html-keyboard-response","95","790592","0.0-13.1-7.1-0.3","6728092788e31f69b592fda0","6796e1c0ff24ca17c453c51c","67c6a3882610e5ab7ad81719","passed","","","","","","","","","","","","","","","","","ballFalling_prac","441","500","317","6","fallScene","true","","","","","","","",""
"","","","","","html-keyboard-response","96","791300","0.0-13.1-7.1-1.3","6728092788e31f69b592fda0","6796e1c0ff24ca17c453c51c","67c6a3882610e5ab7ad81719","passed","","null","","","","","","","","","","","","","","null","yesOrNo_prac","","","","6","","","close gt","700","","","","","",""
"","","","","","html-keyboard-response","97","792866","0.0-13.1-7.1-0.4","6728092788e31f69b592fda0","6796e1c0ff24ca17c453c51c","67c6a3882610e5ab7ad81719","passed","","","","","","","","","","","","","","","","","ballFalling_prac","340","390","263","4","fallScene","true","","","","","","","",""
"","","","","","html-keyboard-response","98","793568","0.0-13.1-7.1-1.4","6728092788e31f69b592fda0","6796e1c0ff24ca17c453c51c","67c6a3882610e5ab7ad81719","passed","","null","","","","","","","","","","","","","","null","yesOrNo_prac","","","","4","","","far gt","700","","","","","",""
"","","","","","html-keyboard-response","99","795136","0.0-13.1-7.1-0.5","6728092788e31f69b592fda0","6796e1c0ff24ca17c453c51c","67c6a3882610e5ab7ad81719","passed","","","","","","","","","","","","","","","","","ballFalling_prac","559","586","302","5","fallScene","false","","","","","","","",""
"","","","","","html-keyboard-response","100","795846","0.0-13.1-7.1-1.5","6728092788e31f69b592fda0","6796e1c0ff24ca17c453c51c","67c6a3882610e5ab7ad81719","passed","","null","","","","","","","","","","","","","","null","yesOrNo_prac","","","","5","","","gt","700","","","","","",""
"","","","","","html-keyboard-response","101","797937","0.0-13.1-8.1","6728092788e31f69b592fda0","6796e1c0ff24ca17c453c51c","67c6a3882610e5ab7ad81719","passed","","2091","","","","","","","","","","","","","<p><span style=""font-size:40px;"">Practice Test BLOCK 2</span></p><p><span style=""font-size:25px;"">You have <b style=""color: #FF644F;""><strong>3 second(s)</strong></b> to respond to the following trials.</span><br></p><p id=""blinking-text"" style=""font-weight; animation: blink 2s infinite;"">Press Space to continue</p><style>
                    @keyframes blink {
                        50% {
                            opacity: 0;
                        }
                    }
                </style>"," ","","","","","","","","","","","","","","",""
"","","","","","html-keyboard-response","102","799505","0.0-13.1-9.1-0.3","6728092788e31f69b592fda0","6796e1c0ff24ca17c453c51c","67c6a3882610e5ab7ad81719","passed","","","","","","","","","","","","","","","","","ballFalling_prac","340","390","263","4","fallScene","true","","","","","","","",""
"","","","","","html-keyboard-response","103","802507","0.0-13.1-9.1-1.3","6728092788e31f69b592fda0","6796e1c0ff24ca17c453c51c","67c6a3882610e5ab7ad81719","passed","","641","","","","","","","","","","","","","","j","yesOrNo_prac","","","","4","","","close gt","3000","","","","","",""
"","","","","","html-keyboard-response","104","804084","0.0-13.1-9.1-0.4","6728092788e31f69b592fda0","6796e1c0ff24ca17c453c51c","67c6a3882610e5ab7ad81719","passed","","","","","","","","","","","","","","","","","ballFalling_prac","416","365","249","2","fallScene","false","","","","","","","",""
"","","","","","html-keyboard-response","105","807086","0.0-13.1-9.1-1.4","6728092788e31f69b592fda0","6796e1c0ff24ca17c453c51c","67c6a3882610e5ab7ad81719","passed","","1509","","","","","","","","","","","","","","j","yesOrNo_prac","","","","2","","","gt","3000","","","","","",""
"","","","","","html-keyboard-response","106","808660","0.0-13.1-9.1-0.5","6728092788e31f69b592fda0","6796e1c0ff24ca17c453c51c","67c6a3882610e5ab7ad81719","passed","","","","","","","","","","","","","","","","","ballFalling_prac","559","586","302","5","fallScene","false","","","","","","","",""
"","","","","","html-keyboard-response","107","811663","0.0-13.1-9.1-1.5","6728092788e31f69b592fda0","6796e1c0ff24ca17c453c51c","67c6a3882610e5ab7ad81719","passed","","873","","","","","","","","","","","","","","j","yesOrNo_prac","","","","5","","","far gt","3000","","","","","",""
"","","","","","html-button-response","108","820616","0.0-13.1-10.1-0.1","6728092788e31f69b592fda0","6796e1c0ff24ca17c453c51c","67c6a3882610e5ab7ad81719","passed","","8952","","","","","","","","","","","","","<p>Oops! You did not pass the practice test. You missed 3 out of 6 trials.</p><p>You will now repeat the practice and the test.</p>","0","","","","","","","","","","","","failed","","",""
"","","","","","instructions","109","827104","0.0-13.2-0.2","6728092788e31f69b592fda0","6796e1c0ff24ca17c453c51c","67c6a3882610e5ab7ad81719","passed","[{""page_index"":0,""viewing_time"":6487}]","6488","","","","","","","","","","","","","","","","","","","","","","","","","","","","",""
"","","","","","html-keyboard-response","110","830705","0.0-13.2-1.2","6728092788e31f69b592fda0","6796e1c0ff24ca17c453c51c","67c6a3882610e5ab7ad81719","passed","","3600","","","","","","","","","","","","","<p><span style=""font-size:40px;"">Practice BLOCK 1</span></p><p><span style=""font-size:25px;"">You have <b style=""color: #FF644F;""><strong>3 second(s)</strong></b> to respond to the following trials.</span><br></p><p id=""blinking-text"" style=""font-weight; animation: blink 2s infinite;"">Press Space to continue</p><style>
                    @keyframes blink {
                        50% {
                            opacity: 0;
                        }
                    }
                </style>"," ","","","","","","","","","","","","","","",""
"","","","","","html-keyboard-response","111","832252","0.0-13.2-2.2-0.6","6728092788e31f69b592fda0","6796e1c0ff24ca17c453c51c","67c6a3882610e5ab7ad81719","passed","","","","","","","","","","","","","","","","","ballFalling_prac","584","536","296","1","fallScene","true","","","","","","","",""
"","","","","","html-keyboard-response","112","835256","0.0-13.2-2.2-1.6","6728092788e31f69b592fda0","6796e1c0ff24ca17c453c51c","67c6a3882610e5ab7ad81719","passed","","791","","","","","","","","","","","","","","j","yesOrNo_prac","","","","1","","","close gt","3000","","","","","",""
"","","","","","html-keyboard-response","113","836814","0.0-13.2-2.2-0.7","6728092788e31f69b592fda0","6796e1c0ff24ca17c453c51c","67c6a3882610e5ab7ad81719","passed","","","","","","","","","","","","","","","","","ballFalling_prac","416","464","296","1","fallScene","false","","","","","","","",""
"","","","","","html-keyboard-response","114","839817","0.0-13.2-2.2-1.7","6728092788e31f69b592fda0","6796e1c0ff24ca17c453c51c","67c6a3882610e5ab7ad81719","passed","","1008","","","","","","","","","","","","","","j","yesOrNo_prac","","","","1","","","far gt","3000","","","","","",""
"","","","","","html-keyboard-response","115","841395","0.0-13.2-2.2-0.8","6728092788e31f69b592fda0","6796e1c0ff24ca17c453c51c","67c6a3882610e5ab7ad81719","passed","","","","","","","","","","","","","","","","","ballFalling_prac","660","610","263","4","fallScene","false","","","","","","","",""
"","","","","","html-keyboard-response","116","844398","0.0-13.2-2.2-1.8","6728092788e31f69b592fda0","6796e1c0ff24ca17c453c51c","67c6a3882610e5ab7ad81719","passed","","869","","","","","","","","","","","","","","j","yesOrNo_prac","","","","4","","","gt","3000","","","","","",""
"","","","","","html-keyboard-response","117","846235","0.0-13.2-3.2","6728092788e31f69b592fda0","6796e1c0ff24ca17c453c51c","67c6a3882610e5ab7ad81719","passed","","1836","","","","","","","","","","","","","<p><span style=""font-size:40px;"">Practice BLOCK 2</span></p><p><span style=""font-size:25px;"">You have <b style=""color: #FF644F;""><strong>0.7 second(s)</strong></b> to respond to the following trials.</span><br></p><p id=""blinking-text"" style=""font-weight; animation: blink 2s infinite;"">Press Space to continue</p><style>
                    @keyframes blink {
                        50% {
                            opacity: 0;
                        }
                    }
                </style>"," ","","","","","","","","","","","","","","",""
"","","","","","html-keyboard-response","118","847807","0.0-13.2-4.2-0.6","6728092788e31f69b592fda0","6796e1c0ff24ca17c453c51c","67c6a3882610e5ab7ad81719","passed","","","","","","","","","","","","","","","","","ballFalling_prac","660","610","263","4","fallScene","false","","","","","","","",""
"","","","","","html-keyboard-response","119","848511","0.0-13.2-4.2-1.6","6728092788e31f69b592fda0","6796e1c0ff24ca17c453c51c","67c6a3882610e5ab7ad81719","passed","","null","","","","","","","","","","","","","","null","yesOrNo_prac","","","","4","","","far gt","700","","","","","",""
"","","","","","html-keyboard-response","120","850617","0.0-13.2-4.2-0.7","6728092788e31f69b592fda0","6796e1c0ff24ca17c453c51c","67c6a3882610e5ab7ad81719","passed","","","","","","","","","","","","","","","","","ballFalling_prac","340","334","350","3","fallScene","true","","","","","","","",""
"","","","","","html-keyboard-response","121","851321","0.0-13.2-4.2-1.7","6728092788e31f69b592fda0","6796e1c0ff24ca17c453c51c","67c6a3882610e5ab7ad81719","passed","","null","","","","","","","","","","","","","","null","yesOrNo_prac","","","","3","","","close gt","700","","","","","",""
"","","","","","html-keyboard-response","122","852880","0.0-13.2-4.2-0.8","6728092788e31f69b592fda0","6796e1c0ff24ca17c453c51c","67c6a3882610e5ab7ad81719","passed","","","","","","","","","","","","","","","","","ballFalling_prac","441","500","317","6","fallScene","true","","","","","","","",""
"","","","","","html-keyboard-response","123","853583","0.0-13.2-4.2-1.8","6728092788e31f69b592fda0","6796e1c0ff24ca17c453c51c","67c6a3882610e5ab7ad81719","passed","","null","","","","","","","","","","","","","","null","yesOrNo_prac","","","","6","","","gt","700","","","","","",""
"","","","","","instructions","124","858235","0.0-13.2-5.2","6728092788e31f69b592fda0","6796e1c0ff24ca17c453c51c","67c6a3882610e5ab7ad81719","passed","[{""page_index"":0,""viewing_time"":4652}]","4652","","","","","","","","","","","","","","","","","","","","","","","","","","","","",""
"","","","","","html-keyboard-response","125","859694","0.0-13.2-6.2","6728092788e31f69b592fda0","6796e1c0ff24ca17c453c51c","67c6a3882610e5ab7ad81719","passed","","1458","","","","","","","","","","","","","<p><span style=""font-size:40px;"">Practice Test BLOCK 1</span></p><p><span style=""font-size:25px;"">You have <b style=""color: #FF644F;""><strong>0.7 second(s)</strong></b> to respond to the following trials.</span><br></p><p id=""blinking-text"" style=""font-weight; animation: blink 2s infinite;"">Press Space to continue</p><style>
                    @keyframes blink {
                        50% {
                            opacity: 0;
                        }
                    }
                </style>"," ","","","","","","","","","","","","","","",""
"","","","","","html-keyboard-response","126","861261","0.0-13.2-7.2-0.6","6728092788e31f69b592fda0","6796e1c0ff24ca17c453c51c","67c6a3882610e5ab7ad81719","passed","","","","","","","","","","","","","","","","","ballFalling_prac","559","586","302","5","fallScene","false","","","","","","","",""
"","","","","","html-keyboard-response","127","861964","0.0-13.2-7.2-1.6","6728092788e31f69b592fda0","6796e1c0ff24ca17c453c51c","67c6a3882610e5ab7ad81719","passed","","null","","","","","","","","","","","","","","null","yesOrNo_prac","","","","5","","","gt","700","","","","","",""
"","","","","","html-keyboard-response","128","863525","0.0-13.2-7.2-0.7","6728092788e31f69b592fda0","6796e1c0ff24ca17c453c51c","67c6a3882610e5ab7ad81719","passed","","","","","","","","","","","","","","","","","ballFalling_prac","340","390","263","4","fallScene","true","","","","","","","",""
"","","","","","html-keyboard-response","129","864228","0.0-13.2-7.2-1.7","6728092788e31f69b592fda0","6796e1c0ff24ca17c453c51c","67c6a3882610e5ab7ad81719","passed","","328","","","","","","","","","","","","","","j","yesOrNo_prac","","","","4","","","far gt","700","","","","","",""
"","","","","","html-keyboard-response","130","865780","0.0-13.2-7.2-0.8","6728092788e31f69b592fda0","6796e1c0ff24ca17c453c51c","67c6a3882610e5ab7ad81719","passed","","","","","","","","","","","","","","","","","ballFalling_prac","441","500","317","6","fallScene","true","","","","","","","",""
"","","","","","html-keyboard-response","131","866482","0.0-13.2-7.2-1.8","6728092788e31f69b592fda0","6796e1c0ff24ca17c453c51c","67c6a3882610e5ab7ad81719","passed","","null","","","","","","","","","","","","","","null","yesOrNo_prac","","","","6","","","close gt","700","","","","","",""
"","","","","","html-keyboard-response","132","868134","0.0-13.2-8.2","6728092788e31f69b592fda0","6796e1c0ff24ca17c453c51c","67c6a3882610e5ab7ad81719","passed","","1652","","","","","","","","","","","","","<p><span style=""font-size:40px;"">Practice Test BLOCK 2</span></p><p><span style=""font-size:25px;"">You have <b style=""color: #FF644F;""><strong>3 second(s)</strong></b> to respond to the following trials.</span><br></p><p id=""blinking-text"" style=""font-weight; animation: blink 2s infinite;"">Press Space to continue</p><style>
                    @keyframes blink {
                        50% {
                            opacity: 0;
                        }
                    }
                </style>"," ","","","","","","","","","","","","","","",""
"","","","","","html-keyboard-response","133","869705","0.0-13.2-9.2-0.6","6728092788e31f69b592fda0","6796e1c0ff24ca17c453c51c","67c6a3882610e5ab7ad81719","passed","","","","","","","","","","","","","","","","","ballFalling_prac","340","390","263","4","fallScene","true","","","","","","","",""
"","","","","","html-keyboard-response","134","872709","0.0-13.2-9.2-1.6","6728092788e31f69b592fda0","6796e1c0ff24ca17c453c51c","67c6a3882610e5ab7ad81719","passed","","787","","","","","","","","","","","","","","j","yesOrNo_prac","","","","4","","","close gt","3000","","","","","",""
"","","","","","html-keyboard-response","135","874281","0.0-13.2-9.2-0.7","6728092788e31f69b592fda0","6796e1c0ff24ca17c453c51c","67c6a3882610e5ab7ad81719","passed","","","","","","","","","","","","","","","","","ballFalling_prac","559","586","302","5","fallScene","false","","","","","","","",""
"","","","","","html-keyboard-response","136","877284","0.0-13.2-9.2-1.7","6728092788e31f69b592fda0","6796e1c0ff24ca17c453c51c","67c6a3882610e5ab7ad81719","passed","","1582","","","","","","","","","","","","","","j","yesOrNo_prac","","","","5","","","far gt","3000","","","","","",""
"","","","","","html-keyboard-response","137","878847","0.0-13.2-9.2-0.8","6728092788e31f69b592fda0","6796e1c0ff24ca17c453c51c","67c6a3882610e5ab7ad81719","passed","","","","","","","","","","","","","","","","","ballFalling_prac","416","365","249","2","fallScene","false","","","","","","","",""
"","","","","","html-keyboard-response","138","881851","0.0-13.2-9.2-1.8","6728092788e31f69b592fda0","6796e1c0ff24ca17c453c51c","67c6a3882610e5ab7ad81719","passed","","1036","","","","","","","","","","","","","","j","yesOrNo_prac","","","","2","","","gt","3000","","","","","",""
"","","","","","html-button-response","139","887705","0.0-13.2-10.2-0.2","6728092788e31f69b592fda0","6796e1c0ff24ca17c453c51c","67c6a3882610e5ab7ad81719","passed","","5853","","","","","","","","","","","","","<p>Oops! You did not pass the practice test. You missed 2 out of 6 trials.</p><p>You will now repeat the practice and the test.</p>","0","","","","","","","","","","","","failed","","",""
"","","","","","instructions","140","892845","0.0-13.3-0.3","6728092788e31f69b592fda0","6796e1c0ff24ca17c453c51c","67c6a3882610e5ab7ad81719","passed","[{""page_index"":0,""viewing_time"":5139}]","5139","","","","","","","","","","","","","","","","","","","","","","","","","","","","",""
"","","","","","html-keyboard-response","141","894425","0.0-13.3-1.3","6728092788e31f69b592fda0","6796e1c0ff24ca17c453c51c","67c6a3882610e5ab7ad81719","passed","","1579","","","","","","","","","","","","","<p><span style=""font-size:40px;"">Practice BLOCK 1</span></p><p><span style=""font-size:25px;"">You have <b style=""color: #FF644F;""><strong>3 second(s)</strong></b> to respond to the following trials.</span><br></p><p id=""blinking-text"" style=""font-weight; animation: blink 2s infinite;"">Press Space to continue</p><style>
                    @keyframes blink {
                        50% {
                            opacity: 0;
                        }
                    }
                </style>"," ","","","","","","","","","","","","","","",""
"","","","","","html-keyboard-response","142","895985","0.0-13.3-2.3-0.9","6728092788e31f69b592fda0","6796e1c0ff24ca17c453c51c","67c6a3882610e5ab7ad81719","passed","","","","","","","","","","","","","","","","","ballFalling_prac","416","464","296","1","fallScene","false","","","","","","","",""
"","","","","","html-keyboard-response","143","898989","0.0-13.3-2.3-1.9","6728092788e31f69b592fda0","6796e1c0ff24ca17c453c51c","67c6a3882610e5ab7ad81719","passed","","731","","","","","","","","","","","","","","j","yesOrNo_prac","","","","1","","","far gt","3000","","","","","",""
"","","","","","html-keyboard-response","144","900540","0.0-13.3-2.3-0.10","6728092788e31f69b592fda0","6796e1c0ff24ca17c453c51c","67c6a3882610e5ab7ad81719","passed","","","","","","","","","","","","","","","","","ballFalling_prac","584","536","296","1","fallScene","true","","","","","","","",""
"","","","","","html-keyboard-response","145","903545","0.0-13.3-2.3-1.10","6728092788e31f69b592fda0","6796e1c0ff24ca17c453c51c","67c6a3882610e5ab7ad81719","passed","","835","","","","","","","","","","","","","","j","yesOrNo_prac","","","","1","","","close gt","3000","","","","","",""
"","","","","","html-keyboard-response","146","905124","0.0-13.3-2.3-0.11","6728092788e31f69b592fda0","6796e1c0ff24ca17c453c51c","67c6a3882610e5ab7ad81719","passed","","","","","","","","","","","","","","","","","ballFalling_prac","660","610","263","4","fallScene","false","","","","","","","",""
"","","","","","html-keyboard-response","147","908126","0.0-13.3-2.3-1.11","6728092788e31f69b592fda0","6796e1c0ff24ca17c453c51c","67c6a3882610e5ab7ad81719","passed","","829","","","","","","","","","","","","","","j","yesOrNo_prac","","","","4","","","gt","3000","","","","","",""
"","","","","","html-keyboard-response","148","909614","0.0-13.3-3.3","6728092788e31f69b592fda0","6796e1c0ff24ca17c453c51c","67c6a3882610e5ab7ad81719","passed","","1488","","","","","","","","","","","","","<p><span style=""font-size:40px;"">Practice BLOCK 2</span></p><p><span style=""font-size:25px;"">You have <b style=""color: #FF644F;""><strong>0.7 second(s)</strong></b> to respond to the following trials.</span><br></p><p id=""blinking-text"" style=""font-weight; animation: blink 2s infinite;"">Press Space to continue</p><style>
                    @keyframes blink {
                        50% {
                            opacity: 0;
                        }
                    }
                </style>"," ","","","","","","","","","","","","","","",""
"","","","","","html-keyboard-response","149","911184","0.0-13.3-4.3-0.9","6728092788e31f69b592fda0","6796e1c0ff24ca17c453c51c","67c6a3882610e5ab7ad81719","passed","","","","","","","","","","","","","","","","","ballFalling_prac","441","500","317","6","fallScene","true","","","","","","","",""
"","","","","","html-keyboard-response","150","911891","0.0-13.3-4.3-1.9","6728092788e31f69b592fda0","6796e1c0ff24ca17c453c51c","67c6a3882610e5ab7ad81719","passed","","null","","","","","","","","","","","","","","null","yesOrNo_prac","","","","6","","","gt","700","","","","","",""
"","","","","","html-keyboard-response","151","914005","0.0-13.3-4.3-0.10","6728092788e31f69b592fda0","6796e1c0ff24ca17c453c51c","67c6a3882610e5ab7ad81719","passed","","","","","","","","","","","","","","","","","ballFalling_prac","340","334","350","3","fallScene","true","","","","","","","",""
"","","","","","html-keyboard-response","152","914707","0.0-13.3-4.3-1.10","6728092788e31f69b592fda0","6796e1c0ff24ca17c453c51c","67c6a3882610e5ab7ad81719","passed","","null","","","","","","","","","","","","","","null","yesOrNo_prac","","","","3","","","close gt","700","","","","","",""
"","","","","","html-keyboard-response","153","916290","0.0-13.3-4.3-0.11","6728092788e31f69b592fda0","6796e1c0ff24ca17c453c51c","67c6a3882610e5ab7ad81719","passed","","","","","","","","","","","","","","","","","ballFalling_prac","660","610","263","4","fallScene","false","","","","","","","",""
"","","","","","html-keyboard-response","154","916996","0.0-13.3-4.3-1.11","6728092788e31f69b592fda0","6796e1c0ff24ca17c453c51c","67c6a3882610e5ab7ad81719","passed","","670","","","","","","","","","","","","","","j","yesOrNo_prac","","","","4","","","far gt","700","","","","","",""
"","","","","","instructions","155","923974","0.0-13.3-5.3","6728092788e31f69b592fda0","6796e1c0ff24ca17c453c51c","67c6a3882610e5ab7ad81719","passed","[{""page_index"":0,""viewing_time"":6977}]","6977","","","","","","","","","","","","","","","","","","","","","","","","","","","","",""
"","","","","","html-keyboard-response","156","925405","0.0-13.3-6.3","6728092788e31f69b592fda0","6796e1c0ff24ca17c453c51c","67c6a3882610e5ab7ad81719","passed","","1431","","","","","","","","","","","","","<p><span style=""font-size:40px;"">Practice Test BLOCK 1</span></p><p><span style=""font-size:25px;"">You have <b style=""color: #FF644F;""><strong>0.7 second(s)</strong></b> to respond to the following trials.</span><br></p><p id=""blinking-text"" style=""font-weight; animation: blink 2s infinite;"">Press Space to continue</p><style>
                    @keyframes blink {
                        50% {
                            opacity: 0;
                        }
                    }
                </style>"," ","","","","","","","","","","","","","","",""
"","","","","","html-keyboard-response","157","926982","0.0-13.3-7.3-0.9","6728092788e31f69b592fda0","6796e1c0ff24ca17c453c51c","67c6a3882610e5ab7ad81719","passed","","","","","","","","","","","","","","","","","ballFalling_prac","559","586","302","5","fallScene","false","","","","","","","",""
"","","","","","html-keyboard-response","158","927686","0.0-13.3-7.3-1.9","6728092788e31f69b592fda0","6796e1c0ff24ca17c453c51c","67c6a3882610e5ab7ad81719","passed","","null","","","","","","","","","","","","","","null","yesOrNo_prac","","","","5","","","gt","700","","","","","",""
"","","","","","html-keyboard-response","159","929257","0.0-13.3-7.3-0.10","6728092788e31f69b592fda0","6796e1c0ff24ca17c453c51c","67c6a3882610e5ab7ad81719","passed","","","","","","","","","","","","","","","","","ballFalling_prac","441","500","317","6","fallScene","true","","","","","","","",""
"","","","","","html-keyboard-response","160","929961","0.0-13.3-7.3-1.10","6728092788e31f69b592fda0","6796e1c0ff24ca17c453c51c","67c6a3882610e5ab7ad81719","passed","","596","","","","","","","","","","","","","","j","yesOrNo_prac","","","","6","","","close gt","700","","","","","",""
"","","","","","html-keyboard-response","161","931538","0.0-13.3-7.3-0.11","6728092788e31f69b592fda0","6796e1c0ff24ca17c453c51c","67c6a3882610e5ab7ad81719","passed","","","","","","","","","","","","","","","","","ballFalling_prac","340","390","263","4","fallScene","true","","","","","","","",""
"","","","","","html-keyboard-response","162","932241","0.0-13.3-7.3-1.11","6728092788e31f69b592fda0","6796e1c0ff24ca17c453c51c","67c6a3882610e5ab7ad81719","passed","","null","","","","","","","","","","","","","","null","yesOrNo_prac","","","","4","","","far gt","700","","","","","",""
"","","","","","html-keyboard-response","163","933864","0.0-13.3-8.3","6728092788e31f69b592fda0","6796e1c0ff24ca17c453c51c","67c6a3882610e5ab7ad81719","passed","","1622","","","","","","","","","","","","","<p><span style=""font-size:40px;"">Practice Test BLOCK 2</span></p><p><span style=""font-size:25px;"">You have <b style=""color: #FF644F;""><strong>3 second(s)</strong></b> to respond to the following trials.</span><br></p><p id=""blinking-text"" style=""font-weight; animation: blink 2s infinite;"">Press Space to continue</p><style>
                    @keyframes blink {
                        50% {
                            opacity: 0;
                        }
                    }
                </style>"," ","","","","","","","","","","","","","","",""
"","","","","","html-keyboard-response","164","935433","0.0-13.3-9.3-0.9","6728092788e31f69b592fda0","6796e1c0ff24ca17c453c51c","67c6a3882610e5ab7ad81719","passed","","","","","","","","","","","","","","","","","ballFalling_prac","416","365","249","2","fallScene","false","","","","","","","",""
"","","","","","html-keyboard-response","165","938437","0.0-13.3-9.3-1.9","6728092788e31f69b592fda0","6796e1c0ff24ca17c453c51c","67c6a3882610e5ab7ad81719","passed","","1040","","","","","","","","","","","","","","j","yesOrNo_prac","","","","2","","","gt","3000","","","","","",""
"","","","","","html-keyboard-response","166","940005","0.0-13.3-9.3-0.10","6728092788e31f69b592fda0","6796e1c0ff24ca17c453c51c","67c6a3882610e5ab7ad81719","passed","","","","","","","","","","","","","","","","","ballFalling_prac","340","390","263","4","fallScene","true","","","","","","","",""
"","","","","","html-keyboard-response","167","943008","0.0-13.3-9.3-1.10","6728092788e31f69b592fda0","6796e1c0ff24ca17c453c51c","67c6a3882610e5ab7ad81719","passed","","989","","","","","","","","","","","","","","j","yesOrNo_prac","","","","4","","","close gt","3000","","","","","",""
"","","","","","html-keyboard-response","168","944577","0.0-13.3-9.3-0.11","6728092788e31f69b592fda0","6796e1c0ff24ca17c453c51c","67c6a3882610e5ab7ad81719","passed","","","","","","","","","","","","","","","","","ballFalling_prac","559","586","302","5","fallScene","false","","","","","","","",""
"","","","","","html-keyboard-response","169","947580","0.0-13.3-9.3-1.11","6728092788e31f69b592fda0","6796e1c0ff24ca17c453c51c","67c6a3882610e5ab7ad81719","passed","","976","","","","","","","","","","","","","","j","yesOrNo_prac","","","","5","","","far gt","3000","","","","","",""
"","","","","","html-button-response","170","1001345","0.0-13.3-10.3-0.3","6728092788e31f69b592fda0","6796e1c0ff24ca17c453c51c","67c6a3882610e5ab7ad81719","passed","","53764","","","","","","","","","","","","","<p>Oops! You did not pass the practice test. You missed 2 out of 6 trials.</p><p>You will now repeat the practice and the test.</p>","0","","","","","","","","","","","","failed","","",""
"","","","","","instructions","171","1006410","0.0-13.4-0.4","6728092788e31f69b592fda0","6796e1c0ff24ca17c453c51c","67c6a3882610e5ab7ad81719","passed","[{""page_index"":0,""viewing_time"":5065}]","5065","","","","","","","","","","","","","","","","","","","","","","","","","","","","",""
"","","","","","html-keyboard-response","172","1008524","0.0-13.4-1.4","6728092788e31f69b592fda0","6796e1c0ff24ca17c453c51c","67c6a3882610e5ab7ad81719","passed","","2114","","","","","","","","","","","","","<p><span style=""font-size:40px;"">Practice BLOCK 1</span></p><p><span style=""font-size:25px;"">You have <b style=""color: #FF644F;""><strong>3 second(s)</strong></b> to respond to the following trials.</span><br></p><p id=""blinking-text"" style=""font-weight; animation: blink 2s infinite;"">Press Space to continue</p><style>
                    @keyframes blink {
                        50% {
                            opacity: 0;
                        }
                    }
                </style>"," ","","","","","","","","","","","","","","",""
"","","","","","html-keyboard-response","173","1010095","0.0-13.4-2.4-0.12","6728092788e31f69b592fda0","6796e1c0ff24ca17c453c51c","67c6a3882610e5ab7ad81719","passed","","","","","","","","","","","","","","","","","ballFalling_prac","660","610","263","4","fallScene","false","","","","","","","",""
"","","","","","html-keyboard-response","174","1013097","0.0-13.4-2.4-1.12","6728092788e31f69b592fda0","6796e1c0ff24ca17c453c51c","67c6a3882610e5ab7ad81719","passed","","758","","","","","","","","","","","","","","j","yesOrNo_prac","","","","4","","","gt","3000","","","","","",""
"","","","","","html-keyboard-response","175","1014649","0.0-13.4-2.4-0.13","6728092788e31f69b592fda0","6796e1c0ff24ca17c453c51c","67c6a3882610e5ab7ad81719","passed","","","","","","","","","","","","","","","","","ballFalling_prac","416","464","296","1","fallScene","false","","","","","","","",""
"","","","","","html-keyboard-response","176","1017653","0.0-13.4-2.4-1.13","6728092788e31f69b592fda0","6796e1c0ff24ca17c453c51c","67c6a3882610e5ab7ad81719","passed","","993","","","","","","","","","","","","","","j","yesOrNo_prac","","","","1","","","far gt","3000","","","","","",""
"","","","","","html-keyboard-response","177","1019217","0.0-13.4-2.4-0.14","6728092788e31f69b592fda0","6796e1c0ff24ca17c453c51c","67c6a3882610e5ab7ad81719","passed","","","","","","","","","","","","","","","","","ballFalling_prac","584","536","296","1","fallScene","true","","","","","","","",""
"","","","","","html-keyboard-response","178","1022222","0.0-13.4-2.4-1.14","6728092788e31f69b592fda0","6796e1c0ff24ca17c453c51c","67c6a3882610e5ab7ad81719","passed","","1195","","","","","","","","","","","","","","j","yesOrNo_prac","","","","1","","","close gt","3000","","","","","",""
"","","","","","html-keyboard-response","179","1023944","0.0-13.4-3.4","6728092788e31f69b592fda0","6796e1c0ff24ca17c453c51c","67c6a3882610e5ab7ad81719","passed","","1721","","","","","","","","","","","","","<p><span style=""font-size:40px;"">Practice BLOCK 2</span></p><p><span style=""font-size:25px;"">You have <b style=""color: #FF644F;""><strong>0.7 second(s)</strong></b> to respond to the following trials.</span><br></p><p id=""blinking-text"" style=""font-weight; animation: blink 2s infinite;"">Press Space to continue</p><style>
                    @keyframes blink {
                        50% {
                            opacity: 0;
                        }
                    }
                </style>"," ","","","","","","","","","","","","","","",""
"","","","","","html-keyboard-response","180","1025505","0.0-13.4-4.4-0.12","6728092788e31f69b592fda0","6796e1c0ff24ca17c453c51c","67c6a3882610e5ab7ad81719","passed","","","","","","","","","","","","","","","","","ballFalling_prac","660","610","263","4","fallScene","false","","","","","","","",""
"","","","","","html-keyboard-response","181","1026209","0.0-13.4-4.4-1.12","6728092788e31f69b592fda0","6796e1c0ff24ca17c453c51c","67c6a3882610e5ab7ad81719","passed","","null","","","","","","","","","","","","","","null","yesOrNo_prac","","","","4","","","far gt","700","","","","","",""
"","","","","","html-keyboard-response","182","1027776","0.0-13.4-4.4-0.13","6728092788e31f69b592fda0","6796e1c0ff24ca17c453c51c","67c6a3882610e5ab7ad81719","passed","","","","","","","","","","","","","","","","","ballFalling_prac","441","500","317","6","fallScene","true","","","","","","","",""
"","","","","","html-keyboard-response","183","1028478","0.0-13.4-4.4-1.13","6728092788e31f69b592fda0","6796e1c0ff24ca17c453c51c","67c6a3882610e5ab7ad81719","passed","","null","","","","","","","","","","","","","","null","yesOrNo_prac","","","","6","","","gt","700","","","","","",""
"","","","","","html-keyboard-response","184","1030579","0.0-13.4-4.4-0.14","6728092788e31f69b592fda0","6796e1c0ff24ca17c453c51c","67c6a3882610e5ab7ad81719","passed","","","","","","","","","","","","","","","","","ballFalling_prac","340","334","350","3","fallScene","true","","","","","","","",""
"","","","","","html-keyboard-response","185","1031283","0.0-13.4-4.4-1.14","6728092788e31f69b592fda0","6796e1c0ff24ca17c453c51c","67c6a3882610e5ab7ad81719","passed","","null","","","","","","","","","","","","","","null","yesOrNo_prac","","","","3","","","close gt","700","","","","","",""
"","","","","","instructions","186","1036595","0.0-13.4-5.4","6728092788e31f69b592fda0","6796e1c0ff24ca17c453c51c","67c6a3882610e5ab7ad81719","passed","[{""page_index"":0,""viewing_time"":5312}]","5312","","","","","","","","","","","","","","","","","","","","","","","","","","","","",""
"","","","","","html-keyboard-response","187","1038045","0.0-13.4-6.4","6728092788e31f69b592fda0","6796e1c0ff24ca17c453c51c","67c6a3882610e5ab7ad81719","passed","","1449","","","","","","","","","","","","","<p><span style=""font-size:40px;"">Practice Test BLOCK 1</span></p><p><span style=""font-size:25px;"">You have <b style=""color: #FF644F;""><strong>0.7 second(s)</strong></b> to respond to the following trials.</span><br></p><p id=""blinking-text"" style=""font-weight; animation: blink 2s infinite;"">Press Space to continue</p><style>
                    @keyframes blink {
                        50% {
                            opacity: 0;
                        }
                    }
                </style>"," ","","","","","","","","","","","","","","",""
"","","","","","html-keyboard-response","188","1039614","0.0-13.4-7.4-0.12","6728092788e31f69b592fda0","6796e1c0ff24ca17c453c51c","67c6a3882610e5ab7ad81719","passed","","","","","","","","","","","","","","","","","ballFalling_prac","559","586","302","5","fallScene","false","","","","","","","",""
"","","","","","html-keyboard-response","189","1040318","0.0-13.4-7.4-1.12","6728092788e31f69b592fda0","6796e1c0ff24ca17c453c51c","67c6a3882610e5ab7ad81719","passed","","null","","","","","","","","","","","","","","null","yesOrNo_prac","","","","5","","","gt","700","","","","","",""
"","","","","","html-keyboard-response","190","1041880","0.0-13.4-7.4-0.13","6728092788e31f69b592fda0","6796e1c0ff24ca17c453c51c","67c6a3882610e5ab7ad81719","passed","","","","","","","","","","","","","","","","","ballFalling_prac","441","500","317","6","fallScene","true","","","","","","","",""
"","","","","","html-keyboard-response","191","1042584","0.0-13.4-7.4-1.13","6728092788e31f69b592fda0","6796e1c0ff24ca17c453c51c","67c6a3882610e5ab7ad81719","passed","","643","","","","","","","","","","","","","","j","yesOrNo_prac","","","","6","","","close gt","700","","","","","",""
"","","","","","html-keyboard-response","192","1044166","0.0-13.4-7.4-0.14","6728092788e31f69b592fda0","6796e1c0ff24ca17c453c51c","67c6a3882610e5ab7ad81719","passed","","","","","","","","","","","","","","","","","ballFalling_prac","340","390","263","4","fallScene","true","","","","","","","",""
"","","","","","html-keyboard-response","193","1044869","0.0-13.4-7.4-1.14","6728092788e31f69b592fda0","6796e1c0ff24ca17c453c51c","67c6a3882610e5ab7ad81719","passed","","307","","","","","","","","","","","","","","j","yesOrNo_prac","","","","4","","","far gt","700","","","","","",""
"","","","","","html-keyboard-response","194","1046465","0.0-13.4-8.4","6728092788e31f69b592fda0","6796e1c0ff24ca17c453c51c","67c6a3882610e5ab7ad81719","passed","","1596","","","","","","","","","","","","","<p><span style=""font-size:40px;"">Practice Test BLOCK 2</span></p><p><span style=""font-size:25px;"">You have <b style=""color: #FF644F;""><strong>3 second(s)</strong></b> to respond to the following trials.</span><br></p><p id=""blinking-text"" style=""font-weight; animation: blink 2s infinite;"">Press Space to continue</p><style>
                    @keyframes blink {
                        50% {
                            opacity: 0;
                        }
                    }
                </style>"," ","","","","","","","","","","","","","","",""
"","","","","","html-keyboard-response","195","1048043","0.0-13.4-9.4-0.12","6728092788e31f69b592fda0","6796e1c0ff24ca17c453c51c","67c6a3882610e5ab7ad81719","passed","","","","","","","","","","","","","","","","","ballFalling_prac","559","586","302","5","fallScene","false","","","","","","","",""
"","","","","","html-keyboard-response","196","1051047","0.0-13.4-9.4-1.12","6728092788e31f69b592fda0","6796e1c0ff24ca17c453c51c","67c6a3882610e5ab7ad81719","passed","","812","","","","","","","","","","","","","","j","yesOrNo_prac","","","","5","","","far gt","3000","","","","","",""
"","","","","","html-keyboard-response","197","1052613","0.0-13.4-9.4-0.13","6728092788e31f69b592fda0","6796e1c0ff24ca17c453c51c","67c6a3882610e5ab7ad81719","passed","","","","","","","","","","","","","","","","","ballFalling_prac","340","390","263","4","fallScene","true","","","","","","","",""
"","","","","","html-keyboard-response","198","1055618","0.0-13.4-9.4-1.13","6728092788e31f69b592fda0","6796e1c0ff24ca17c453c51c","67c6a3882610e5ab7ad81719","passed","","740","","","","","","","","","","","","","","j","yesOrNo_prac","","","","4","","","close gt","3000","","","","","",""
"","","","","","html-keyboard-response","199","1057190","0.0-13.4-9.4-0.14","6728092788e31f69b592fda0","6796e1c0ff24ca17c453c51c","67c6a3882610e5ab7ad81719","passed","","","","","","","","","","","","","","","","","ballFalling_prac","416","365","249","2","fallScene","false","","","","","","","",""
"","","","","","html-keyboard-response","200","1060193","0.0-13.4-9.4-1.14","6728092788e31f69b592fda0","6796e1c0ff24ca17c453c51c","67c6a3882610e5ab7ad81719","passed","","793","","","","","","","","","","","","","","j","yesOrNo_prac","","","","2","","","gt","3000","","","","","",""
"","","","","","instructions","201","1063185","0.0-14.0","6728092788e31f69b592fda0","6796e1c0ff24ca17c453c51c","67c6a3882610e5ab7ad81719","passed","[{""page_index"":0,""viewing_time"":2992}]","2992","","","","","","","","","","","","","","","","","","","","","","","","","","","","",""
"","","","","","html-keyboard-response","202","1065215","0.0-15.0","6728092788e31f69b592fda0","6796e1c0ff24ca17c453c51c","67c6a3882610e5ab7ad81719","passed","","2029","","","","","","","","","","","","","<p><span style=""font-size:40px;"">BLOCK 1</span></p><p><span style=""font-size:25px;"">You have <b style=""color: #FF644F;""><strong>0.7 second(s)</strong></b> to respond to the following trials.</span><br></p><p></p> <!-- Blank line -->
                <p id=""blinking-text"" style=""font-weight; animation: blink 2s infinite;"">Press Space to continue</p>
                <style>
                    @keyframes blink {
                        50% {
                            opacity: 0;
                        }
                    }
                </style></p>"," ","","","","","","","","","","","","","","",""
"","","","","","html-keyboard-response","203","1066798","0.0-16.0-0.0","6728092788e31f69b592fda0","6796e1c0ff24ca17c453c51c","67c6a3882610e5ab7ad81719","passed","","","","","","","","","","","","","","","","","ballFalling","500","553.4711431702997","282.51","7","fallScene","false","","","","","","1","",""
"","","","","","html-keyboard-response","204","1067502","0.0-16.0-1.0","6728092788e31f69b592fda0","6796e1c0ff24ca17c453c51c","67c6a3882610e5ab7ad81719","passed","","null","","","","","","","","","","","","","","null","yesOrNo","","","","7","","","gt","700","","","","1","553.4711431702997","282.51"
"","","","","","html-keyboard-response","205","1068987","0.0-16.0-0.1","6728092788e31f69b592fda0","6796e1c0ff24ca17c453c51c","67c6a3882610e5ab7ad81719","passed","","","","","","","","","","","","","","","","","ballFalling","604.4000000000001","667.6211431702998","201.78","9","fallScene","true","","","","","","2","",""
"","","","","","html-keyboard-response","206","1069689","0.0-16.0-1.1","6728092788e31f69b592fda0","6796e1c0ff24ca17c453c51c","67c6a3882610e5ab7ad81719","passed","","null","","","","","","","","","","","","","","null","yesOrNo","","","","9","","","mid","700","","","","2","605.4000000000001","300"
"","","","","","html-keyboard-response","207","1071262","0.0-16.0-0.2","6728092788e31f69b592fda0","6796e1c0ff24ca17c453c51c","67c6a3882610e5ab7ad81719","passed","","","","","","","","","","","","","","","","","ballFalling","322.3","296.07114317029976","371.46","3","fallScene","true","","","","","","3","",""
"","","","","","html-keyboard-response","208","1071964","0.0-16.0-1.2","6728092788e31f69b592fda0","6796e1c0ff24ca17c453c51c","67c6a3882610e5ab7ad81719","passed","","null","","","","","","","","","","","","","","null","yesOrNo","","","","3","","","lp","700","","","","3","321.3","287.3327096511259"
"","","","","","html-keyboard-response","209","1073536","0.0-16.0-0.3","6728092788e31f69b592fda0","6796e1c0ff24ca17c453c51c","67c6a3882610e5ab7ad81719","passed","","","","","","","","","","","","","","","","","ballFalling","322.3","379.3711431702997","245.25","1","fallScene","false","","","","","","4","",""
"","","","","","html-keyboard-response","210","1074240","0.0-16.0-1.3","6728092788e31f69b592fda0","6796e1c0ff24ca17c453c51c","67c6a3882610e5ab7ad81719","passed","","null","","","","","","","","","","","","","","null","yesOrNo","","","","1","","","mid","700","","","","4","390.27114317029975","300"
"","","","","","html-keyboard-response","211","1075802","0.0-16.0-0.4","6728092788e31f69b592fda0","6796e1c0ff24ca17c453c51c","67c6a3882610e5ab7ad81719","passed","","","","","","","","","","","","","","","","","ballFalling","322.3","379.3711431702997","245.25","1","fallScene","false","","","","","","5","",""
"","","","","","html-keyboard-response","212","1076504","0.0-16.0-1.4","6728092788e31f69b592fda0","6796e1c0ff24ca17c453c51c","67c6a3882610e5ab7ad81719","passed","","null","","","","","","","","","","","","","","null","yesOrNo","","","","1","","","lp","700","","","","5","323.3","217.74551669457017"
"","","","","","html-keyboard-response","213","1078065","0.0-16.0-0.5","6728092788e31f69b592fda0","6796e1c0ff24ca17c453c51c","67c6a3882610e5ab7ad81719","passed","","","","","","","","","","","","","","","","","ballFalling","604.4000000000001","650.0211431702996","404.58000000000004","11","fallScene","false","","","","","","6","",""
"","","","","","html-keyboard-response","214","1078768","0.0-16.0-1.5","6728092788e31f69b592fda0","6796e1c0ff24ca17c453c51c","67c6a3882610e5ab7ad81719","passed","","null","","","","","","","","","","","","","","null","yesOrNo","","","","11","","","gt","700","","","","6","650.0211431702996","404.58"
"","","","","","html-keyboard-response","215","1080777","0.0-16.0-0.6","6728092788e31f69b592fda0","6796e1c0ff24ca17c453c51c","67c6a3882610e5ab7ad81719","passed","","","","","","","","","","","","","","","","","ballFalling","604.4000000000001","596.8711431702998","394.5","10","fallScene","true","","","","","","7","",""
"","","","","","html-keyboard-response","216","1081481","0.0-16.0-1.6","6728092788e31f69b592fda0","6796e1c0ff24ca17c453c51c","67c6a3882610e5ab7ad81719","passed","","null","","","","","","","","","","","","","","null","yesOrNo","","","","10","","","mid","700","","","","7","536.4288568297004","300"
"","","","","","html-keyboard-response","217","1082984","0.0-16.0-0.7","6728092788e31f69b592fda0","6796e1c0ff24ca17c453c51c","67c6a3882610e5ab7ad81719","passed","","","","","","","","","","","","","","","","","ballFalling","604.4000000000001","667.6211431702998","201.78","9","fallScene","false","","","","","","8","",""
"","","","","","html-keyboard-response","218","1083687","0.0-16.0-1.7","6728092788e31f69b592fda0","6796e1c0ff24ca17c453c51c","67c6a3882610e5ab7ad81719","passed","","null","","","","","","","","","","","","","","null","yesOrNo","","","","9","","","gt","700","","","","8","667.6211431702998","201.78"
"","","","","","html-keyboard-response","219","1085252","0.0-16.0-0.8","6728092788e31f69b592fda0","6796e1c0ff24ca17c453c51c","67c6a3882610e5ab7ad81719","passed","","","","","","","","","","","","","","","","","ballFalling","604.4000000000001","575.4211431702997","266.76","12","fallScene","false","","","","","","9","",""
"","","","","","html-keyboard-response","220","1085958","0.0-16.0-1.8","6728092788e31f69b592fda0","6796e1c0ff24ca17c453c51c","67c6a3882610e5ab7ad81719","passed","","null","","","","","","","","","","","","","","null","yesOrNo","","","","12","","","gt","700","","","","9","575.4211431702997","266.76"
"","","","","","html-keyboard-response","221","1087515","0.0-16.0-0.9","6728092788e31f69b592fda0","6796e1c0ff24ca17c453c51c","67c6a3882610e5ab7ad81719","passed","","","","","","","","","","","","","","","","","ballFalling","604.4000000000001","575.4211431702997","266.76","12","fallScene","true","","","","","","10","",""
"","","","","","html-keyboard-response","222","1088217","0.0-16.0-1.9","6728092788e31f69b592fda0","6796e1c0ff24ca17c453c51c","67c6a3882610e5ab7ad81719","passed","","null","","","","","","","","","","","","","","null","yesOrNo","","","","12","","","lp","700","","","","10","603.4000000000001","151"
"","","","","","html-keyboard-response","223","1090000","0.0-16.0-0.10","6728092788e31f69b592fda0","6796e1c0ff24ca17c453c51c","67c6a3882610e5ab7ad81719","passed","","","","","","","","","","","","","","","","","ballFalling","322.3","308.07114317029976","253.89","2","fallScene","true","","","","","","11","",""
"","","","","","html-keyboard-response","224","1090701","0.0-16.0-1.10","6728092788e31f69b592fda0","6796e1c0ff24ca17c453c51c","67c6a3882610e5ab7ad81719","passed","","null","","","","","","","","","","","","","","null","yesOrNo","","","","2","","","mid","700","","","","11","321.3","300"
"","","","","","html-keyboard-response","225","1092289","0.0-16.0-0.11","6728092788e31f69b592fda0","6796e1c0ff24ca17c453c51c","67c6a3882610e5ab7ad81719","passed","","","","","","","","","","","","","","","","","ballFalling","500","553.4711431702997","282.51","7","fallScene","false","","","","","","12","",""
"","","","","","html-keyboard-response","226","1092993","0.0-16.0-1.11","6728092788e31f69b592fda0","6796e1c0ff24ca17c453c51c","67c6a3882610e5ab7ad81719","passed","","null","","","","","","","","","","","","","","null","yesOrNo","","","","7","","","gt","700","","","","12","553.4711431702997","282.51"
"","","","","","html-keyboard-response","227","1094570","0.0-16.0-0.12","6728092788e31f69b592fda0","6796e1c0ff24ca17c453c51c","67c6a3882610e5ab7ad81719","passed","","","","","","","","","","","","","","","","","ballFalling","500","553.4711431702997","282.51","7","fallScene","true","","","","","","13","",""
"","","","","","html-keyboard-response","228","1095273","0.0-16.0-1.12","6728092788e31f69b592fda0","6796e1c0ff24ca17c453c51c","67c6a3882610e5ab7ad81719","passed","","null","","","","","","","","","","","","","","null","yesOrNo","","","","7","","","lp","700","","","","13","501","227.2843295913261"
"","","","","","html-keyboard-response","229","1096840","0.0-16.0-0.13","6728092788e31f69b592fda0","6796e1c0ff24ca17c453c51c","67c6a3882610e5ab7ad81719","passed","","","","","","","","","","","","","","","","","ballFalling","322.3","296.07114317029976","371.46","3","fallScene","false","","","","","","14","",""
"","","","","","html-keyboard-response","230","1097543","0.0-16.0-1.13","6728092788e31f69b592fda0","6796e1c0ff24ca17c453c51c","67c6a3882610e5ab7ad81719","passed","","null","","","","","","","","","","","","","","null","yesOrNo","","","","3","","","mid","700","","","","14","321.3","300"
"","","","","","html-keyboard-response","231","1099115","0.0-16.0-0.14","6728092788e31f69b592fda0","6796e1c0ff24ca17c453c51c","67c6a3882610e5ab7ad81719","passed","","","","","","","","","","","","","","","","","ballFalling","604.4000000000001","575.4211431702997","266.76","12","fallScene","true","","","","","","15","",""
"","","","","","html-keyboard-response","232","1099817","0.0-16.0-1.14","6728092788e31f69b592fda0","6796e1c0ff24ca17c453c51c","67c6a3882610e5ab7ad81719","passed","","null","","","","","","","","","","","","","","null","yesOrNo","","","","12","","","lp","700","","","","15","603.4000000000001","151"
"","","","","","html-keyboard-response","233","1101470","0.0-16.0-0.15","6728092788e31f69b592fda0","6796e1c0ff24ca17c453c51c","67c6a3882610e5ab7ad81719","passed","","","","","","","","","","","","","","","","","ballFalling","500","479.92114317029973","330.87","6","fallScene","false","","","","","","16","",""
"","","","","","html-keyboard-response","234","1102174","0.0-16.0-1.15","6728092788e31f69b592fda0","6796e1c0ff24ca17c453c51c","67c6a3882610e5ab7ad81719","passed","","553","","","","","","","","","","","","","","j","yesOrNo","","","","6","","","lp","700","","","","16","499","189.92909825697632"
"","","","","","html-keyboard-response","235","1104188","0.0-16.0-0.16","6728092788e31f69b592fda0","6796e1c0ff24ca17c453c51c","67c6a3882610e5ab7ad81719","passed","","","","","","","","","","","","","","","","","ballFalling","500","510.8711431702997","369.03","8","fallScene","true","","","","","","17","",""
"","","","","","html-keyboard-response","236","1104891","0.0-16.0-1.16","6728092788e31f69b592fda0","6796e1c0ff24ca17c453c51c","67c6a3882610e5ab7ad81719","passed","","105","","","","","","","","","","","","","","j","yesOrNo","","","","8","","","mid","700","","","","17","501","300"
"","","","","","html-keyboard-response","237","1106542","0.0-16.0-0.17","6728092788e31f69b592fda0","6796e1c0ff24ca17c453c51c","67c6a3882610e5ab7ad81719","passed","","","","","","","","","","","","","","","","","ballFalling","500","479.92114317029973","330.87","6","fallScene","true","","","","","","18","",""
"","","","","","html-keyboard-response","238","1107245","0.0-16.0-1.17","6728092788e31f69b592fda0","6796e1c0ff24ca17c453c51c","67c6a3882610e5ab7ad81719","passed","","null","","","","","","","","","","","","","","null","yesOrNo","","","","6","","","gt","700","","","","18","479.9211431702998","330.87"
"","","","","","html-keyboard-response","239","1108804","0.0-16.0-0.18","6728092788e31f69b592fda0","6796e1c0ff24ca17c453c51c","67c6a3882610e5ab7ad81719","passed","","","","","","","","","","","","","","","","","ballFalling","604.4000000000001","650.0211431702996","404.58000000000004","11","fallScene","true","","","","","","19","",""
"","","","","","html-keyboard-response","240","1109509","0.0-16.0-1.18","6728092788e31f69b592fda0","6796e1c0ff24ca17c453c51c","67c6a3882610e5ab7ad81719","passed","","null","","","","","","","","","","","","","","null","yesOrNo","","","","11","","","gt","700","","","","19","650.0211431702996","404.58"
"","","","","","html-keyboard-response","241","1111074","0.0-16.0-0.19","6728092788e31f69b592fda0","6796e1c0ff24ca17c453c51c","67c6a3882610e5ab7ad81719","passed","","","","","","","","","","","","","","","","","ballFalling","500","453.67114317029973","210.33","5","fallScene","false","","","","","","20","",""
"","","","","","html-keyboard-response","242","1111776","0.0-16.0-1.19","6728092788e31f69b592fda0","6796e1c0ff24ca17c453c51c","67c6a3882610e5ab7ad81719","passed","","null","","","","","","","","","","","","","","null","yesOrNo","","","","5","","","mid","700","","","","20","499","300"
"","","","","","html-keyboard-response","243","1113331","0.0-16.0-0.20","6728092788e31f69b592fda0","6796e1c0ff24ca17c453c51c","67c6a3882610e5ab7ad81719","passed","","","","","","","","","","","","","","","","","ballFalling","322.3","296.07114317029976","371.46","3","fallScene","false","","","","","","21","",""
"","","","","","html-keyboard-response","244","1114033","0.0-16.0-1.20","6728092788e31f69b592fda0","6796e1c0ff24ca17c453c51c","67c6a3882610e5ab7ad81719","passed","","null","","","","","","","","","","","","","","null","yesOrNo","","","","3","","","gt","700","","","","21","296.07114317029976","371.46"
"","","","","","html-keyboard-response","245","1115595","0.0-16.0-0.21","6728092788e31f69b592fda0","6796e1c0ff24ca17c453c51c","67c6a3882610e5ab7ad81719","passed","","","","","","","","","","","","","","","","","ballFalling","322.3","296.07114317029976","371.46","3","fallScene","false","","","","","","22","",""
"","","","","","html-keyboard-response","246","1116297","0.0-16.0-1.21","6728092788e31f69b592fda0","6796e1c0ff24ca17c453c51c","67c6a3882610e5ab7ad81719","passed","","null","","","","","","","","","","","","","","null","yesOrNo","","","","3","","","mid","700","","","","22","321.3","300"
"","","","","","html-keyboard-response","247","1118087","0.0-16.0-0.22","6728092788e31f69b592fda0","6796e1c0ff24ca17c453c51c","67c6a3882610e5ab7ad81719","passed","","","","","","","","","","","","","","","","","ballFalling","322.3","308.07114317029976","253.89","2","fallScene","false","","","","","","23","",""
"","","","","","html-keyboard-response","248","1118791","0.0-16.0-1.22","6728092788e31f69b592fda0","6796e1c0ff24ca17c453c51c","67c6a3882610e5ab7ad81719","passed","","null","","","","","","","","","","","","","","null","yesOrNo","","","","2","","","gt","700","","","","23","308.07114317029976","253.89"
"","","","","","html-keyboard-response","249","1120344","0.0-16.0-0.23","6728092788e31f69b592fda0","6796e1c0ff24ca17c453c51c","67c6a3882610e5ab7ad81719","passed","","","","","","","","","","","","","","","","","ballFalling","322.3","356.42114317029973","357.87","4","fallScene","true","","","","","","24","",""
"","","","","","html-keyboard-response","250","1121049","0.0-16.0-1.23","6728092788e31f69b592fda0","6796e1c0ff24ca17c453c51c","67c6a3882610e5ab7ad81719","passed","","null","","","","","","","","","","","","","","null","yesOrNo","","","","4","","","lp","700","","","","24","323.3","297.4070551689986"
"","","","","","html-keyboard-response","251","1123474","0.0-17.0","6728092788e31f69b592fda0","6796e1c0ff24ca17c453c51c","67c6a3882610e5ab7ad81719","passed","","2425","","","","","","","","","","","","","<p><span style=""font-size:40px;"">BLOCK 2</span></p><p><span style=""font-size:25px;"">You have <b style=""color: #FF644F;""><strong>0.7 second(s)</strong></b> to respond to the following trials.</span><br></p><p></p> <!-- Blank line -->
                <p id=""blinking-text"" style=""font-weight; animation: blink 2s infinite;"">Press Space to continue</p>
                <style>
                    @keyframes blink {
                        50% {
                            opacity: 0;
                        }
                    }
                </style></p>"," ","","","","","","","","","","","","","","",""
"","","","","","html-keyboard-response","252","1125042","0.0-18.0-0.0","6728092788e31f69b592fda0","6796e1c0ff24ca17c453c51c","67c6a3882610e5ab7ad81719","passed","","","","","","","","","","","","","","","","","ballFalling","604.4000000000001","575.4211431702997","266.76","12","fallScene","false","","","","","","25","",""
"","","","","","html-keyboard-response","253","1125744","0.0-18.0-1.0","6728092788e31f69b592fda0","6796e1c0ff24ca17c453c51c","67c6a3882610e5ab7ad81719","passed","","671","","","","","","","","","","","","","","j","yesOrNo","","","","12","","","mid","700","","","","25","536.4288568297004","300"
"","","","","","html-keyboard-response","254","1127522","0.0-18.0-0.1","6728092788e31f69b592fda0","6796e1c0ff24ca17c453c51c","67c6a3882610e5ab7ad81719","passed","","","","","","","","","","","","","","","","","ballFalling","322.3","308.07114317029976","253.89","2","fallScene","false","","","","","","26","",""
"","","","","","html-keyboard-response","255","1128227","0.0-18.0-1.1","6728092788e31f69b592fda0","6796e1c0ff24ca17c453c51c","67c6a3882610e5ab7ad81719","passed","","590","","","","","","","","","","","","","","j","yesOrNo","","","","2","","","lp","700","","","","26","321.3","151"
"","","","","","html-keyboard-response","256","1130239","0.0-18.0-0.2","6728092788e31f69b592fda0","6796e1c0ff24ca17c453c51c","67c6a3882610e5ab7ad81719","passed","","","","","","","","","","","","","","","","","ballFalling","500","510.8711431702997","369.03","8","fallScene","false","","","","","","27","",""
"","","","","","html-keyboard-response","257","1130942","0.0-18.0-1.2","6728092788e31f69b592fda0","6796e1c0ff24ca17c453c51c","67c6a3882610e5ab7ad81719","passed","","null","","","","","","","","","","","","","","null","yesOrNo","","","","8","","","gt","700","","","","27","510.8711431702997","369.03"
"","","","","","html-keyboard-response","258","1132443","0.0-18.0-0.3","6728092788e31f69b592fda0","6796e1c0ff24ca17c453c51c","67c6a3882610e5ab7ad81719","passed","","","","","","","","","","","","","","","","","ballFalling","604.4000000000001","667.6211431702998","201.78","9","fallScene","false","","","","","","28","",""
"","","","","","html-keyboard-response","259","1133147","0.0-18.0-1.3","6728092788e31f69b592fda0","6796e1c0ff24ca17c453c51c","67c6a3882610e5ab7ad81719","passed","","null","","","","","","","","","","","","","","null","yesOrNo","","","","9","","","lp","700","","","","28","605.4000000000001","151"
"","","","","","html-keyboard-response","260","1134726","0.0-18.0-0.4","6728092788e31f69b592fda0","6796e1c0ff24ca17c453c51c","67c6a3882610e5ab7ad81719","passed","","","","","","","","","","","","","","","","","ballFalling","500","553.4711431702997","282.51","7","fallScene","false","","","","","","29","",""
"","","","","","html-keyboard-response","261","1135429","0.0-18.0-1.4","6728092788e31f69b592fda0","6796e1c0ff24ca17c453c51c","67c6a3882610e5ab7ad81719","passed","","null","","","","","","","","","","","","","","null","yesOrNo","","","","7","","","mid","700","","","","29","501","300"
"","","","","","html-keyboard-response","262","1137444","0.0-18.0-0.5","6728092788e31f69b592fda0","6796e1c0ff24ca17c453c51c","67c6a3882610e5ab7ad81719","passed","","","","","","","","","","","","","","","","","ballFalling","604.4000000000001","596.8711431702998","394.5","10","fallScene","true","","","","","","30","",""
"","","","","","html-keyboard-response","263","1138146","0.0-18.0-1.5","6728092788e31f69b592fda0","6796e1c0ff24ca17c453c51c","67c6a3882610e5ab7ad81719","passed","","603","","","","","","","","","","","","","","j","yesOrNo","","","","10","","","gt","700","","","","30","596.8711431702998","394.5"
"","","","","","html-keyboard-response","264","1139704","0.0-18.0-0.6","6728092788e31f69b592fda0","6796e1c0ff24ca17c453c51c","67c6a3882610e5ab7ad81719","passed","","","","","","","","","","","","","","","","","ballFalling","322.3","379.3711431702997","245.25","1","fallScene","true","","","","","","31","",""
"","","","","","html-keyboard-response","265","1140406","0.0-18.0-1.6","6728092788e31f69b592fda0","6796e1c0ff24ca17c453c51c","67c6a3882610e5ab7ad81719","passed","","null","","","","","","","","","","","","","","null","yesOrNo","","","","1","","","gt","700","","","","31","379.3711431702997","245.25"
"","","","","","html-keyboard-response","266","1141902","0.0-18.0-0.7","6728092788e31f69b592fda0","6796e1c0ff24ca17c453c51c","67c6a3882610e5ab7ad81719","passed","","","","","","","","","","","","","","","","","ballFalling","604.4000000000001","667.6211431702998","201.78","9","fallScene","false","","","","","","32","",""
"","","","","","html-keyboard-response","267","1142604","0.0-18.0-1.7","6728092788e31f69b592fda0","6796e1c0ff24ca17c453c51c","67c6a3882610e5ab7ad81719","passed","","null","","","","","","","","","","","","","","null","yesOrNo","","","","9","","","lp","700","","","","32","605.4000000000001","151"
"","","","","","html-keyboard-response","268","1144395","0.0-18.0-0.8","6728092788e31f69b592fda0","6796e1c0ff24ca17c453c51c","67c6a3882610e5ab7ad81719","passed","","","","","","","","","","","","","","","","","ballFalling","322.3","308.07114317029976","253.89","2","fallScene","false","","","","","","33","",""
"","","","","","html-keyboard-response","269","1145101","0.0-18.0-1.8","6728092788e31f69b592fda0","6796e1c0ff24ca17c453c51c","67c6a3882610e5ab7ad81719","passed","","null","","","","","","","","","","","","","","null","yesOrNo","","","","2","","","mid","700","","","","33","321.3","300"
"","","","","","html-keyboard-response","270","1146751","0.0-18.0-0.9","6728092788e31f69b592fda0","6796e1c0ff24ca17c453c51c","67c6a3882610e5ab7ad81719","passed","","","","","","","","","","","","","","","","","ballFalling","500","479.92114317029973","330.87","6","fallScene","false","","","","","","34","",""
"","","","","","html-keyboard-response","271","1147455","0.0-18.0-1.9","6728092788e31f69b592fda0","6796e1c0ff24ca17c453c51c","67c6a3882610e5ab7ad81719","passed","","null","","","","","","","","","","","","","","null","yesOrNo","","","","6","","","lp","700","","","","34","499","189.92909825697632"
"","","","","","html-keyboard-response","272","1149477","0.0-18.0-0.10","6728092788e31f69b592fda0","6796e1c0ff24ca17c453c51c","67c6a3882610e5ab7ad81719","passed","","","","","","","","","","","","","","","","","ballFalling","500","510.8711431702997","369.03","8","fallScene","false","","","","","","35","",""
"","","","","","html-keyboard-response","273","1150180","0.0-18.0-1.10","6728092788e31f69b592fda0","6796e1c0ff24ca17c453c51c","67c6a3882610e5ab7ad81719","passed","","null","","","","","","","","","","","","","","null","yesOrNo","","","","8","","","lp","700","","","","35","501","151"
"","","","","","html-keyboard-response","274","1151743","0.0-18.0-0.11","6728092788e31f69b592fda0","6796e1c0ff24ca17c453c51c","67c6a3882610e5ab7ad81719","passed","","","","","","","","","","","","","","","","","ballFalling","322.3","379.3711431702997","245.25","1","fallScene","true","","","","","","36","",""
"","","","","","html-keyboard-response","275","1152446","0.0-18.0-1.11","6728092788e31f69b592fda0","6796e1c0ff24ca17c453c51c","67c6a3882610e5ab7ad81719","passed","","null","","","","","","","","","","","","","","null","yesOrNo","","","","1","","","mid","700","","","","36","390.27114317029975","300"
"","","","","","html-keyboard-response","276","1154005","0.0-18.0-0.12","6728092788e31f69b592fda0","6796e1c0ff24ca17c453c51c","67c6a3882610e5ab7ad81719","passed","","","","","","","","","","","","","","","","","ballFalling","500","453.67114317029973","210.33","5","fallScene","false","","","","","","37","",""
"","","","","","html-keyboard-response","277","1154707","0.0-18.0-1.12","6728092788e31f69b592fda0","6796e1c0ff24ca17c453c51c","67c6a3882610e5ab7ad81719","passed","","null","","","","","","","","","","","","","","null","yesOrNo","","","","5","","","lp","700","","","","37","499","151"
"","","","","","html-keyboard-response","278","1156262","0.0-18.0-0.13","6728092788e31f69b592fda0","6796e1c0ff24ca17c453c51c","67c6a3882610e5ab7ad81719","passed","","","","","","","","","","","","","","","","","ballFalling","322.3","296.07114317029976","371.46","3","fallScene","false","","","","","","38","",""
"","","","","","html-keyboard-response","279","1156966","0.0-18.0-1.13","6728092788e31f69b592fda0","6796e1c0ff24ca17c453c51c","67c6a3882610e5ab7ad81719","passed","","null","","","","","","","","","","","","","","null","yesOrNo","","","","3","","","lp","700","","","","38","321.3","287.3327096511259"
"","","","","","html-keyboard-response","280","1158965","0.0-18.0-0.14","6728092788e31f69b592fda0","6796e1c0ff24ca17c453c51c","67c6a3882610e5ab7ad81719","passed","","","","","","","","","","","","","","","","","ballFalling","604.4000000000001","596.8711431702998","394.5","10","fallScene","true","","","","","","39","",""
