"success","timeout","failed_images","failed_audio","failed_video","trial_type","trial_index","time_elapsed","internal_node_id","subject_id","study_id","session_id","practiceTestResult","view_history","rt","width","height","webaudio","browser","browser_version","mobile","os","fullscreen","vsync_rate","webcam","microphone","url","stimulus","response","task","ball_X","obstacle_groundTruth_x","obstacle_groundTruth_y","stimulus_idx","trial_name","flipped","choice","timeLimit","question_order","practiceTest","currentTrial","obstacle_choice_x","obstacle_choice_y"
"true","false","[]","[]","[]","preload","0","1000","0.0-0.0","673f6c92a931906b3b255300","6796e1c0ff24ca17c453c51c","67c6b27217cdc585d545b9dc","passed","","","","","","","","","","","","","","","","","","","","","","","","","","","","","",""
"","","","","","instructions","1","31087","0.0-1.0","673f6c92a931906b3b255300","6796e1c0ff24ca17c453c51c","67c6b27217cdc585d545b9dc","passed","[{""page_index"":0,""viewing_time"":30085}]","30085","","","","","","","","","","","","","","","","","","","","","","","","","","","",""
"","","","","","browser-check","2","32079","0.0-2.0","673f6c92a931906b3b255300","6796e1c0ff24ca17c453c51c","67c6b27217cdc585d545b9dc","passed","","","1280","935","true","chrome","129.0.0","false","Windows 10","true","60.93","false","true","","","","","","","","","","","","","","","","",""
"","","","","","external-html","3","136198","0.0-3.0","673f6c92a931906b3b255300","6796e1c0ff24ca17c453c51c","67c6b27217cdc585d545b9dc","passed","","102132","","","","","","","","","","","","consent.html","","","","","","","","","","","","","","","",""
"true","","","","","fullscreen","4","154727","0.0-4.0","673f6c92a931906b3b255300","6796e1c0ff24ca17c453c51c","67c6b27217cdc585d545b9dc","passed","","18214","","","","","","","","","","","","","","","","","","","","","","","","","","","",""
"","","","","","browser-check","5","155742","0.0-5.0","673f6c92a931906b3b255300","6796e1c0ff24ca17c453c51c","67c6b27217cdc585d545b9dc","passed","","","1280","1024","true","chrome","129.0.0","false","Windows 10","true","60.08","false","true","","","","","","","","","","","","","","","","",""
"","","","","","html-keyboard-response","6","166425","0.0-6.0","673f6c92a931906b3b255300","6796e1c0ff24ca17c453c51c","67c6b27217cdc585d545b9dc","passed","","10680","","","","","","","","","","","","","<p><b>This experiment requires keyboard input.</b></p> 
        <p><b>To ensure your response will be recorded successfully, please press 'Space' to continue.</b></p>
        <p>If you can't proceed, you won't be able to complete this study.</p>
        <p></p> <!-- Blank line -->
        <p id=""blinking-text"" style=""font-weight; animation: blink 2s infinite;"">Press Space to continue</p>
        <style>
            @keyframes blink {
                50% {
                    opacity: 0;
                }
            }
        </style>"," ","","","","","","","","","","","","","",""
"","","","","","html-keyboard-response","7","175579","0.0-7.0","673f6c92a931906b3b255300","6796e1c0ff24ca17c453c51c","67c6b27217cdc585d545b9dc","passed","","9146","","","","","","","","","","","","","<p><b>This experiment requires keyboard input.</b></p> 
        <p><b>To ensure your response will be recorded successfully, please press the 'f' key to continue.</b></p>
        <p>If you can't proceed, you won't be able to complete this study.</p>
        <p></p> <!-- Blank line -->
        <p id=""blinking-text"" style=""font-weight; animation: blink 2s infinite;"">Press f to continue</p>
        <style>
            @keyframes blink {
                50% {
                    opacity: 0;
                }
            }
        </style>","f","","","","","","","","","","","","","",""
"","","","","","html-keyboard-response","8","177688","0.0-8.0","673f6c92a931906b3b255300","6796e1c0ff24ca17c453c51c","67c6b27217cdc585d545b9dc","passed","","2100","","","","","","","","","","","","","<p><b>This experiment requires keyboard input.</b></p> 
        <p><b>To ensure your response will be recorded successfully, please press the 'j' key to continue.</b></p>
        <p>If you can't proceed, you won't be able to complete this study.</p>
        <p></p> <!-- Blank line -->
        <p id=""blinking-text"" style=""font-weight; animation: blink 2s infinite;"">Press j to continue</p>
        <style>
            @keyframes blink {
                50% {
                    opacity: 0;
                }
            }
        </style>","j","","","","","","","","","","","","","",""
"","","","","","browser-check","9","178701","0.0-9.0","673f6c92a931906b3b255300","6796e1c0ff24ca17c453c51c","67c6b27217cdc585d545b9dc","passed","","","1280","1024","true","chrome","129.0.0","false","Windows 10","true","60.1","false","true","","","","","","","","","","","","","","","","",""
"","","","","","survey-text","10","209882","0.0-10.0","673f6c92a931906b3b255300","6796e1c0ff24ca17c453c51c","67c6b27217cdc585d545b9dc","passed","","31169","","","","","","","","","","","","","","{""prolificID"":""673f6c92a931906b3b255300""}","","","","","","","","","","","","","",""
"","","","","","instructions","11","375117","0.0-11.0-0.0-0.0","673f6c92a931906b3b255300","6796e1c0ff24ca17c453c51c","67c6b27217cdc585d545b9dc","passed","[{""page_index"":0,""viewing_time"":72255},{""page_index"":1,""viewing_time"":51888},{""page_index"":2,""viewing_time"":19280},{""page_index"":3,""viewing_time"":21810}]","165235","","","","","","","","","","","","","","","","","","","","","","","","","","","",""
"","","","","","html-keyboard-response","12","415349","0.0-11.0-0.0-1.0","673f6c92a931906b3b255300","6796e1c0ff24ca17c453c51c","67c6b27217cdc585d545b9dc","passed","","39713","","","","","","","","","","","","","<br>Remember! After a ball falls, the screen will disappear, and you'll decide if the proposed position is where the hidden triangle was. <br>You will now practice this by watching a few videos and making decisions.<p>To respond:<br style=""margin-bottom: 5px; text-indent: -20px; padding-left: 20px;"">- Press <b style=""color: #12AD2B;"">J for Yes</b>, if you think the triangle is in the correct position.<br style=""margin-top: 0; text-indent: -20px; padding-left: 20px;"">- Press <b style=""color: orange;"">F for No</b>, if you think the triangle is not in the correct position.</p><p>In this practice round, there is no time limit. Focus on getting comfortable with the task first.<br>Press either J or F to begin your practice trials.</p><img src = ""YesOrNo_instruction.png"" style=""width: 65%;""></img>","f","","","","","","","","","","","","","",""
"","","","","","html-keyboard-response","13","416922","0.0-11.0-0.0-2.0-0.0","673f6c92a931906b3b255300","6796e1c0ff24ca17c453c51c","67c6b27217cdc585d545b9dc","passed","","","","","","","","","","","","","","","","","ballFalling_prac","416","464","296","1","fallScene","false","","","","","","",""
"","","","","","html-keyboard-response","14","418644","0.0-11.0-0.0-2.0-1.0","673f6c92a931906b3b255300","6796e1c0ff24ca17c453c51c","67c6b27217cdc585d545b9dc","passed","","1696","","","","","","","","","","","","","","f","yesOrNo_prac_noTimed","","","","1","","","gt","NA","","","","",""
"","","","","","html-keyboard-response","15","420753","0.0-11.0-0.0-2.0-0.1","673f6c92a931906b3b255300","6796e1c0ff24ca17c453c51c","67c6b27217cdc585d545b9dc","passed","","","","","","","","","","","","","","","","","ballFalling_prac","660","666","350","3","fallScene","false","","","","","","",""
"","","","","","html-keyboard-response","16","423295","0.0-11.0-0.0-2.0-1.1","673f6c92a931906b3b255300","6796e1c0ff24ca17c453c51c","67c6b27217cdc585d545b9dc","passed","","2534","","","","","","","","","","","","","","f","yesOrNo_prac_noTimed","","","","3","","","wrong direction","NA","","","","",""
"","","","","","html-keyboard-response","17","424868","0.0-11.0-0.0-2.0-0.2","673f6c92a931906b3b255300","6796e1c0ff24ca17c453c51c","67c6b27217cdc585d545b9dc","passed","","","","","","","","","","","","","","","","","ballFalling_prac","441","414","302","5","fallScene","true","","","","","","",""
"","","","","","html-keyboard-response","18","425931","0.0-11.0-0.0-2.0-1.2","673f6c92a931906b3b255300","6796e1c0ff24ca17c453c51c","67c6b27217cdc585d545b9dc","passed","","1057","","","","","","","","","","","","","","j","yesOrNo_prac_noTimed","","","","5","","","close gt","NA","","","","",""
"","","","","","instructions","19","567702","0.0-11.0-0.0-3.0","673f6c92a931906b3b255300","6796e1c0ff24ca17c453c51c","67c6b27217cdc585d545b9dc","passed","[{""page_index"":0,""viewing_time"":82177},{""page_index"":1,""viewing_time"":59588}]","141766","","","","","","","","","","","","","","","","","","","","","","","","","","","",""
"","","","","","html-button-response","20","583546","0.0-11.0-0.0-4.0","673f6c92a931906b3b255300","6796e1c0ff24ca17c453c51c","67c6b27217cdc585d545b9dc","passed","","15341","","","","","","","","","","","","","<p>To make sure you understood the task, we just have a <b>brief quiz</b> here.</p><p>If you need to review the instructions, click 'Previous'.</p><p>It's important to understand the task to do the study, so you have to pass the quiz to move to the study.</p>","1","","","","","","","","","","","","","",""
"","","","","","survey-multi-choice","21","615511","0.0-11.0-1.0-0.0","673f6c92a931906b3b255300","6796e1c0ff24ca17c453c51c","67c6b27217cdc585d545b9dc","passed","","31962","","","","","","","","","","","","","","{""generalProcedure"":""Watch a video of a ball falling, some of it behind a gray screen. After each video, decide if the triangle is at the spot where the ball hit the triangle behind the screen. There is time limit for the response.""}","","","","","","","","","","[0]","","","",""
"","","","","","survey-multi-choice","22","623674","0.0-11.0-1.0-1.0","673f6c92a931906b3b255300","6796e1c0ff24ca17c453c51c","67c6b27217cdc585d545b9dc","passed","","8160","","","","","","","","","","","","","","{""checkBallHitObstacle"":""Yes.""}","","","","","","","","","","[0]","","","",""
"","","","","","survey-multi-choice","23","631569","0.0-11.0-1.0-2.0","673f6c92a931906b3b255300","6796e1c0ff24ca17c453c51c","67c6b27217cdc585d545b9dc","passed","","7893","","","","","","","","","","","","","","{""checkTriangleVisibility"":""No, the triangle is hidden behind the gray screen.""}","","","","","","","","","","[0]","","","",""
"","","","","","survey-multi-choice","24","643329","0.0-11.0-1.0-3.0","673f6c92a931906b3b255300","6796e1c0ff24ca17c453c51c","67c6b27217cdc585d545b9dc","passed","","11757","","","","","","","","","","","","","","{""checkTimedResponse"":""Your response will not be recorded, and the trial will move to the next one.""}","","","","","","","","","","[0]","","","",""
"","","","","","survey-multi-choice","25","670145","0.0-11.0-1.0-4.0","673f6c92a931906b3b255300","6796e1c0ff24ca17c453c51c","67c6b27217cdc585d545b9dc","passed","","26814","","","","","","","","","","","","","","{""checkTimeBlockNotice"":""At the beginning of each block.""}","","","","","","","","","","[0]","","","",""
"","","","","","survey-multi-choice","26","680421","0.0-11.0-1.0-5.0","673f6c92a931906b3b255300","6796e1c0ff24ca17c453c51c","67c6b27217cdc585d545b9dc","passed","","10272","","","","","","","","","","","","","","{""checkTimeBlockSameness"":""Yes, the time limit is the same for all trials within a block.""}","","","","","","","","","","[0]","","","",""
"","","","","","survey-multi-choice","27","702597","0.0-11.0-1.0-6.0","673f6c92a931906b3b255300","6796e1c0ff24ca17c453c51c","67c6b27217cdc585d545b9dc","passed","","22171","","","","","","","","","","","","","","{""checkTrianglePrecision"":""No. The proposed purple triangle is not in the correct position because it doesn't match the location of the white triangle exactly.""}","","","","","","","","","","[0]","","","",""
"","","","","","instructions","28","805294","0.0-12.0","673f6c92a931906b3b255300","6796e1c0ff24ca17c453c51c","67c6b27217cdc585d545b9dc","passed","[{""page_index"":0,""viewing_time"":16371},{""page_index"":1,""viewing_time"":6976},{""page_index"":2,""viewing_time"":72916},{""page_index"":3,""viewing_time"":6430}]","102693","","","","","","","","","","","","","","","","","","","","","","","","","","","",""
"","","","","","instructions","29","838706","0.0-13.0-0.0","673f6c92a931906b3b255300","6796e1c0ff24ca17c453c51c","67c6b27217cdc585d545b9dc","passed","[{""page_index"":0,""viewing_time"":33411}]","33411","","","","","","","","","","","","","","","","","","","","","","","","","","","",""
"","","","","","html-keyboard-response","30","849864","0.0-13.0-1.0","673f6c92a931906b3b255300","6796e1c0ff24ca17c453c51c","67c6b27217cdc585d545b9dc","passed","","11157","","","","","","","","","","","","","<p><span style=""font-size:40px;"">Practice BLOCK 1</span></p><p><span style=""font-size:25px;"">You have <b style=""color: #FF644F;""><strong>3 second(s)</strong></b> to respond to the following trials.</span><br></p><p id=""blinking-text"" style=""font-weight; animation: blink 2s infinite;"">Press Space to continue</p><style>
                    @keyframes blink {
                        50% {
                            opacity: 0;
                        }
                    }
                </style>"," ","","","","","","","","","","","","","",""
"","","","","","html-keyboard-response","31","851428","0.0-13.0-2.0-0.0","673f6c92a931906b3b255300","6796e1c0ff24ca17c453c51c","67c6b27217cdc585d545b9dc","passed","","","","","","","","","","","","","","","","","ballFalling_prac","584","536","296","1","fallScene","true","","","","","","",""
"","","","","","html-keyboard-response","32","854446","0.0-13.0-2.0-1.0","673f6c92a931906b3b255300","6796e1c0ff24ca17c453c51c","67c6b27217cdc585d545b9dc","passed","","1595","","","","","","","","","","","","","","f","yesOrNo_prac","","","","1","","","close gt","3000","","","","",""
"","","","","","html-keyboard-response","33","856028","0.0-13.0-2.0-0.1","673f6c92a931906b3b255300","6796e1c0ff24ca17c453c51c","67c6b27217cdc585d545b9dc","passed","","","","","","","","","","","","","","","","","ballFalling_prac","660","610","263","4","fallScene","false","","","","","","",""
"","","","","","html-keyboard-response","34","859034","0.0-13.0-2.0-1.1","673f6c92a931906b3b255300","6796e1c0ff24ca17c453c51c","67c6b27217cdc585d545b9dc","passed","","1151","","","","","","","","","","","","","","j","yesOrNo_prac","","","","4","","","gt","3000","","","","",""
"","","","","","html-keyboard-response","35","860595","0.0-13.0-2.0-0.2","673f6c92a931906b3b255300","6796e1c0ff24ca17c453c51c","67c6b27217cdc585d545b9dc","passed","","","","","","","","","","","","","","","","","ballFalling_prac","416","464","296","1","fallScene","false","","","","","","",""
"","","","","","html-keyboard-response","36","863604","0.0-13.0-2.0-1.2","673f6c92a931906b3b255300","6796e1c0ff24ca17c453c51c","67c6b27217cdc585d545b9dc","passed","","1595","","","","","","","","","","","","","","f","yesOrNo_prac","","","","1","","","far gt","3000","","","","",""
"","","","","","html-keyboard-response","37","868635","0.0-13.0-3.0","673f6c92a931906b3b255300","6796e1c0ff24ca17c453c51c","67c6b27217cdc585d545b9dc","passed","","5029","","","","","","","","","","","","","<p><span style=""font-size:40px;"">Practice BLOCK 2</span></p><p><span style=""font-size:25px;"">You have <b style=""color: #FF644F;""><strong>0.7 second(s)</strong></b> to respond to the following trials.</span><br></p><p id=""blinking-text"" style=""font-weight; animation: blink 2s infinite;"">Press Space to continue</p><style>
                    @keyframes blink {
                        50% {
                            opacity: 0;
                        }
                    }
                </style>"," ","","","","","","","","","","","","","",""
"","","","","","html-keyboard-response","38","870741","0.0-13.0-4.0-0.0","673f6c92a931906b3b255300","6796e1c0ff24ca17c453c51c","67c6b27217cdc585d545b9dc","passed","","","","","","","","","","","","","","","","","ballFalling_prac","340","334","350","3","fallScene","true","","","","","","",""
"","","","","","html-keyboard-response","39","871460","0.0-13.0-4.0-1.0","673f6c92a931906b3b255300","6796e1c0ff24ca17c453c51c","67c6b27217cdc585d545b9dc","passed","","null","","","","","","","","","","","","","","null","yesOrNo_prac","","","","3","","","close gt","700","","","","",""
"","","","","","html-keyboard-response","40","873031","0.0-13.0-4.0-0.1","673f6c92a931906b3b255300","6796e1c0ff24ca17c453c51c","67c6b27217cdc585d545b9dc","passed","","","","","","","","","","","","","","","","","ballFalling_prac","660","610","263","4","fallScene","false","","","","","","",""
"","","","","","html-keyboard-response","41","873736","0.0-13.0-4.0-1.1","673f6c92a931906b3b255300","6796e1c0ff24ca17c453c51c","67c6b27217cdc585d545b9dc","passed","","null","","","","","","","","","","","","","","null","yesOrNo_prac","","","","4","","","far gt","700","","","","",""
"","","","","","html-keyboard-response","42","875290","0.0-13.0-4.0-0.2","673f6c92a931906b3b255300","6796e1c0ff24ca17c453c51c","67c6b27217cdc585d545b9dc","passed","","","","","","","","","","","","","","","","","ballFalling_prac","441","500","317","6","fallScene","true","","","","","","",""
"","","","","","html-keyboard-response","43","876002","0.0-13.0-4.0-1.2","673f6c92a931906b3b255300","6796e1c0ff24ca17c453c51c","67c6b27217cdc585d545b9dc","passed","","343","","","","","","","","","","","","","","j","yesOrNo_prac","","","","6","","","gt","700","","","","",""
"","","","","","instructions","44","901945","0.0-13.0-5.0","673f6c92a931906b3b255300","6796e1c0ff24ca17c453c51c","67c6b27217cdc585d545b9dc","passed","[{""page_index"":0,""viewing_time"":25939}]","25939","","","","","","","","","","","","","","","","","","","","","","","","","","","",""
"","","","","","html-keyboard-response","45","908472","0.0-13.0-6.0","673f6c92a931906b3b255300","6796e1c0ff24ca17c453c51c","67c6b27217cdc585d545b9dc","passed","","6526","","","","","","","","","","","","","<p><span style=""font-size:40px;"">Practice Test BLOCK 1</span></p><p><span style=""font-size:25px;"">You have <b style=""color: #FF644F;""><strong>0.7 second(s)</strong></b> to respond to the following trials.</span><br></p><p id=""blinking-text"" style=""font-weight; animation: blink 2s infinite;"">Press Space to continue</p><style>
                    @keyframes blink {
                        50% {
                            opacity: 0;
                        }
                    }
                </style>"," ","","","","","","","","","","","","","",""
"","","","","","html-keyboard-response","46","910044","0.0-13.0-7.0-0.0","673f6c92a931906b3b255300","6796e1c0ff24ca17c453c51c","67c6b27217cdc585d545b9dc","passed","","","","","","","","","","","","","","","","","ballFalling_prac","340","390","263","4","fallScene","true","","","","","","",""
"","","","","","html-keyboard-response","47","910754","0.0-13.0-7.0-1.0","673f6c92a931906b3b255300","6796e1c0ff24ca17c453c51c","67c6b27217cdc585d545b9dc","passed","","null","","","","","","","","","","","","","","null","yesOrNo_prac","","","","4","","","far gt","700","","","","",""
"","","","","","html-keyboard-response","48","912318","0.0-13.0-7.0-0.1","673f6c92a931906b3b255300","6796e1c0ff24ca17c453c51c","67c6b27217cdc585d545b9dc","passed","","","","","","","","","","","","","","","","","ballFalling_prac","559","586","302","5","fallScene","false","","","","","","",""
"","","","","","html-keyboard-response","49","913025","0.0-13.0-7.0-1.1","673f6c92a931906b3b255300","6796e1c0ff24ca17c453c51c","67c6b27217cdc585d545b9dc","passed","","376","","","","","","","","","","","","","","j","yesOrNo_prac","","","","5","","","gt","700","","","","",""
"","","","","","html-keyboard-response","50","914579","0.0-13.0-7.0-0.2","673f6c92a931906b3b255300","6796e1c0ff24ca17c453c51c","67c6b27217cdc585d545b9dc","passed","","","","","","","","","","","","","","","","","ballFalling_prac","441","500","317","6","fallScene","true","","","","","","",""
"","","","","","html-keyboard-response","51","915291","0.0-13.0-7.0-1.2","673f6c92a931906b3b255300","6796e1c0ff24ca17c453c51c","67c6b27217cdc585d545b9dc","passed","","null","","","","","","","","","","","","","","null","yesOrNo_prac","","","","6","","","close gt","700","","","","",""
"","","","","","html-keyboard-response","52","917845","0.0-13.0-8.0","673f6c92a931906b3b255300","6796e1c0ff24ca17c453c51c","67c6b27217cdc585d545b9dc","passed","","2550","","","","","","","","","","","","","<p><span style=""font-size:40px;"">Practice Test BLOCK 2</span></p><p><span style=""font-size:25px;"">You have <b style=""color: #FF644F;""><strong>3 second(s)</strong></b> to respond to the following trials.</span><br></p><p id=""blinking-text"" style=""font-weight; animation: blink 2s infinite;"">Press Space to continue</p><style>
                    @keyframes blink {
                        50% {
                            opacity: 0;
                        }
                    }
                </style>"," ","","","","","","","","","","","","","",""
"","","","","","html-keyboard-response","53","919426","0.0-13.0-9.0-0.0","673f6c92a931906b3b255300","6796e1c0ff24ca17c453c51c","67c6b27217cdc585d545b9dc","passed","","","","","","","","","","","","","","","","","ballFalling_prac","559","586","302","5","fallScene","false","","","","","","",""
"","","","","","html-keyboard-response","54","922441","0.0-13.0-9.0-1.0","673f6c92a931906b3b255300","6796e1c0ff24ca17c453c51c","67c6b27217cdc585d545b9dc","passed","","552","","","","","","","","","","","","","","j","yesOrNo_prac","","","","5","","","far gt","3000","","","","",""
"","","","","","html-keyboard-response","55","924009","0.0-13.0-9.0-0.1","673f6c92a931906b3b255300","6796e1c0ff24ca17c453c51c","67c6b27217cdc585d545b9dc","passed","","","","","","","","","","","","","","","","","ballFalling_prac","340","390","263","4","fallScene","true","","","","","","",""
"","","","","","html-keyboard-response","56","927021","0.0-13.0-9.0-1.1","673f6c92a931906b3b255300","6796e1c0ff24ca17c453c51c","67c6b27217cdc585d545b9dc","passed","","1604","","","","","","","","","","","","","","f","yesOrNo_prac","","","","4","","","close gt","3000","","","","",""
"","","","","","html-keyboard-response","57","928591","0.0-13.0-9.0-0.2","673f6c92a931906b3b255300","6796e1c0ff24ca17c453c51c","67c6b27217cdc585d545b9dc","passed","","","","","","","","","","","","","","","","","ballFalling_prac","416","365","249","2","fallScene","false","","","","","","",""
"","","","","","html-keyboard-response","58","931600","0.0-13.0-9.0-1.2","673f6c92a931906b3b255300","6796e1c0ff24ca17c453c51c","67c6b27217cdc585d545b9dc","passed","","1329","","","","","","","","","","","","","","f","yesOrNo_prac","","","","2","","","gt","3000","","","","",""
"","","","","","html-button-response","59","940805","0.0-13.0-10.0-0.0","673f6c92a931906b3b255300","6796e1c0ff24ca17c453c51c","67c6b27217cdc585d545b9dc","passed","","9199","","","","","","","","","","","","","<p>Oops! You did not pass the practice test. You missed 2 out of 6 trials.</p><p>You will now repeat the practice and the test.</p>","0","","","","","","","","","","","failed","","",""
"","","","","","instructions","60","952323","0.0-13.1-0.1","673f6c92a931906b3b255300","6796e1c0ff24ca17c453c51c","67c6b27217cdc585d545b9dc","passed","[{""page_index"":0,""viewing_time"":11515}]","11516","","","","","","","","","","","","","","","","","","","","","","","","","","","",""
"","","","","","html-keyboard-response","61","956285","0.0-13.1-1.1","673f6c92a931906b3b255300","6796e1c0ff24ca17c453c51c","67c6b27217cdc585d545b9dc","passed","","3961","","","","","","","","","","","","","<p><span style=""font-size:40px;"">Practice BLOCK 1</span></p><p><span style=""font-size:25px;"">You have <b style=""color: #FF644F;""><strong>3 second(s)</strong></b> to respond to the following trials.</span><br></p><p id=""blinking-text"" style=""font-weight; animation: blink 2s infinite;"">Press Space to continue</p><style>
                    @keyframes blink {
                        50% {
                            opacity: 0;
                        }
                    }
                </style>"," ","","","","","","","","","","","","","",""
"","","","","","html-keyboard-response","62","957848","0.0-13.1-2.1-0.3","673f6c92a931906b3b255300","6796e1c0ff24ca17c453c51c","67c6b27217cdc585d545b9dc","passed","","","","","","","","","","","","","","","","","ballFalling_prac","584","536","296","1","fallScene","true","","","","","","",""
"","","","","","html-keyboard-response","63","960862","0.0-13.1-2.1-1.3","673f6c92a931906b3b255300","6796e1c0ff24ca17c453c51c","67c6b27217cdc585d545b9dc","passed","","2496","","","","","","","","","","","","","","f","yesOrNo_prac","","","","1","","","close gt","3000","","","","",""
"","","","","","html-keyboard-response","64","962413","0.0-13.1-2.1-0.4","673f6c92a931906b3b255300","6796e1c0ff24ca17c453c51c","67c6b27217cdc585d545b9dc","passed","","","","","","","","","","","","","","","","","ballFalling_prac","416","464","296","1","fallScene","false","","","","","","",""
"","","","","","html-keyboard-response","65","965419","0.0-13.1-2.1-1.4","673f6c92a931906b3b255300","6796e1c0ff24ca17c453c51c","67c6b27217cdc585d545b9dc","passed","","2653","","","","","","","","","","","","","","j","yesOrNo_prac","","","","1","","","far gt","3000","","","","",""
"","","","","","html-keyboard-response","66","966996","0.0-13.1-2.1-0.5","673f6c92a931906b3b255300","6796e1c0ff24ca17c453c51c","67c6b27217cdc585d545b9dc","passed","","","","","","","","","","","","","","","","","ballFalling_prac","660","610","263","4","fallScene","false","","","","","","",""
"","","","","","html-keyboard-response","67","970002","0.0-13.1-2.1-1.5","673f6c92a931906b3b255300","6796e1c0ff24ca17c453c51c","67c6b27217cdc585d545b9dc","passed","","946","","","","","","","","","","","","","","f","yesOrNo_prac","","","","4","","","gt","3000","","","","",""
"","","","","","html-keyboard-response","68","971440","0.0-13.1-3.1","673f6c92a931906b3b255300","6796e1c0ff24ca17c453c51c","67c6b27217cdc585d545b9dc","passed","","1437","","","","","","","","","","","","","<p><span style=""font-size:40px;"">Practice BLOCK 2</span></p><p><span style=""font-size:25px;"">You have <b style=""color: #FF644F;""><strong>0.7 second(s)</strong></b> to respond to the following trials.</span><br></p><p id=""blinking-text"" style=""font-weight; animation: blink 2s infinite;"">Press Space to continue</p><style>
                    @keyframes blink {
                        50% {
                            opacity: 0;
                        }
                    }
                </style>"," ","","","","","","","","","","","","","",""
"","","","","","html-keyboard-response","69","972993","0.0-13.1-4.1-0.3","673f6c92a931906b3b255300","6796e1c0ff24ca17c453c51c","67c6b27217cdc585d545b9dc","passed","","","","","","","","","","","","","","","","","ballFalling_prac","441","500","317","6","fallScene","true","","","","","","",""
"","","","","","html-keyboard-response","70","973708","0.0-13.1-4.1-1.3","673f6c92a931906b3b255300","6796e1c0ff24ca17c453c51c","67c6b27217cdc585d545b9dc","passed","","null","","","","","","","","","","","","","","null","yesOrNo_prac","","","","6","","","gt","700","","","","",""
"","","","","","html-keyboard-response","71","975279","0.0-13.1-4.1-0.4","673f6c92a931906b3b255300","6796e1c0ff24ca17c453c51c","67c6b27217cdc585d545b9dc","passed","","","","","","","","","","","","","","","","","ballFalling_prac","660","610","263","4","fallScene","false","","","","","","",""
"","","","","","html-keyboard-response","72","975986","0.0-13.1-4.1-1.4","673f6c92a931906b3b255300","6796e1c0ff24ca17c453c51c","67c6b27217cdc585d545b9dc","passed","","301","","","","","","","","","","","","","","f","yesOrNo_prac","","","","4","","","far gt","700","","","","",""
"","","","","","html-keyboard-response","73","978095","0.0-13.1-4.1-0.5","673f6c92a931906b3b255300","6796e1c0ff24ca17c453c51c","67c6b27217cdc585d545b9dc","passed","","","","","","","","","","","","","","","","","ballFalling_prac","340","334","350","3","fallScene","true","","","","","","",""
"","","","","","html-keyboard-response","74","978806","0.0-13.1-4.1-1.5","673f6c92a931906b3b255300","6796e1c0ff24ca17c453c51c","67c6b27217cdc585d545b9dc","passed","","614","","","","","","","","","","","","","","f","yesOrNo_prac","","","","3","","","close gt","700","","","","",""
"","","","","","instructions","75","983231","0.0-13.1-5.1","673f6c92a931906b3b255300","6796e1c0ff24ca17c453c51c","67c6b27217cdc585d545b9dc","passed","[{""page_index"":0,""viewing_time"":4424}]","4425","","","","","","","","","","","","","","","","","","","","","","","","","","","",""
"","","","","","html-keyboard-response","76","987951","0.0-13.1-6.1","673f6c92a931906b3b255300","6796e1c0ff24ca17c453c51c","67c6b27217cdc585d545b9dc","passed","","4720","","","","","","","","","","","","","<p><span style=""font-size:40px;"">Practice Test BLOCK 1</span></p><p><span style=""font-size:25px;"">You have <b style=""color: #FF644F;""><strong>0.7 second(s)</strong></b> to respond to the following trials.</span><br></p><p id=""blinking-text"" style=""font-weight; animation: blink 2s infinite;"">Press Space to continue</p><style>
                    @keyframes blink {
                        50% {
                            opacity: 0;
                        }
                    }
                </style>"," ","","","","","","","","","","","","","",""
"","","","","","html-keyboard-response","77","989523","0.0-13.1-7.1-0.3","673f6c92a931906b3b255300","6796e1c0ff24ca17c453c51c","67c6b27217cdc585d545b9dc","passed","","","","","","","","","","","","","","","","","ballFalling_prac","340","390","263","4","fallScene","true","","","","","","",""
"","","","","","html-keyboard-response","78","990237","0.0-13.1-7.1-1.3","673f6c92a931906b3b255300","6796e1c0ff24ca17c453c51c","67c6b27217cdc585d545b9dc","passed","","548","","","","","","","","","","","","","","f","yesOrNo_prac","","","","4","","","far gt","700","","","","",""
"","","","","","html-keyboard-response","79","991792","0.0-13.1-7.1-0.4","673f6c92a931906b3b255300","6796e1c0ff24ca17c453c51c","67c6b27217cdc585d545b9dc","passed","","","","","","","","","","","","","","","","","ballFalling_prac","559","586","302","5","fallScene","false","","","","","","",""
"","","","","","html-keyboard-response","80","992505","0.0-13.1-7.1-1.4","673f6c92a931906b3b255300","6796e1c0ff24ca17c453c51c","67c6b27217cdc585d545b9dc","passed","","398","","","","","","","","","","","","","","j","yesOrNo_prac","","","","5","","","gt","700","","","","",""
"","","","","","html-keyboard-response","81","994055","0.0-13.1-7.1-0.5","673f6c92a931906b3b255300","6796e1c0ff24ca17c453c51c","67c6b27217cdc585d545b9dc","passed","","","","","","","","","","","","","","","","","ballFalling_prac","441","500","317","6","fallScene","true","","","","","","",""
"","","","","","html-keyboard-response","82","994769","0.0-13.1-7.1-1.5","673f6c92a931906b3b255300","6796e1c0ff24ca17c453c51c","67c6b27217cdc585d545b9dc","passed","","450","","","","","","","","","","","","","","j","yesOrNo_prac","","","","6","","","close gt","700","","","","",""
"","","","","","html-keyboard-response","83","996175","0.0-13.1-8.1","673f6c92a931906b3b255300","6796e1c0ff24ca17c453c51c","67c6b27217cdc585d545b9dc","passed","","1402","","","","","","","","","","","","","<p><span style=""font-size:40px;"">Practice Test BLOCK 2</span></p><p><span style=""font-size:25px;"">You have <b style=""color: #FF644F;""><strong>3 second(s)</strong></b> to respond to the following trials.</span><br></p><p id=""blinking-text"" style=""font-weight; animation: blink 2s infinite;"">Press Space to continue</p><style>
                    @keyframes blink {
                        50% {
                            opacity: 0;
                        }
                    }
                </style>"," ","","","","","","","","","","","","","",""
"","","","","","html-keyboard-response","84","997753","0.0-13.1-9.1-0.3","673f6c92a931906b3b255300","6796e1c0ff24ca17c453c51c","67c6b27217cdc585d545b9dc","passed","","","","","","","","","","","","","","","","","ballFalling_prac","340","390","263","4","fallScene","true","","","","","","",""
"","","","","","html-keyboard-response","85","1000767","0.0-13.1-9.1-1.3","673f6c92a931906b3b255300","6796e1c0ff24ca17c453c51c","67c6b27217cdc585d545b9dc","passed","","531","","","","","","","","","","","","","","f","yesOrNo_prac","","","","4","","","close gt","3000","","","","",""
"","","","","","html-keyboard-response","86","1002339","0.0-13.1-9.1-0.4","673f6c92a931906b3b255300","6796e1c0ff24ca17c453c51c","67c6b27217cdc585d545b9dc","passed","","","","","","","","","","","","","","","","","ballFalling_prac","559","586","302","5","fallScene","false","","","","","","",""
"","","","","","html-keyboard-response","87","1005345","0.0-13.1-9.1-1.4","673f6c92a931906b3b255300","6796e1c0ff24ca17c453c51c","67c6b27217cdc585d545b9dc","passed","","1681","","","","","","","","","","","","","","j","yesOrNo_prac","","","","5","","","far gt","3000","","","","",""
"","","","","","html-keyboard-response","88","1006919","0.0-13.1-9.1-0.5","673f6c92a931906b3b255300","6796e1c0ff24ca17c453c51c","67c6b27217cdc585d545b9dc","passed","","","","","","","","","","","","","","","","","ballFalling_prac","416","365","249","2","fallScene","false","","","","","","",""
"","","","","","html-keyboard-response","89","1009930","0.0-13.1-9.1-1.5","673f6c92a931906b3b255300","6796e1c0ff24ca17c453c51c","67c6b27217cdc585d545b9dc","passed","","1496","","","","","","","","","","","","","","j","yesOrNo_prac","","","","2","","","gt","3000","","","","",""
"","","","","","instructions","90","1041200","0.0-14.0","673f6c92a931906b3b255300","6796e1c0ff24ca17c453c51c","67c6b27217cdc585d545b9dc","passed","[{""page_index"":0,""viewing_time"":31263}]","31263","","","","","","","","","","","","","","","","","","","","","","","","","","","",""
"","","","","","html-keyboard-response","91","1046325","0.0-15.0","673f6c92a931906b3b255300","6796e1c0ff24ca17c453c51c","67c6b27217cdc585d545b9dc","passed","","5124","","","","","","","","","","","","","<p><span style=""font-size:40px;"">BLOCK 1</span></p><p><span style=""font-size:25px;"">You have <b style=""color: #FF644F;""><strong>3 second(s)</strong></b> to respond to the following trials.</span><br></p><p></p> <!-- Blank line -->
                <p id=""blinking-text"" style=""font-weight; animation: blink 2s infinite;"">Press Space to continue</p>
                <style>
                    @keyframes blink {
                        50% {
                            opacity: 0;
                        }
                    }
                </style></p>"," ","","","","","","","","","","","","","",""
"","","","","","html-keyboard-response","92","1047822","0.0-16.0-0.0","673f6c92a931906b3b255300","6796e1c0ff24ca17c453c51c","67c6b27217cdc585d545b9dc","passed","","","","","","","","","","","","","","","","","ballFalling","604.4000000000001","667.6211431702998","201.78","9","fallScene","false","","","","","1","",""
"","","","","","html-keyboard-response","93","1050832","0.0-16.0-1.0","673f6c92a931906b3b255300","6796e1c0ff24ca17c453c51c","67c6b27217cdc585d545b9dc","passed","","1863","","","","","","","","","","","","","","j","yesOrNo","","","","9","","","gt","3000","","","1","667.6211431702998","201.78"
"","","","","","html-keyboard-response","94","1052401","0.0-16.0-0.1","673f6c92a931906b3b255300","6796e1c0ff24ca17c453c51c","67c6b27217cdc585d545b9dc","passed","","","","","","","","","","","","","","","","","ballFalling","322.3","356.42114317029973","357.87","4","fallScene","true","","","","","2","",""
"","","","","","html-keyboard-response","95","1055410","0.0-16.0-1.1","673f6c92a931906b3b255300","6796e1c0ff24ca17c453c51c","67c6b27217cdc585d545b9dc","passed","","1958","","","","","","","","","","","","","","f","yesOrNo","","","","4","","","lp","3000","","","2","323.3","297.4070551689986"
"","","","","","html-keyboard-response","96","1056988","0.0-16.0-0.2","673f6c92a931906b3b255300","6796e1c0ff24ca17c453c51c","67c6b27217cdc585d545b9dc","passed","","","","","","","","","","","","","","","","","ballFalling","500","553.4711431702997","282.51","7","fallScene","false","","","","","3","",""
"","","","","","html-keyboard-response","97","1060001","0.0-16.0-1.2","673f6c92a931906b3b255300","6796e1c0ff24ca17c453c51c","67c6b27217cdc585d545b9dc","passed","","1565","","","","","","","","","","","","","","j","yesOrNo","","","","7","","","mid","3000","","","3","501","300"
"","","","","","html-keyboard-response","98","1061555","0.0-16.0-0.3","673f6c92a931906b3b255300","6796e1c0ff24ca17c453c51c","67c6b27217cdc585d545b9dc","passed","","","","","","","","","","","","","","","","","ballFalling","604.4000000000001","650.0211431702996","404.58000000000004","11","fallScene","true","","","","","4","",""
"","","","","","html-keyboard-response","99","1064566","0.0-16.0-1.3","673f6c92a931906b3b255300","6796e1c0ff24ca17c453c51c","67c6b27217cdc585d545b9dc","passed","","1370","","","","","","","","","","","","","","j","yesOrNo","","","","11","","","gt","3000","","","4","650.0211431702996","404.58"
"","","","","","html-keyboard-response","100","1066137","0.0-16.0-0.4","673f6c92a931906b3b255300","6796e1c0ff24ca17c453c51c","67c6b27217cdc585d545b9dc","passed","","","","","","","","","","","","","","","","","ballFalling","500","553.4711431702997","282.51","7","fallScene","false","","","","","5","",""
"","","","","","html-keyboard-response","101","1069145","0.0-16.0-1.4","673f6c92a931906b3b255300","6796e1c0ff24ca17c453c51c","67c6b27217cdc585d545b9dc","passed","","2026","","","","","","","","","","","","","","j","yesOrNo","","","","7","","","gt","3000","","","5","553.4711431702997","282.51"
"","","","","","html-keyboard-response","102","1070702","0.0-16.0-0.5","673f6c92a931906b3b255300","6796e1c0ff24ca17c453c51c","67c6b27217cdc585d545b9dc","passed","","","","","","","","","","","","","","","","","ballFalling","500","453.67114317029973","210.33","5","fallScene","false","","","","","6","",""
"","","","","","html-keyboard-response","103","1073708","0.0-16.0-1.5","673f6c92a931906b3b255300","6796e1c0ff24ca17c453c51c","67c6b27217cdc585d545b9dc","passed","","1080","","","","","","","","","","","","","","f","yesOrNo","","","","5","","","lp","3000","","","6","499","151"
"","","","","","html-keyboard-response","104","1075268","0.0-16.0-0.6","673f6c92a931906b3b255300","6796e1c0ff24ca17c453c51c","67c6b27217cdc585d545b9dc","passed","","","","","","","","","","","","","","","","","ballFalling","322.3","379.3711431702997","245.25","1","fallScene","true","","","","","7","",""
"","","","","","html-keyboard-response","105","1078279","0.0-16.0-1.6","673f6c92a931906b3b255300","6796e1c0ff24ca17c453c51c","67c6b27217cdc585d545b9dc","passed","","1104","","","","","","","","","","","","","","j","yesOrNo","","","","1","","","mid","3000","","","7","390.27114317029975","300"
"","","","","","html-keyboard-response","106","1079833","0.0-16.0-0.7","673f6c92a931906b3b255300","6796e1c0ff24ca17c453c51c","67c6b27217cdc585d545b9dc","passed","","","","","","","","","","","","","","","","","ballFalling","500","453.67114317029973","210.33","5","fallScene","true","","","","","8","",""
"","","","","","html-keyboard-response","107","1082844","0.0-16.0-1.7","673f6c92a931906b3b255300","6796e1c0ff24ca17c453c51c","67c6b27217cdc585d545b9dc","passed","","1024","","","","","","","","","","","","","","j","yesOrNo","","","","5","","","gt","3000","","","8","453.6711431702998","210.33"
"","","","","","html-keyboard-response","108","1084632","0.0-16.0-0.8","673f6c92a931906b3b255300","6796e1c0ff24ca17c453c51c","67c6b27217cdc585d545b9dc","passed","","","","","","","","","","","","","","","","","ballFalling","322.3","308.07114317029976","253.89","2","fallScene","false","","","","","9","",""
"","","","","","html-keyboard-response","109","1087643","0.0-16.0-1.8","673f6c92a931906b3b255300","6796e1c0ff24ca17c453c51c","67c6b27217cdc585d545b9dc","passed","","1649","","","","","","","","","","","","","","j","yesOrNo","","","","2","","","gt","3000","","","9","308.07114317029976","253.89"
"","","","","","html-keyboard-response","110","1089197","0.0-16.0-0.9","673f6c92a931906b3b255300","6796e1c0ff24ca17c453c51c","67c6b27217cdc585d545b9dc","passed","","","","","","","","","","","","","","","","","ballFalling","604.4000000000001","575.4211431702997","266.76","12","fallScene","false","","","","","10","",""
"","","","","","html-keyboard-response","111","1092203","0.0-16.0-1.9","673f6c92a931906b3b255300","6796e1c0ff24ca17c453c51c","67c6b27217cdc585d545b9dc","passed","","948","","","","","","","","","","","","","","f","yesOrNo","","","","12","","","mid","3000","","","10","536.4288568297004","300"
"","","","","","html-keyboard-response","112","1094211","0.0-16.0-0.10","673f6c92a931906b3b255300","6796e1c0ff24ca17c453c51c","67c6b27217cdc585d545b9dc","passed","","","","","","","","","","","","","","","","","ballFalling","604.4000000000001","596.8711431702998","394.5","10","fallScene","true","","","","","11","",""
"","","","","","html-keyboard-response","113","1097220","0.0-16.0-1.10","673f6c92a931906b3b255300","6796e1c0ff24ca17c453c51c","67c6b27217cdc585d545b9dc","passed","","1181","","","","","","","","","","","","","","j","yesOrNo","","","","10","","","lp","3000","","","11","603.4000000000001","215.50214355555383"
"","","","","","html-keyboard-response","114","1099227","0.0-16.0-0.11","673f6c92a931906b3b255300","6796e1c0ff24ca17c453c51c","67c6b27217cdc585d545b9dc","passed","","","","","","","","","","","","","","","","","ballFalling","604.4000000000001","596.8711431702998","394.5","10","fallScene","true","","","","","12","",""
"","","","","","html-keyboard-response","115","1102237","0.0-16.0-1.11","673f6c92a931906b3b255300","6796e1c0ff24ca17c453c51c","67c6b27217cdc585d545b9dc","passed","","1404","","","","","","","","","","","","","","f","yesOrNo","","","","10","","","gt","3000","","","12","596.8711431702998","394.5"
"","","","","","html-keyboard-response","116","1103792","0.0-16.0-0.12","673f6c92a931906b3b255300","6796e1c0ff24ca17c453c51c","67c6b27217cdc585d545b9dc","passed","","","","","","","","","","","","","","","","","ballFalling","322.3","296.07114317029976","371.46","3","fallScene","true","","","","","13","",""
"","","","","","html-keyboard-response","117","1106802","0.0-16.0-1.12","673f6c92a931906b3b255300","6796e1c0ff24ca17c453c51c","67c6b27217cdc585d545b9dc","passed","","2794","","","","","","","","","","","","","","f","yesOrNo","","","","3","","","gt","3000","","","13","296.07114317029976","371.46"
"","","","","","html-keyboard-response","118","1108357","0.0-16.0-0.13","673f6c92a931906b3b255300","6796e1c0ff24ca17c453c51c","67c6b27217cdc585d545b9dc","passed","","","","","","","","","","","","","","","","","ballFalling","604.4000000000001","575.4211431702997","266.76","12","fallScene","false","","","","","14","",""
"","","","","","html-keyboard-response","119","1111369","0.0-16.0-1.13","673f6c92a931906b3b255300","6796e1c0ff24ca17c453c51c","67c6b27217cdc585d545b9dc","passed","","1383","","","","","","","","","","","","","","j","yesOrNo","","","","12","","","lp","3000","","","14","603.4000000000001","151"
"","","","","","html-keyboard-response","120","1112927","0.0-16.0-0.14","673f6c92a931906b3b255300","6796e1c0ff24ca17c453c51c","67c6b27217cdc585d545b9dc","passed","","","","","","","","","","","","","","","","","ballFalling","604.4000000000001","575.4211431702997","266.76","12","fallScene","false","","","","","15","",""
"","","","","","html-keyboard-response","121","1115941","0.0-16.0-1.14","673f6c92a931906b3b255300","6796e1c0ff24ca17c453c51c","67c6b27217cdc585d545b9dc","passed","","1066","","","","","","","","","","","","","","j","yesOrNo","","","","12","","","lp","3000","","","15","603.4000000000001","151"
"","","","","","html-keyboard-response","122","1117506","0.0-16.0-0.15","673f6c92a931906b3b255300","6796e1c0ff24ca17c453c51c","67c6b27217cdc585d545b9dc","passed","","","","","","","","","","","","","","","","","ballFalling","604.4000000000001","575.4211431702997","266.76","12","fallScene","true","","","","","16","",""
"","","","","","html-keyboard-response","123","1120516","0.0-16.0-1.15","673f6c92a931906b3b255300","6796e1c0ff24ca17c453c51c","67c6b27217cdc585d545b9dc","passed","","1981","","","","","","","","","","","","","","j","yesOrNo","","","","12","","","gt","3000","","","16","575.4211431702997","266.76"
"","","","","","html-keyboard-response","124","1122003","0.0-16.0-0.16","673f6c92a931906b3b255300","6796e1c0ff24ca17c453c51c","67c6b27217cdc585d545b9dc","passed","","","","","","","","","","","","","","","","","ballFalling","604.4000000000001","667.6211431702998","201.78","9","fallScene","true","","","","","17","",""
"","","","","","html-keyboard-response","125","1125015","0.0-16.0-1.16","673f6c92a931906b3b255300","6796e1c0ff24ca17c453c51c","67c6b27217cdc585d545b9dc","passed","","1095","","","","","","","","","","","","","","f","yesOrNo","","","","9","","","lp","3000","","","17","605.4000000000001","151"
"","","","","","html-keyboard-response","126","1127017","0.0-16.0-0.17","673f6c92a931906b3b255300","6796e1c0ff24ca17c453c51c","67c6b27217cdc585d545b9dc","passed","","","","","","","","","","","","","","","","","ballFalling","604.4000000000001","596.8711431702998","394.5","10","fallScene","true","","","","","18","",""
"","","","","","html-keyboard-response","127","1130028","0.0-16.0-1.17","673f6c92a931906b3b255300","6796e1c0ff24ca17c453c51c","67c6b27217cdc585d545b9dc","passed","","932","","","","","","","","","","","","","","f","yesOrNo","","","","10","","","mid","3000","","","18","536.4288568297004","300"
"","","","","","html-keyboard-response","128","1131584","0.0-16.0-0.18","673f6c92a931906b3b255300","6796e1c0ff24ca17c453c51c","67c6b27217cdc585d545b9dc","passed","","","","","","","","","","","","","","","","","ballFalling","322.3","356.42114317029973","357.87","4","fallScene","false","","","","","19","",""
"","","","","","html-keyboard-response","129","1134596","0.0-16.0-1.18","673f6c92a931906b3b255300","6796e1c0ff24ca17c453c51c","67c6b27217cdc585d545b9dc","passed","","913","","","","","","","","","","","","","","j","yesOrNo","","","","4","","","lp","3000","","","19","323.3","297.4070551689986"
"","","","","","html-keyboard-response","130","1136383","0.0-16.0-0.19","673f6c92a931906b3b255300","6796e1c0ff24ca17c453c51c","67c6b27217cdc585d545b9dc","passed","","","","","","","","","","","","","","","","","ballFalling","322.3","308.07114317029976","253.89","2","fallScene","false","","","","","20","",""
"","","","","","html-keyboard-response","131","1139393","0.0-16.0-1.19","673f6c92a931906b3b255300","6796e1c0ff24ca17c453c51c","67c6b27217cdc585d545b9dc","passed","","2385","","","","","","","","","","","","","","j","yesOrNo","","","","2","","","lp","3000","","","20","321.3","151"
"","","","","","html-keyboard-response","132","1140964","0.0-16.0-0.20","673f6c92a931906b3b255300","6796e1c0ff24ca17c453c51c","67c6b27217cdc585d545b9dc","passed","","","","","","","","","","","","","","","","","ballFalling","500","553.4711431702997","282.51","7","fallScene","false","","","","","21","",""
"","","","","","html-keyboard-response","133","1143972","0.0-16.0-1.20","673f6c92a931906b3b255300","6796e1c0ff24ca17c453c51c","67c6b27217cdc585d545b9dc","passed","","1655","","","","","","","","","","","","","","j","yesOrNo","","","","7","","","mid","3000","","","21","501","300"
"","","","","","html-keyboard-response","134","1145547","0.0-16.0-0.21","673f6c92a931906b3b255300","6796e1c0ff24ca17c453c51c","67c6b27217cdc585d545b9dc","passed","","","","","","","","","","","","","","","","","ballFalling","500","553.4711431702997","282.51","7","fallScene","true","","","","","22","",""
"","","","","","html-keyboard-response","135","1148558","0.0-16.0-1.21","673f6c92a931906b3b255300","6796e1c0ff24ca17c453c51c","67c6b27217cdc585d545b9dc","passed","","987","","","","","","","","","","","","","","j","yesOrNo","","","","7","","","lp","3000","","","22","501","227.2843295913261"
"","","","","","html-keyboard-response","136","1150121","0.0-16.0-0.22","673f6c92a931906b3b255300","6796e1c0ff24ca17c453c51c","67c6b27217cdc585d545b9dc","passed","","","","","","","","","","","","","","","","","ballFalling","604.4000000000001","650.0211431702996","404.58000000000004","11","fallScene","false","","","","","23","",""
"","","","","","html-keyboard-response","137","1153128","0.0-16.0-1.22","673f6c92a931906b3b255300","6796e1c0ff24ca17c453c51c","67c6b27217cdc585d545b9dc","passed","","1394","","","","","","","","","","","","","","j","yesOrNo","","","","11","","","gt","3000","","","23","650.0211431702996","404.58"
"","","","","","html-keyboard-response","138","1155144","0.0-16.0-0.23","673f6c92a931906b3b255300","6796e1c0ff24ca17c453c51c","67c6b27217cdc585d545b9dc","passed","","","","","","","","","","","","","","","","","ballFalling","604.4000000000001","596.8711431702998","394.5","10","fallScene","false","","","","","24","",""
"","","","","","html-keyboard-response","139","1158156","0.0-16.0-1.23","673f6c92a931906b3b255300","6796e1c0ff24ca17c453c51c","67c6b27217cdc585d545b9dc","passed","","985","","","","","","","","","","","","","","f","yesOrNo","","","","10","","","gt","3000","","","24","596.8711431702998","394.5"
"","","","","","html-keyboard-response","140","1162357","0.0-17.0","673f6c92a931906b3b255300","6796e1c0ff24ca17c453c51c","67c6b27217cdc585d545b9dc","passed","","4197","","","","","","","","","","","","","<p><span style=""font-size:40px;"">BLOCK 2</span></p><p><span style=""font-size:25px;"">You have <b style=""color: #FF644F;""><strong>3 second(s)</strong></b> to respond to the following trials.</span><br></p><p></p> <!-- Blank line -->
                <p id=""blinking-text"" style=""font-weight; animation: blink 2s infinite;"">Press Space to continue</p>
                <style>
                    @keyframes blink {
                        50% {
                            opacity: 0;
                        }
                    }
                </style></p>"," ","","","","","","","","","","","","","",""
"","","","","","html-keyboard-response","141","1163923","0.0-18.0-0.0","673f6c92a931906b3b255300","6796e1c0ff24ca17c453c51c","67c6b27217cdc585d545b9dc","passed","","","","","","","","","","","","","","","","","ballFalling","500","453.67114317029973","210.33","5","fallScene","true","","","","","25","",""
"","","","","","html-keyboard-response","142","1166937","0.0-18.0-1.0","673f6c92a931906b3b255300","6796e1c0ff24ca17c453c51c","67c6b27217cdc585d545b9dc","passed","","1116","","","","","","","","","","","","","","j","yesOrNo","","","","5","","","mid","3000","","","25","499","300"
"","","","","","html-keyboard-response","143","1168423","0.0-18.0-0.1","673f6c92a931906b3b255300","6796e1c0ff24ca17c453c51c","67c6b27217cdc585d545b9dc","passed","","","","","","","","","","","","","","","","","ballFalling","604.4000000000001","667.6211431702998","201.78","9","fallScene","false","","","","","26","",""
"","","","","","html-keyboard-response","144","1171436","0.0-18.0-1.1","673f6c92a931906b3b255300","6796e1c0ff24ca17c453c51c","67c6b27217cdc585d545b9dc","passed","","1887","","","","","","","","","","","","","","j","yesOrNo","","","","9","","","gt","3000","","","26","667.6211431702998","201.78"
"","","","","","html-keyboard-response","145","1173439","0.0-18.0-0.2","673f6c92a931906b3b255300","6796e1c0ff24ca17c453c51c","67c6b27217cdc585d545b9dc","passed","","","","","","","","","","","","","","","","","ballFalling","500","510.8711431702997","369.03","8","fallScene","true","","","","","27","",""
"","","","","","html-keyboard-response","146","1176451","0.0-18.0-1.2","673f6c92a931906b3b255300","6796e1c0ff24ca17c453c51c","67c6b27217cdc585d545b9dc","passed","","1498","","","","","","","","","","","","","","j","yesOrNo","","","","8","","","mid","3000","","","27","501","300"
"","","","","","html-keyboard-response","147","1178005","0.0-18.0-0.3","673f6c92a931906b3b255300","6796e1c0ff24ca17c453c51c","67c6b27217cdc585d545b9dc","passed","","","","","","","","","","","","","","","","","ballFalling","322.3","296.07114317029976","371.46","3","fallScene","false","","","","","28","",""
"","","","","","html-keyboard-response","148","1181017","0.0-18.0-1.3","673f6c92a931906b3b255300","6796e1c0ff24ca17c453c51c","67c6b27217cdc585d545b9dc","passed","","797","","","","","","","","","","","","","","f","yesOrNo","","","","3","","","lp","3000","","","28","321.3","287.3327096511259"
"","","","","","html-keyboard-response","149","1182505","0.0-18.0-0.4","673f6c92a931906b3b255300","6796e1c0ff24ca17c453c51c","67c6b27217cdc585d545b9dc","passed","","","","","","","","","","","","","","","","","ballFalling","604.4000000000001","667.6211431702998","201.78","9","fallScene","false","","","","","29","",""
"","","","","","html-keyboard-response","150","1185515","0.0-18.0-1.4","673f6c92a931906b3b255300","6796e1c0ff24ca17c453c51c","67c6b27217cdc585d545b9dc","passed","","1518","","","","","","","","","","","","","","f","yesOrNo","","","","9","","","mid","3000","","","29","605.4000000000001","300"
"","","","","","html-keyboard-response","151","1187070","0.0-18.0-0.5","673f6c92a931906b3b255300","6796e1c0ff24ca17c453c51c","67c6b27217cdc585d545b9dc","passed","","","","","","","","","","","","","","","","","ballFalling","500","453.67114317029973","210.33","5","fallScene","true","","","","","30","",""
"","","","","","html-keyboard-response","152","1190076","0.0-18.0-1.5","673f6c92a931906b3b255300","6796e1c0ff24ca17c453c51c","67c6b27217cdc585d545b9dc","passed","","2148","","","","","","","","","","","","","","j","yesOrNo","","","","5","","","lp","3000","","","30","499","151"
"","","","","","html-keyboard-response","153","1191636","0.0-18.0-0.6","673f6c92a931906b3b255300","6796e1c0ff24ca17c453c51c","67c6b27217cdc585d545b9dc","passed","","","","","","","","","","","","","","","","","ballFalling","322.3","296.07114317029976","371.46","3","fallScene","true","","","","","31","",""
"","","","","","html-keyboard-response","154","1194646","0.0-18.0-1.6","673f6c92a931906b3b255300","6796e1c0ff24ca17c453c51c","67c6b27217cdc585d545b9dc","passed","","1011","","","","","","","","","","","","","","f","yesOrNo","","","","3","","","gt","3000","","","31","296.07114317029976","371.46"
"","","","","","html-keyboard-response","155","1196201","0.0-18.0-0.7","673f6c92a931906b3b255300","6796e1c0ff24ca17c453c51c","67c6b27217cdc585d545b9dc","passed","","","","","","","","","","","","","","","","","ballFalling","322.3","379.3711431702997","245.25","1","fallScene","true","","","","","32","",""
"","","","","","html-keyboard-response","156","1199211","0.0-18.0-1.7","673f6c92a931906b3b255300","6796e1c0ff24ca17c453c51c","67c6b27217cdc585d545b9dc","passed","","1813","","","","","","","","","","","","","","f","yesOrNo","","","","1","","","lp","3000","","","32","323.3","217.74551669457017"
"","","","","","html-keyboard-response","157","1201215","0.0-18.0-0.8","673f6c92a931906b3b255300","6796e1c0ff24ca17c453c51c","67c6b27217cdc585d545b9dc","passed","","","","","","","","","","","","","","","","","ballFalling","500","510.8711431702997","369.03","8","fallScene","true","","","","","33","",""
"","","","","","html-keyboard-response","158","1204225","0.0-18.0-1.8","673f6c92a931906b3b255300","6796e1c0ff24ca17c453c51c","67c6b27217cdc585d545b9dc","passed","","1088","","","","","","","","","","","","","","f","yesOrNo","","","","8","","","gt","3000","","","33","510.8711431702997","369.03"
"","","","","","html-keyboard-response","159","1205884","0.0-18.0-0.9","673f6c92a931906b3b255300","6796e1c0ff24ca17c453c51c","67c6b27217cdc585d545b9dc","passed","","","","","","","","","","","","","","","","","ballFalling","500","479.92114317029973","330.87","6","fallScene","false","","","","","34","",""
"","","","","","html-keyboard-response","160","1208888","0.0-18.0-1.9","673f6c92a931906b3b255300","6796e1c0ff24ca17c453c51c","67c6b27217cdc585d545b9dc","passed","","1001","","","","","","","","","","","","","","j","yesOrNo","","","","6","","","mid","3000","","","34","499","300"
"","","","","","html-keyboard-response","161","1210547","0.0-18.0-0.10","673f6c92a931906b3b255300","6796e1c0ff24ca17c453c51c","67c6b27217cdc585d545b9dc","passed","","","","","","","","","","","","","","","","","ballFalling","500","479.92114317029973","330.87","6","fallScene","false","","","","","35","",""
"","","","","","html-keyboard-response","162","1213557","0.0-18.0-1.10","673f6c92a931906b3b255300","6796e1c0ff24ca17c453c51c","67c6b27217cdc585d545b9dc","passed","","1560","","","","","","","","","","","","","","f","yesOrNo","","","","6","","","lp","3000","","","35","499","189.92909825697632"
"","","","","","html-keyboard-response","163","1215112","0.0-18.0-0.11","673f6c92a931906b3b255300","6796e1c0ff24ca17c453c51c","67c6b27217cdc585d545b9dc","passed","","","","","","","","","","","","","","","","","ballFalling","322.3","379.3711431702997","245.25","1","fallScene","false","","","","","36","",""
"","","","","","html-keyboard-response","164","1218122","0.0-18.0-1.11","673f6c92a931906b3b255300","6796e1c0ff24ca17c453c51c","67c6b27217cdc585d545b9dc","passed","","2229","","","","","","","","","","","","","","f","yesOrNo","","","","1","","","mid","3000","","","36","390.27114317029975","300"
"","","","","","html-keyboard-response","165","1219676","0.0-18.0-0.12","673f6c92a931906b3b255300","6796e1c0ff24ca17c453c51c","67c6b27217cdc585d545b9dc","passed","","","","","","","","","","","","","","","","","ballFalling","322.3","356.42114317029973","357.87","4","fallScene","true","","","","","37","",""
"","","","","","html-keyboard-response","166","1222688","0.0-18.0-1.12","673f6c92a931906b3b255300","6796e1c0ff24ca17c453c51c","67c6b27217cdc585d545b9dc","passed","","1504","","","","","","","","","","","","","","f","yesOrNo","","","","4","","","gt","3000","","","37","356.42114317029973","357.87"
"","","","","","html-keyboard-response","167","1224342","0.0-18.0-0.13","673f6c92a931906b3b255300","6796e1c0ff24ca17c453c51c","67c6b27217cdc585d545b9dc","passed","","","","","","","","","","","","","","","","","ballFalling","500","479.92114317029973","330.87","6","fallScene","false","","","","","38","",""
"","","","","","html-keyboard-response","168","1227353","0.0-18.0-1.13","673f6c92a931906b3b255300","6796e1c0ff24ca17c453c51c","67c6b27217cdc585d545b9dc","passed","","1476","","","","","","","","","","","","","","f","yesOrNo","","","","6","","","gt","3000","","","38","479.9211431702998","330.87"
"","","","","","html-keyboard-response","169","1228924","0.0-18.0-0.14","673f6c92a931906b3b255300","6796e1c0ff24ca17c453c51c","67c6b27217cdc585d545b9dc","passed","","","","","","","","","","","","","","","","","ballFalling","500","553.4711431702997","282.51","7","fallScene","false","","","","","39","",""
"","","","","","html-keyboard-response","170","1231935","0.0-18.0-1.14","673f6c92a931906b3b255300","6796e1c0ff24ca17c453c51c","67c6b27217cdc585d545b9dc","passed","","1053","","","","","","","","","","","","","","j","yesOrNo","","","","7","","","gt","3000","","","39","553.4711431702997","282.51"
"","","","","","html-keyboard-response","171","1233724","0.0-18.0-0.15","673f6c92a931906b3b255300","6796e1c0ff24ca17c453c51c","67c6b27217cdc585d545b9dc","passed","","","","","","","","","","","","","","","","","ballFalling","322.3","308.07114317029976","253.89","2","fallScene","false","","","","","40","",""
"","","","","","html-keyboard-response","172","1236734","0.0-18.0-1.15","673f6c92a931906b3b255300","6796e1c0ff24ca17c453c51c","67c6b27217cdc585d545b9dc","passed","","1048","","","","","","","","","","","","","","j","yesOrNo","","","","2","","","mid","3000","","","40","321.3","300"
"","","","","","html-keyboard-response","173","1238288","0.0-18.0-0.16","673f6c92a931906b3b255300","6796e1c0ff24ca17c453c51c","67c6b27217cdc585d545b9dc","passed","","","","","","","","","","","","","","","","","ballFalling","604.4000000000001","650.0211431702996","404.58000000000004","11","fallScene","false","","","","","41","",""
"","","","","","html-keyboard-response","174","1241296","0.0-18.0-1.16","673f6c92a931906b3b255300","6796e1c0ff24ca17c453c51c","67c6b27217cdc585d545b9dc","passed","","792","","","","","","","","","","","","","","f","yesOrNo","","","","11","","","mid","3000","","","41","605.4000000000001","300"
"","","","","","html-keyboard-response","175","1242786","0.0-18.0-0.17","673f6c92a931906b3b255300","6796e1c0ff24ca17c453c51c","67c6b27217cdc585d545b9dc","passed","","","","","","","","","","","","","","","","","ballFalling","604.4000000000001","667.6211431702998","201.78","9","fallScene","true","","","","","42","",""
"","","","","","html-keyboard-response","176","1245798","0.0-18.0-1.17","673f6c92a931906b3b255300","6796e1c0ff24ca17c453c51c","67c6b27217cdc585d545b9dc","passed","","1320","","","","","","","","","","","","","","f","yesOrNo","","","","9","","","mid","3000","","","42","605.4000000000001","300"
"","","","","","html-keyboard-response","177","1247584","0.0-18.0-0.18","673f6c92a931906b3b255300","6796e1c0ff24ca17c453c51c","67c6b27217cdc585d545b9dc","passed","","","","","","","","","","","","","","","","","ballFalling","322.3","308.07114317029976","253.89","2","fallScene","true","","","","","43","",""
"","","","","","html-keyboard-response","178","1250596","0.0-18.0-1.18","673f6c92a931906b3b255300","6796e1c0ff24ca17c453c51c","67c6b27217cdc585d545b9dc","passed","","2243","","","","","","","","","","","","","","j","yesOrNo","","","","2","","","mid","3000","","","43","321.3","300"
"","","","","","html-keyboard-response","179","1252250","0.0-18.0-0.19","673f6c92a931906b3b255300","6796e1c0ff24ca17c453c51c","67c6b27217cdc585d545b9dc","passed","","","","","","","","","","","","","","","","","ballFalling","500","479.92114317029973","330.87","6","fallScene","false","","","","","44","",""
"","","","","","html-keyboard-response","180","1255256","0.0-18.0-1.19","673f6c92a931906b3b255300","6796e1c0ff24ca17c453c51c","67c6b27217cdc585d545b9dc","passed","","1969","","","","","","","","","","","","","","f","yesOrNo","","","","6","","","gt","3000","","","44","479.9211431702998","330.87"
"","","","","","html-keyboard-response","181","1256915","0.0-18.0-0.20","673f6c92a931906b3b255300","6796e1c0ff24ca17c453c51c","67c6b27217cdc585d545b9dc","passed","","","","","","","","","","","","","","","","","ballFalling","500","479.92114317029973","330.87","6","fallScene","true","","","","","45","",""
"","","","","","html-keyboard-response","182","1259925","0.0-18.0-1.20","673f6c92a931906b3b255300","6796e1c0ff24ca17c453c51c","67c6b27217cdc585d545b9dc","passed","","1998","","","","","","","","","","","","","","f","yesOrNo","","","","6","","","lp","3000","","","45","499","189.92909825697632"
"","","","","","html-keyboard-response","183","1261482","0.0-18.0-0.21","673f6c92a931906b3b255300","6796e1c0ff24ca17c453c51c","67c6b27217cdc585d545b9dc","passed","","","","","","","","","","","","","","","","","ballFalling","604.4000000000001","575.4211431702997","266.76","12","fallScene","false","","","","","46","",""
"","","","","","html-keyboard-response","184","1264492","0.0-18.0-1.21","673f6c92a931906b3b255300","6796e1c0ff24ca17c453c51c","67c6b27217cdc585d545b9dc","passed","","896","","","","","","","","","","","","","","f","yesOrNo","","","","12","","","mid","3000","","","46","536.4288568297004","300"
"","","","","","html-keyboard-response","185","1266046","0.0-18.0-0.22","673f6c92a931906b3b255300","6796e1c0ff24ca17c453c51c","67c6b27217cdc585d545b9dc","passed","","","","","","","","","","","","","","","","","ballFalling","322.3","296.07114317029976","371.46","3","fallScene","false","","","","","47","",""
"","","","","","html-keyboard-response","186","1269050","0.0-18.0-1.22","673f6c92a931906b3b255300","6796e1c0ff24ca17c453c51c","67c6b27217cdc585d545b9dc","passed","","1315","","","","","","","","","","","","","","j","yesOrNo","","","","3","","","mid","3000","","","47","321.3","300"
"","","","","","html-keyboard-response","187","1270629","0.0-18.0-0.23","673f6c92a931906b3b255300","6796e1c0ff24ca17c453c51c","67c6b27217cdc585d545b9dc","passed","","","","","","","","","","","","","","","","","ballFalling","500","553.4711431702997","282.51","7","fallScene","true","","","","","48","",""
"","","","","","html-keyboard-response","188","1273634","0.0-18.0-1.23","673f6c92a931906b3b255300","6796e1c0ff24ca17c453c51c","67c6b27217cdc585d545b9dc","passed","","2018","","","","","","","","","","","","","","f","yesOrNo","","","","7","","","lp","3000","","","48","501","227.2843295913261"
"","","","","","html-keyboard-response","189","1305997","0.0-19.0","673f6c92a931906b3b255300","6796e1c0ff24ca17c453c51c","67c6b27217cdc585d545b9dc","passed","","32361","","","","","","","","","","","","","<p><span style=""font-size:40px;"">BLOCK 3</span></p><p><span style=""font-size:25px;"">You have <b style=""color: #FF644F;""><strong>0.7 second(s)</strong></b> to respond to the following trials.</span><br></p><p></p> <!-- Blank line -->
                <p id=""blinking-text"" style=""font-weight; animation: blink 2s infinite;"">Press Space to continue</p>
                <style>
                    @keyframes blink {
                        50% {
                            opacity: 0;
                        }
                    }
                </style></p>"," ","","","","","","","","","","","","","",""
"","","","","","html-keyboard-response","190","1307650","0.0-20.0-0.0","673f6c92a931906b3b255300","6796e1c0ff24ca17c453c51c","67c6b27217cdc585d545b9dc","passed","","","","","","","","","","","","","","","","","ballFalling","500","479.92114317029973","330.87","6","fallScene","true","","","","","49","",""
"","","","","","html-keyboard-response","191","1308360","0.0-20.0-1.0","673f6c92a931906b3b255300","6796e1c0ff24ca17c453c51c","67c6b27217cdc585d545b9dc","passed","","497","","","","","","","","","","","","","","f","yesOrNo","","","","6","","","mid","700","","","49","499","300"
"","","","","","html-keyboard-response","192","1309917","0.0-20.0-0.1","673f6c92a931906b3b255300","6796e1c0ff24ca17c453c51c","67c6b27217cdc585d545b9dc","passed","","","","","","","","","","","","","","","","","ballFalling","500","553.4711431702997","282.51","7","fallScene","true","","","","","50","",""
"","","","","","html-keyboard-response","193","1310629","0.0-20.0-1.1","673f6c92a931906b3b255300","6796e1c0ff24ca17c453c51c","67c6b27217cdc585d545b9dc","passed","","384","","","","","","","","","","","","","","f","yesOrNo","","","","7","","","gt","700","","","50","553.4711431702997","282.51"
"","","","","","html-keyboard-response","194","1312119","0.0-20.0-0.2","673f6c92a931906b3b255300","6796e1c0ff24ca17c453c51c","67c6b27217cdc585d545b9dc","passed","","","","","","","","","","","","","","","","","ballFalling","604.4000000000001","667.6211431702998","201.78","9","fallScene","false","","","","","51","",""
"","","","","","html-keyboard-response","195","1312828","0.0-20.0-1.2","673f6c92a931906b3b255300","6796e1c0ff24ca17c453c51c","67c6b27217cdc585d545b9dc","passed","","345","","","","","","","","","","","","","","j","yesOrNo","","","","9","","","mid","700","","","51","605.4000000000001","300"
"","","","","","html-keyboard-response","196","1314832","0.0-20.0-0.3","673f6c92a931906b3b255300","6796e1c0ff24ca17c453c51c","67c6b27217cdc585d545b9dc","passed","","","","","","","","","","","","","","","","","ballFalling","604.4000000000001","596.8711431702998","394.5","10","fallScene","false","","","","","52","",""
"","","","","","html-keyboard-response","197","1315539","0.0-20.0-1.3","673f6c92a931906b3b255300","6796e1c0ff24ca17c453c51c","67c6b27217cdc585d545b9dc","passed","","498","","","","","","","","","","","","","","f","yesOrNo","","","","10","","","mid","700","","","52","536.4288568297004","300"
"","","","","","html-keyboard-response","198","1317547","0.0-20.0-0.4","673f6c92a931906b3b255300","6796e1c0ff24ca17c453c51c","67c6b27217cdc585d545b9dc","passed","","","","","","","","","","","","","","","","","ballFalling","500","510.8711431702997","369.03","8","fallScene","true","","","","","53","",""
"","","","","","html-keyboard-response","199","1318260","0.0-20.0-1.4","673f6c92a931906b3b255300","6796e1c0ff24ca17c453c51c","67c6b27217cdc585d545b9dc","passed","","null","","","","","","","","","","","","","","null","yesOrNo","","","","8","","","lp","700","","","53","501","151"
"","","","","","html-keyboard-response","200","1319814","0.0-20.0-0.5","673f6c92a931906b3b255300","6796e1c0ff24ca17c453c51c","67c6b27217cdc585d545b9dc","passed","","","","","","","","","","","","","","","","","ballFalling","322.3","356.42114317029973","357.87","4","fallScene","true","","","","","54","",""
"","","","","","html-keyboard-response","201","1320518","0.0-20.0-1.5","673f6c92a931906b3b255300","6796e1c0ff24ca17c453c51c","67c6b27217cdc585d545b9dc","passed","","264","","","","","","","","","","","","","","f","yesOrNo","","","","4","","","lp","700","","","54","323.3","297.4070551689986"
"","","","","","html-keyboard-response","202","1322078","0.0-20.0-0.6","673f6c92a931906b3b255300","6796e1c0ff24ca17c453c51c","67c6b27217cdc585d545b9dc","passed","","","","","","","","","","","","","","","","","ballFalling","322.3","296.07114317029976","371.46","3","fallScene","true","","","","","55","",""
"","","","","","html-keyboard-response","203","1322785","0.0-20.0-1.6","673f6c92a931906b3b255300","6796e1c0ff24ca17c453c51c","67c6b27217cdc585d545b9dc","passed","","449","","","","","","","","","","","","","","j","yesOrNo","","","","3","","","mid","700","","","55","321.3","300"
"","","","","","html-keyboard-response","204","1324346","0.0-20.0-0.7","673f6c92a931906b3b255300","6796e1c0ff24ca17c453c51c","67c6b27217cdc585d545b9dc","passed","","","","","","","","","","","","","","","","","ballFalling","322.3","356.42114317029973","357.87","4","fallScene","false","","","","","56","",""
"","","","","","html-keyboard-response","205","1325058","0.0-20.0-1.7","673f6c92a931906b3b255300","6796e1c0ff24ca17c453c51c","67c6b27217cdc585d545b9dc","passed","","463","","","","","","","","","","","","","","f","yesOrNo","","","","4","","","gt","700","","","56","356.42114317029973","357.87"
"","","","","","html-keyboard-response","206","1327061","0.0-20.0-0.8","673f6c92a931906b3b255300","6796e1c0ff24ca17c453c51c","67c6b27217cdc585d545b9dc","passed","","","","","","","","","","","","","","","","","ballFalling","604.4000000000001","596.8711431702998","394.5","10","fallScene","false","","","","","57","",""
"","","","","","html-keyboard-response","207","1327769","0.0-20.0-1.8","673f6c92a931906b3b255300","6796e1c0ff24ca17c453c51c","67c6b27217cdc585d545b9dc","passed","","624","","","","","","","","","","","","","","j","yesOrNo","","","","10","","","lp","700","","","57","603.4000000000001","215.50214355555383"
"","","","","","html-keyboard-response","208","1329328","0.0-20.0-0.9","673f6c92a931906b3b255300","6796e1c0ff24ca17c453c51c","67c6b27217cdc585d545b9dc","passed","","","","","","","","","","","","","","","","","ballFalling","322.3","379.3711431702997","245.25","1","fallScene","true","","","","","58","",""
"","","","","","html-keyboard-response","209","1330037","0.0-20.0-1.9","673f6c92a931906b3b255300","6796e1c0ff24ca17c453c51c","67c6b27217cdc585d545b9dc","passed","","581","","","","","","","","","","","","","","f","yesOrNo","","","","1","","","mid","700","","","58","390.27114317029975","300"
"","","","","","html-keyboard-response","210","1332044","0.0-20.0-0.10","673f6c92a931906b3b255300","6796e1c0ff24ca17c453c51c","67c6b27217cdc585d545b9dc","passed","","","","","","","","","","","","","","","","","ballFalling","500","510.8711431702997","369.03","8","fallScene","true","","","","","59","",""
"","","","","","html-keyboard-response","211","1332756","0.0-20.0-1.10","673f6c92a931906b3b255300","6796e1c0ff24ca17c453c51c","67c6b27217cdc585d545b9dc","passed","","457","","","","","","","","","","","","","","f","yesOrNo","","","","8","","","gt","700","","","59","510.8711431702997","369.03"
"","","","","","html-keyboard-response","212","1334543","0.0-20.0-0.11","673f6c92a931906b3b255300","6796e1c0ff24ca17c453c51c","67c6b27217cdc585d545b9dc","passed","","","","","","","","","","","","","","","","","ballFalling","322.3","308.07114317029976","253.89","2","fallScene","false","","","","","60","",""
"","","","","","html-keyboard-response","213","1335251","0.0-20.0-1.11","673f6c92a931906b3b255300","6796e1c0ff24ca17c453c51c","67c6b27217cdc585d545b9dc","passed","","565","","","","","","","","","","","","","","j","yesOrNo","","","","2","","","mid","700","","","60","321.3","300"
"","","","","","html-keyboard-response","214","1336810","0.0-20.0-0.12","673f6c92a931906b3b255300","6796e1c0ff24ca17c453c51c","67c6b27217cdc585d545b9dc","passed","","","","","","","","","","","","","","","","","ballFalling","604.4000000000001","650.0211431702996","404.58000000000004","11","fallScene","true","","","","","61","",""
"","","","","","html-keyboard-response","215","1337521","0.0-20.0-1.12","673f6c92a931906b3b255300","6796e1c0ff24ca17c453c51c","67c6b27217cdc585d545b9dc","passed","","null","","","","","","","","","","","","","","null","yesOrNo","","","","11","","","gt","700","","","61","650.0211431702996","404.58"
"","","","","","html-keyboard-response","216","1339076","0.0-20.0-0.13","673f6c92a931906b3b255300","6796e1c0ff24ca17c453c51c","67c6b27217cdc585d545b9dc","passed","","","","","","","","","","","","","","","","","ballFalling","322.3","296.07114317029976","371.46","3","fallScene","false","","","","","62","",""
"","","","","","html-keyboard-response","217","1339786","0.0-20.0-1.13","673f6c92a931906b3b255300","6796e1c0ff24ca17c453c51c","67c6b27217cdc585d545b9dc","passed","","430","","","","","","","","","","","","","","f","yesOrNo","","","","3","","","lp","700","","","62","321.3","287.3327096511259"
"","","","","","html-keyboard-response","218","1341342","0.0-20.0-0.14","673f6c92a931906b3b255300","6796e1c0ff24ca17c453c51c","67c6b27217cdc585d545b9dc","passed","","","","","","","","","","","","","","","","","ballFalling","500","453.67114317029973","210.33","5","fallScene","false","","","","","63","",""
"","","","","","html-keyboard-response","219","1342054","0.0-20.0-1.14","673f6c92a931906b3b255300","6796e1c0ff24ca17c453c51c","67c6b27217cdc585d545b9dc","passed","","432","","","","","","","","","","","","","","j","yesOrNo","","","","5","","","gt","700","","","63","453.6711431702998","210.33"
"","","","","","html-keyboard-response","220","1343608","0.0-20.0-0.15","673f6c92a931906b3b255300","6796e1c0ff24ca17c453c51c","67c6b27217cdc585d545b9dc","passed","","","","","","","","","","","","","","","","","ballFalling","604.4000000000001","650.0211431702996","404.58000000000004","11","fallScene","false","","","","","64","",""
"","","","","","html-keyboard-response","221","1344320","0.0-20.0-1.15","673f6c92a931906b3b255300","6796e1c0ff24ca17c453c51c","67c6b27217cdc585d545b9dc","passed","","180","","","","","","","","","","","","","","f","yesOrNo","","","","11","","","lp","700","","","64","605.4000000000001","372.6340973215488"
"","","","","","html-keyboard-response","222","1346324","0.0-20.0-0.16","673f6c92a931906b3b255300","6796e1c0ff24ca17c453c51c","67c6b27217cdc585d545b9dc","passed","","","","","","","","","","","","","","","","","ballFalling","604.4000000000001","596.8711431702998","394.5","10","fallScene","false","","","","","65","",""
"","","","","","html-keyboard-response","223","1347031","0.0-20.0-1.16","673f6c92a931906b3b255300","6796e1c0ff24ca17c453c51c","67c6b27217cdc585d545b9dc","passed","","347","","","","","","","","","","","","","","j","yesOrNo","","","","10","","","gt","700","","","65","596.8711431702998","394.5"
"","","","","","html-keyboard-response","224","1348691","0.0-20.0-0.17","673f6c92a931906b3b255300","6796e1c0ff24ca17c453c51c","67c6b27217cdc585d545b9dc","passed","","","","","","","","","","","","","","","","","ballFalling","500","479.92114317029973","330.87","6","fallScene","true","","","","","66","",""
"","","","","","html-keyboard-response","225","1349402","0.0-20.0-1.17","673f6c92a931906b3b255300","6796e1c0ff24ca17c453c51c","67c6b27217cdc585d545b9dc","passed","","313","","","","","","","","","","","","","","f","yesOrNo","","","","6","","","gt","700","","","66","479.9211431702998","330.87"
"","","","","","html-keyboard-response","226","1350956","0.0-20.0-0.18","673f6c92a931906b3b255300","6796e1c0ff24ca17c453c51c","67c6b27217cdc585d545b9dc","passed","","","","","","","","","","","","","","","","","ballFalling","604.4000000000001","650.0211431702996","404.58000000000004","11","fallScene","true","","","","","67","",""
"","","","","","html-keyboard-response","227","1351663","0.0-20.0-1.18","673f6c92a931906b3b255300","6796e1c0ff24ca17c453c51c","67c6b27217cdc585d545b9dc","passed","","568","","","","","","","","","","","","","","j","yesOrNo","","","","11","","","mid","700","","","67","605.4000000000001","300"
"","","","","","html-keyboard-response","228","1353155","0.0-20.0-0.19","673f6c92a931906b3b255300","6796e1c0ff24ca17c453c51c","67c6b27217cdc585d545b9dc","passed","","","","","","","","","","","","","","","","","ballFalling","604.4000000000001","667.6211431702998","201.78","9","fallScene","false","","","","","68","",""
"","","","","","html-keyboard-response","229","1353864","0.0-20.0-1.19","673f6c92a931906b3b255300","6796e1c0ff24ca17c453c51c","67c6b27217cdc585d545b9dc","passed","","173","","","","","","","","","","","","","","f","yesOrNo","","","","9","","","lp","700","","","68","605.4000000000001","151"
"","","","","","html-keyboard-response","230","1355421","0.0-20.0-0.20","673f6c92a931906b3b255300","6796e1c0ff24ca17c453c51c","67c6b27217cdc585d545b9dc","passed","","","","","","","","","","","","","","","","","ballFalling","604.4000000000001","575.4211431702997","266.76","12","fallScene","true","","","","","69","",""
"","","","","","html-keyboard-response","231","1356127","0.0-20.0-1.20","673f6c92a931906b3b255300","6796e1c0ff24ca17c453c51c","67c6b27217cdc585d545b9dc","passed","","337","","","","","","","","","","","","","","j","yesOrNo","","","","12","","","lp","700","","","69","603.4000000000001","151"
"","","","","","html-keyboard-response","232","1357688","0.0-20.0-0.21","673f6c92a931906b3b255300","6796e1c0ff24ca17c453c51c","67c6b27217cdc585d545b9dc","passed","","","","","","","","","","","","","","","","","ballFalling","322.3","356.42114317029973","357.87","4","fallScene","false","","","","","70","",""
"","","","","","html-keyboard-response","233","1358399","0.0-20.0-1.21","673f6c92a931906b3b255300","6796e1c0ff24ca17c453c51c","67c6b27217cdc585d545b9dc","passed","","null","","","","","","","","","","","","","","null","yesOrNo","","","","4","","","gt","700","","","70","356.42114317029973","357.87"
"","","","","","html-keyboard-response","234","1360187","0.0-20.0-0.22","673f6c92a931906b3b255300","6796e1c0ff24ca17c453c51c","67c6b27217cdc585d545b9dc","passed","","","","","","","","","","","","","","","","","ballFalling","322.3","308.07114317029976","253.89","2","fallScene","false","","","","","71","",""
"","","","","","html-keyboard-response","235","1360905","0.0-20.0-1.22","673f6c92a931906b3b255300","6796e1c0ff24ca17c453c51c","67c6b27217cdc585d545b9dc","passed","","596","","","","","","","","","","","","","","f","yesOrNo","","","","2","","","gt","700","","","71","308.07114317029976","253.89"
"","","","","","html-keyboard-response","236","1362920","0.0-20.0-0.23","673f6c92a931906b3b255300","6796e1c0ff24ca17c453c51c","67c6b27217cdc585d545b9dc","passed","","","","","","","","","","","","","","","","","ballFalling","604.4000000000001","596.8711431702998","394.5","10","fallScene","false","","","","","72","",""
"","","","","","html-keyboard-response","237","1363637","0.0-20.0-1.23","673f6c92a931906b3b255300","6796e1c0ff24ca17c453c51c","67c6b27217cdc585d545b9dc","passed","","569","","","","","","","","","","","","","","j","yesOrNo","","","","10","","","gt","700","","","72","596.8711431702998","394.5"
"","","","","","html-keyboard-response","238","1365434","0.0-21.0","673f6c92a931906b3b255300","6796e1c0ff24ca17c453c51c","67c6b27217cdc585d545b9dc","passed","","1795","","","","","","","","","","","","","<p><span style=""font-size:40px;"">BLOCK 4</span></p><p><span style=""font-size:25px;"">You have <b style=""color: #FF644F;""><strong>3 second(s)</strong></b> to respond to the following trials.</span><br></p><p></p> <!-- Blank line -->
                <p id=""blinking-text"" style=""font-weight; animation: blink 2s infinite;"">Press Space to continue</p>
                <style>
                    @keyframes blink {
                        50% {
                            opacity: 0;
                        }
                    }
                </style></p>"," ","","","","","","","","","","","","","",""
"","","","","","html-keyboard-response","239","1367235","0.0-22.0-0.0","673f6c92a931906b3b255300","6796e1c0ff24ca17c453c51c","67c6b27217cdc585d545b9dc","passed","","","","","","","","","","","","","","","","","ballFalling","322.3","308.07114317029976","253.89","2","fallScene","false","","","","","73","",""
"","","","","","html-keyboard-response","240","1370244","0.0-22.0-1.0","673f6c92a931906b3b255300","6796e1c0ff24ca17c453c51c","67c6b27217cdc585d545b9dc","passed","","1078","","","","","","","","","","","","","","j","yesOrNo","","","","2","","","lp","3000","","","73","321.3","151"
"","","","","","html-keyboard-response","241","1372249","0.0-22.0-0.1","673f6c92a931906b3b255300","6796e1c0ff24ca17c453c51c","67c6b27217cdc585d545b9dc","passed","","","","","","","","","","","","","","","","","ballFalling","500","510.8711431702997","369.03","8","fallScene","true","","","","","74","",""
"","","","","","html-keyboard-response","242","1375261","0.0-22.0-1.1","673f6c92a931906b3b255300","6796e1c0ff24ca17c453c51c","67c6b27217cdc585d545b9dc","passed","","1195","","","","","","","","","","","","","","f","yesOrNo","","","","8","","","gt","3000","","","74","510.8711431702997","369.03"
"","","","","","html-keyboard-response","243","1376816","0.0-22.0-0.2","673f6c92a931906b3b255300","6796e1c0ff24ca17c453c51c","67c6b27217cdc585d545b9dc","passed","","","","","","","","","","","","","","","","","ballFalling","322.3","356.42114317029973","357.87","4","fallScene","false","","","","","75","",""
"","","","","","html-keyboard-response","244","1379827","0.0-22.0-1.2","673f6c92a931906b3b255300","6796e1c0ff24ca17c453c51c","67c6b27217cdc585d545b9dc","passed","","896","","","","","","","","","","","","","","j","yesOrNo","","","","4","","","mid","3000","","","75","390.27114317029975","300"
"","","","","","html-keyboard-response","245","1381379","0.0-22.0-0.3","673f6c92a931906b3b255300","6796e1c0ff24ca17c453c51c","67c6b27217cdc585d545b9dc","passed","","","","","","","","","","","","","","","","","ballFalling","604.4000000000001","650.0211431702996","404.58000000000004","11","fallScene","false","","","","","76","",""
"","","","","","html-keyboard-response","246","1384391","0.0-22.0-1.3","673f6c92a931906b3b255300","6796e1c0ff24ca17c453c51c","67c6b27217cdc585d545b9dc","passed","","1576","","","","","","","","","","","","","","f","yesOrNo","","","","11","","","lp","3000","","","76","605.4000000000001","372.6340973215488"
"","","","","","html-keyboard-response","247","1385946","0.0-22.0-0.4","673f6c92a931906b3b255300","6796e1c0ff24ca17c453c51c","67c6b27217cdc585d545b9dc","passed","","","","","","","","","","","","","","","","","ballFalling","322.3","379.3711431702997","245.25","1","fallScene","true","","","","","77","",""
"","","","","","html-keyboard-response","248","1388956","0.0-22.0-1.4","673f6c92a931906b3b255300","6796e1c0ff24ca17c453c51c","67c6b27217cdc585d545b9dc","passed","","861","","","","","","","","","","","","","","f","yesOrNo","","","","1","","","gt","3000","","","77","379.3711431702997","245.25"
"","","","","","html-keyboard-response","249","1390510","0.0-22.0-0.5","673f6c92a931906b3b255300","6796e1c0ff24ca17c453c51c","67c6b27217cdc585d545b9dc","passed","","","","","","","","","","","","","","","","","ballFalling","500","453.67114317029973","210.33","5","fallScene","true","","","","","78","",""
"","","","","","html-keyboard-response","250","1393523","0.0-22.0-1.5","673f6c92a931906b3b255300","6796e1c0ff24ca17c453c51c","67c6b27217cdc585d545b9dc","passed","","899","","","","","","","","","","","","","","j","yesOrNo","","","","5","","","mid","3000","","","78","499","300"
"","","","","","html-keyboard-response","251","1395527","0.0-22.0-0.6","673f6c92a931906b3b255300","6796e1c0ff24ca17c453c51c","67c6b27217cdc585d545b9dc","passed","","","","","","","","","","","","","","","","","ballFalling","604.4000000000001","596.8711431702998","394.5","10","fallScene","false","","","","","79","",""
"","","","","","html-keyboard-response","252","1398538","0.0-22.0-1.6","673f6c92a931906b3b255300","6796e1c0ff24ca17c453c51c","67c6b27217cdc585d545b9dc","passed","","1294","","","","","","","","","","","","","","f","yesOrNo","","","","10","","","lp","3000","","","79","603.4000000000001","215.50214355555383"
"","","","","","html-keyboard-response","253","1400092","0.0-22.0-0.7","673f6c92a931906b3b255300","6796e1c0ff24ca17c453c51c","67c6b27217cdc585d545b9dc","passed","","","","","","","","","","","","","","","","","ballFalling","322.3","379.3711431702997","245.25","1","fallScene","true","","","","","80","",""
"","","","","","html-keyboard-response","254","1403097","0.0-22.0-1.7","673f6c92a931906b3b255300","6796e1c0ff24ca17c453c51c","67c6b27217cdc585d545b9dc","passed","","1020","","","","","","","","","","","","","","f","yesOrNo","","","","1","","","gt","3000","","","80","379.3711431702997","245.25"
"","","","","","html-keyboard-response","255","1405105","0.0-22.0-0.8","673f6c92a931906b3b255300","6796e1c0ff24ca17c453c51c","67c6b27217cdc585d545b9dc","passed","","","","","","","","","","","","","","","","","ballFalling","604.4000000000001","596.8711431702998","394.5","10","fallScene","false","","","","","81","",""
"","","","","","html-keyboard-response","256","1408110","0.0-22.0-1.8","673f6c92a931906b3b255300","6796e1c0ff24ca17c453c51c","67c6b27217cdc585d545b9dc","passed","","865","","","","","","","","","","","","","","f","yesOrNo","","","","10","","","mid","3000","","","81","536.4288568297004","300"
"","","","","","html-keyboard-response","257","1410134","0.0-22.0-0.9","673f6c92a931906b3b255300","6796e1c0ff24ca17c453c51c","67c6b27217cdc585d545b9dc","passed","","","","","","","","","","","","","","","","","ballFalling","500","510.8711431702997","369.03","8","fallScene","true","","","","","82","",""
"","","","","","html-keyboard-response","258","1413143","0.0-22.0-1.9","673f6c92a931906b3b255300","6796e1c0ff24ca17c453c51c","67c6b27217cdc585d545b9dc","passed","","1849","","","","","","","","","","","","","","f","yesOrNo","","","","8","","","lp","3000","","","82","501","151"
"","","","","","html-keyboard-response","259","1414704","0.0-22.0-0.10","673f6c92a931906b3b255300","6796e1c0ff24ca17c453c51c","67c6b27217cdc585d545b9dc","passed","","","","","","","","","","","","","","","","","ballFalling","322.3","356.42114317029973","357.87","4","fallScene","false","","","","","83","",""
"","","","","","html-keyboard-response","260","1417715","0.0-22.0-1.10","673f6c92a931906b3b255300","6796e1c0ff24ca17c453c51c","67c6b27217cdc585d545b9dc","passed","","1419","","","","","","","","","","","","","","j","yesOrNo","","","","4","","","gt","3000","","","83","356.42114317029973","357.87"
"","","","","","html-keyboard-response","261","1419720","0.0-22.0-0.11","673f6c92a931906b3b255300","6796e1c0ff24ca17c453c51c","67c6b27217cdc585d545b9dc","passed","","","","","","","","","","","","","","","","","ballFalling","500","510.8711431702997","369.03","8","fallScene","true","","","","","84","",""
"","","","","","html-keyboard-response","262","1422731","0.0-22.0-1.11","673f6c92a931906b3b255300","6796e1c0ff24ca17c453c51c","67c6b27217cdc585d545b9dc","passed","","1542","","","","","","","","","","","","","","j","yesOrNo","","","","8","","","mid","3000","","","84","501","300"
"","","","","","html-keyboard-response","263","1424285","0.0-22.0-0.12","673f6c92a931906b3b255300","6796e1c0ff24ca17c453c51c","67c6b27217cdc585d545b9dc","passed","","","","","","","","","","","","","","","","","ballFalling","604.4000000000001","650.0211431702996","404.58000000000004","11","fallScene","true","","","","","85","",""
"","","","","","html-keyboard-response","264","1427296","0.0-22.0-1.12","673f6c92a931906b3b255300","6796e1c0ff24ca17c453c51c","67c6b27217cdc585d545b9dc","passed","","1067","","","","","","","","","","","","","","f","yesOrNo","","","","11","","","mid","3000","","","85","605.4000000000001","300"
"","","","","","html-keyboard-response","265","1428951","0.0-22.0-0.13","673f6c92a931906b3b255300","6796e1c0ff24ca17c453c51c","67c6b27217cdc585d545b9dc","passed","","","","","","","","","","","","","","","","","ballFalling","500","479.92114317029973","330.87","6","fallScene","false","","","","","86","",""
"","","","","","html-keyboard-response","266","1431961","0.0-22.0-1.13","673f6c92a931906b3b255300","6796e1c0ff24ca17c453c51c","67c6b27217cdc585d545b9dc","passed","","1980","","","","","","","","","","","","","","f","yesOrNo","","","","6","","","mid","3000","","","86","499","300"
"","","","","","html-keyboard-response","267","1433516","0.0-22.0-0.14","673f6c92a931906b3b255300","6796e1c0ff24ca17c453c51c","67c6b27217cdc585d545b9dc","passed","","","","","","","","","","","","","","","","","ballFalling","322.3","379.3711431702997","245.25","1","fallScene","false","","","","","87","",""
"","","","","","html-keyboard-response","268","1436523","0.0-22.0-1.14","673f6c92a931906b3b255300","6796e1c0ff24ca17c453c51c","67c6b27217cdc585d545b9dc","passed","","1237","","","","","","","","","","","","","","j","yesOrNo","","","","1","","","lp","3000","","","87","323.3","217.74551669457017"
"","","","","","html-keyboard-response","269","1438081","0.0-22.0-0.15","673f6c92a931906b3b255300","6796e1c0ff24ca17c453c51c","67c6b27217cdc585d545b9dc","passed","","","","","","","","","","","","","","","","","ballFalling","322.3","296.07114317029976","371.46","3","fallScene","false","","","","","88","",""
"","","","","","html-keyboard-response","270","1441090","0.0-22.0-1.15","673f6c92a931906b3b255300","6796e1c0ff24ca17c453c51c","67c6b27217cdc585d545b9dc","passed","","1314","","","","","","","","","","","","","","j","yesOrNo","","","","3","","","lp","3000","","","88","321.3","287.3327096511259"
"","","","","","html-keyboard-response","271","1442647","0.0-22.0-0.16","673f6c92a931906b3b255300","6796e1c0ff24ca17c453c51c","67c6b27217cdc585d545b9dc","passed","","","","","","","","","","","","","","","","","ballFalling","500","453.67114317029973","210.33","5","fallScene","true","","","","","89","",""
"","","","","","html-keyboard-response","272","1445657","0.0-22.0-1.16","673f6c92a931906b3b255300","6796e1c0ff24ca17c453c51c","67c6b27217cdc585d545b9dc","passed","","1300","","","","","","","","","","","","","","j","yesOrNo","","","","5","","","gt","3000","","","89","453.6711431702998","210.33"
"","","","","","html-keyboard-response","273","1447211","0.0-22.0-0.17","673f6c92a931906b3b255300","6796e1c0ff24ca17c453c51c","67c6b27217cdc585d545b9dc","passed","","","","","","","","","","","","","","","","","ballFalling","604.4000000000001","575.4211431702997","266.76","12","fallScene","true","","","","","90","",""
"","","","","","html-keyboard-response","274","1450217","0.0-22.0-1.17","673f6c92a931906b3b255300","6796e1c0ff24ca17c453c51c","67c6b27217cdc585d545b9dc","passed","","2456","","","","","","","","","","","","","","f","yesOrNo","","","","12","","","gt","3000","","","90","575.4211431702997","266.76"
"","","","","","html-keyboard-response","275","1452010","0.0-22.0-0.18","673f6c92a931906b3b255300","6796e1c0ff24ca17c453c51c","67c6b27217cdc585d545b9dc","passed","","","","","","","","","","","","","","","","","ballFalling","322.3","308.07114317029976","253.89","2","fallScene","false","","","","","91","",""
"","","","","","html-keyboard-response","276","1455019","0.0-22.0-1.18","673f6c92a931906b3b255300","6796e1c0ff24ca17c453c51c","67c6b27217cdc585d545b9dc","passed","","1516","","","","","","","","","","","","","","j","yesOrNo","","","","2","","","gt","3000","","","91","308.07114317029976","253.89"
"","","","","","html-keyboard-response","277","1457038","0.0-22.0-0.19","673f6c92a931906b3b255300","6796e1c0ff24ca17c453c51c","67c6b27217cdc585d545b9dc","passed","","","","","","","","","","","","","","","","","ballFalling","500","510.8711431702997","369.03","8","fallScene","false","","","","","92","",""
"","","","","","html-keyboard-response","278","1460045","0.0-22.0-1.19","673f6c92a931906b3b255300","6796e1c0ff24ca17c453c51c","67c6b27217cdc585d545b9dc","passed","","2136","","","","","","","","","","","","","","f","yesOrNo","","","","8","","","lp","3000","","","92","501","151"
"","","","","","html-keyboard-response","279","1461607","0.0-22.0-0.20","673f6c92a931906b3b255300","6796e1c0ff24ca17c453c51c","67c6b27217cdc585d545b9dc","passed","","","","","","","","","","","","","","","","","ballFalling","322.3","356.42114317029973","357.87","4","fallScene","false","","","","","93","",""
"","","","","","html-keyboard-response","280","1464618","0.0-22.0-1.20","673f6c92a931906b3b255300","6796e1c0ff24ca17c453c51c","67c6b27217cdc585d545b9dc","passed","","1435","","","","","","","","","","","","","","j","yesOrNo","","","","4","","","mid","3000","","","93","390.27114317029975","300"
"","","","","","html-keyboard-response","281","1466176","0.0-22.0-0.21","673f6c92a931906b3b255300","6796e1c0ff24ca17c453c51c","67c6b27217cdc585d545b9dc","passed","","","","","","","","","","","","","","","","","ballFalling","322.3","296.07114317029976","371.46","3","fallScene","true","","","","","94","",""
"","","","","","html-keyboard-response","282","1469184","0.0-22.0-1.21","673f6c92a931906b3b255300","6796e1c0ff24ca17c453c51c","67c6b27217cdc585d545b9dc","passed","","2114","","","","","","","","","","","","","","f","yesOrNo","","","","3","","","mid","3000","","","94","321.3","300"
"","","","","","html-keyboard-response","283","1470678","0.0-22.0-0.22","673f6c92a931906b3b255300","6796e1c0ff24ca17c453c51c","67c6b27217cdc585d545b9dc","passed","","","","","","","","","","","","","","","","","ballFalling","604.4000000000001","667.6211431702998","201.78","9","fallScene","true","","","","","95","",""
"","","","","","html-keyboard-response","284","1473683","0.0-22.0-1.22","673f6c92a931906b3b255300","6796e1c0ff24ca17c453c51c","67c6b27217cdc585d545b9dc","passed","","1807","","","","","","","","","","","","","","f","yesOrNo","","","","9","","","lp","3000","","","95","605.4000000000001","151"
"","","","","","html-keyboard-response","285","1475236","0.0-22.0-0.23","673f6c92a931906b3b255300","6796e1c0ff24ca17c453c51c","67c6b27217cdc585d545b9dc","passed","","","","","","","","","","","","","","","","","ballFalling","604.4000000000001","650.0211431702996","404.58000000000004","11","fallScene","false","","","","","96","",""
"","","","","","html-keyboard-response","286","1478248","0.0-22.0-1.23","673f6c92a931906b3b255300","6796e1c0ff24ca17c453c51c","67c6b27217cdc585d545b9dc","passed","","1545","","","","","","","","","","","","","","f","yesOrNo","","","","11","","","lp","3000","","","96","605.4000000000001","372.6340973215488"
"","","","","","html-keyboard-response","287","1487856","0.0-23.0","673f6c92a931906b3b255300","6796e1c0ff24ca17c453c51c","67c6b27217cdc585d545b9dc","passed","","9604","","","","","","","","","","","","","<p><span style=""font-size:40px;"">BLOCK 5</span></p><p><span style=""font-size:25px;"">You have <b style=""color: #FF644F;""><strong>0.7 second(s)</strong></b> to respond to the following trials.</span><br></p><p></p> <!-- Blank line -->
                <p id=""blinking-text"" style=""font-weight; animation: blink 2s infinite;"">Press Space to continue</p>
                <style>
                    @keyframes blink {
                        50% {
                            opacity: 0;
                        }
                    }
                </style></p>"," ","","","","","","","","","","","","","",""
"","","","","","html-keyboard-response","288","1489867","0.0-24.0-0.0","673f6c92a931906b3b255300","6796e1c0ff24ca17c453c51c","67c6b27217cdc585d545b9dc","passed","","","","","","","","","","","","","","","","","ballFalling","604.4000000000001","596.8711431702998","394.5","10","fallScene","false","","","","","97","",""
"","","","","","html-keyboard-response","289","1490578","0.0-24.0-1.0","673f6c92a931906b3b255300","6796e1c0ff24ca17c453c51c","67c6b27217cdc585d545b9dc","passed","","518","","","","","","","","","","","","","","f","yesOrNo","","","","10","","","mid","700","","","97","536.4288568297004","300"
"","","","","","html-keyboard-response","290","1492114","0.0-24.0-0.1","673f6c92a931906b3b255300","6796e1c0ff24ca17c453c51c","67c6b27217cdc585d545b9dc","passed","","","","","","","","","","","","","","","","","ballFalling","322.3","296.07114317029976","371.46","3","fallScene","false","","","","","98","",""
"","","","","","html-keyboard-response","291","1492827","0.0-24.0-1.1","673f6c92a931906b3b255300","6796e1c0ff24ca17c453c51c","67c6b27217cdc585d545b9dc","passed","","487","","","","","","","","","","","","","","f","yesOrNo","","","","3","","","mid","700","","","98","321.3","300"
"","","","","","html-keyboard-response","292","1494382","0.0-24.0-0.2","673f6c92a931906b3b255300","6796e1c0ff24ca17c453c51c","67c6b27217cdc585d545b9dc","passed","","","","","","","","","","","","","","","","","ballFalling","604.4000000000001","650.0211431702996","404.58000000000004","11","fallScene","false","","","","","99","",""
"","","","","","html-keyboard-response","293","1495093","0.0-24.0-1.2","673f6c92a931906b3b255300","6796e1c0ff24ca17c453c51c","67c6b27217cdc585d545b9dc","passed","","468","","","","","","","","","","","","","","f","yesOrNo","","","","11","","","lp","700","","","99","605.4000000000001","372.6340973215488"
"","","","","","html-keyboard-response","294","1496581","0.0-24.0-0.3","673f6c92a931906b3b255300","6796e1c0ff24ca17c453c51c","67c6b27217cdc585d545b9dc","passed","","","","","","","","","","","","","","","","","ballFalling","604.4000000000001","667.6211431702998","201.78","9","fallScene","false","","","","","100","",""
"","","","","","html-keyboard-response","295","1497287","0.0-24.0-1.3","673f6c92a931906b3b255300","6796e1c0ff24ca17c453c51c","67c6b27217cdc585d545b9dc","passed","","661","","","","","","","","","","","","","","j","yesOrNo","","","","9","","","mid","700","","","100","605.4000000000001","300"
"","","","","","html-keyboard-response","296","1498847","0.0-24.0-0.4","673f6c92a931906b3b255300","6796e1c0ff24ca17c453c51c","67c6b27217cdc585d545b9dc","passed","","","","","","","","","","","","","","","","","ballFalling","322.3","296.07114317029976","371.46","3","fallScene","true","","","","","101","",""
"","","","","","html-keyboard-response","297","1499554","0.0-24.0-1.4","673f6c92a931906b3b255300","6796e1c0ff24ca17c453c51c","67c6b27217cdc585d545b9dc","passed","","null","","","","","","","","","","","","","","null","yesOrNo","","","","3","","","gt","700","","","101","296.07114317029976","371.46"
"","","","","","html-keyboard-response","298","1501562","0.0-24.0-0.5","673f6c92a931906b3b255300","6796e1c0ff24ca17c453c51c","67c6b27217cdc585d545b9dc","passed","","","","","","","","","","","","","","","","","ballFalling","500","510.8711431702997","369.03","8","fallScene","true","","","","","102","",""
"","","","","","html-keyboard-response","299","1502275","0.0-24.0-1.5","673f6c92a931906b3b255300","6796e1c0ff24ca17c453c51c","67c6b27217cdc585d545b9dc","passed","","588","","","","","","","","","","","","","","f","yesOrNo","","","","8","","","lp","700","","","102","501","151"
