"success","timeout","failed_images","failed_audio","failed_video","trial_type","trial_index","time_elapsed","internal_node_id","subject_id","study_id","session_id","practiceTestResult","view_history","rt","width","height","webaudio","browser","browser_version","mobile","os","fullscreen","vsync_rate","webcam","microphone","url","stimulus","response","task","ball_X","obstacle_groundTruth_x","obstacle_groundTruth_y","stimulus_idx","trial_name","flipped","choice","timeLimit","question_order","practiceTest","currentTrial","obstacle_choice_x","obstacle_choice_y"
"true","false","[]","[]","[]","preload","0","3021","0.0-0.0","6759fa50a9bb240e423de357","6796e1c0ff24ca17c453c51c","67c7195fafac60713890b448","passed","","","","","","","","","","","","","","","","","","","","","","","","","","","","","",""
"","","","","","instructions","1","9883","0.0-1.0","6759fa50a9bb240e423de357","6796e1c0ff24ca17c453c51c","67c7195fafac60713890b448","passed","[{""page_index"":0,""viewing_time"":6861}]","6861","","","","","","","","","","","","","","","","","","","","","","","","","","","",""
"","","","","","browser-check","2","10380","0.0-2.0","6759fa50a9bb240e423de357","6796e1c0ff24ca17c453c51c","67c7195fafac60713890b448","passed","","","1480","855","true","chrome","131.0.0","false","Mac OS","true","121.73","true","true","","","","","","","","","","","","","","","","",""
"","","","","","external-html","3","14512","0.0-3.0","6759fa50a9bb240e423de357","6796e1c0ff24ca17c453c51c","67c7195fafac60713890b448","passed","","3783","","","","","","","","","","","","consent.html","","","","","","","","","","","","","","","",""
"true","","","","","fullscreen","4","16426","0.0-4.0","6759fa50a9bb240e423de357","6796e1c0ff24ca17c453c51c","67c7195fafac60713890b448","passed","","1611","","","","","","","","","","","","","","","","","","","","","","","","","","","",""
"","","","","","browser-check","5","16925","0.0-5.0","6759fa50a9bb240e423de357","6796e1c0ff24ca17c453c51c","67c7195fafac60713890b448","passed","","","1728","1080","true","chrome","131.0.0","false","Mac OS","true","120.65","true","true","","","","","","","","","","","","","","","","",""
"","","","","","html-keyboard-response","6","20288","0.0-6.0","6759fa50a9bb240e423de357","6796e1c0ff24ca17c453c51c","67c7195fafac60713890b448","passed","","3363","","","","","","","","","","","","","<p><b>This experiment requires keyboard input.</b></p> 
        <p><b>To ensure your response will be recorded successfully, please press 'Space' to continue.</b></p>
        <p>If you can't proceed, you won't be able to complete this study.</p>
        <p></p> <!-- Blank line -->
        <p id=""blinking-text"" style=""font-weight; animation: blink 2s infinite;"">Press Space to continue</p>
        <style>
            @keyframes blink {
                50% {
                    opacity: 0;
                }
            }
        </style>"," ","","","","","","","","","","","","","",""
"","","","","","html-keyboard-response","7","24092","0.0-7.0","6759fa50a9bb240e423de357","6796e1c0ff24ca17c453c51c","67c7195fafac60713890b448","passed","","3802","","","","","","","","","","","","","<p><b>This experiment requires keyboard input.</b></p> 
        <p><b>To ensure your response will be recorded successfully, please press the 'f' key to continue.</b></p>
        <p>If you can't proceed, you won't be able to complete this study.</p>
        <p></p> <!-- Blank line -->
        <p id=""blinking-text"" style=""font-weight; animation: blink 2s infinite;"">Press f to continue</p>
        <style>
            @keyframes blink {
                50% {
                    opacity: 0;
                }
            }
        </style>","f","","","","","","","","","","","","","",""
"","","","","","html-keyboard-response","8","26499","0.0-8.0","6759fa50a9bb240e423de357","6796e1c0ff24ca17c453c51c","67c7195fafac60713890b448","passed","","2407","","","","","","","","","","","","","<p><b>This experiment requires keyboard input.</b></p> 
        <p><b>To ensure your response will be recorded successfully, please press the 'j' key to continue.</b></p>
        <p>If you can't proceed, you won't be able to complete this study.</p>
        <p></p> <!-- Blank line -->
        <p id=""blinking-text"" style=""font-weight; animation: blink 2s infinite;"">Press j to continue</p>
        <style>
            @keyframes blink {
                50% {
                    opacity: 0;
                }
            }
        </style>","j","","","","","","","","","","","","","",""
"","","","","","browser-check","9","27005","0.0-9.0","6759fa50a9bb240e423de357","6796e1c0ff24ca17c453c51c","67c7195fafac60713890b448","passed","","","1728","1080","true","chrome","131.0.0","false","Mac OS","true","119.93","true","true","","","","","","","","","","","","","","","","",""
"","","","","","survey-text","10","29956","0.0-10.0","6759fa50a9bb240e423de357","6796e1c0ff24ca17c453c51c","67c7195fafac60713890b448","passed","","2943","","","","","","","","","","","","","","{""prolificID"":""6759fa50a9bb240e423de357""}","","","","","","","","","","","","","",""
"","","","","","instructions","11","93856","0.0-11.0-0.0-0.0","6759fa50a9bb240e423de357","6796e1c0ff24ca17c453c51c","67c7195fafac60713890b448","passed","[{""page_index"":0,""viewing_time"":39326},{""page_index"":1,""viewing_time"":7742},{""page_index"":2,""viewing_time"":9982},{""page_index"":3,""viewing_time"":6850}]","63900","","","","","","","","","","","","","","","","","","","","","","","","","","","",""
"","","","","","html-keyboard-response","12","109820","0.0-11.0-0.0-1.0","6759fa50a9bb240e423de357","6796e1c0ff24ca17c453c51c","67c7195fafac60713890b448","passed","","15458","","","","","","","","","","","","","<br>Remember! After a ball falls, the screen will disappear, and you'll decide if the proposed position is where the hidden triangle was. <br>You will now practice this by watching a few videos and making decisions.<p>To respond:<br style=""margin-bottom: 5px; text-indent: -20px; padding-left: 20px;"">- Press <b style=""color: #12AD2B;"">J for Yes</b>, if you think the triangle is in the correct position.<br style=""margin-top: 0; text-indent: -20px; padding-left: 20px;"">- Press <b style=""color: orange;"">F for No</b>, if you think the triangle is not in the correct position.</p><p>In this practice round, there is no time limit. Focus on getting comfortable with the task first.<br>Press either J or F to begin your practice trials.</p><img src = ""YesOrNo_instruction.png"" style=""width: 65%;""></img>","j","","","","","","","","","","","","","",""
"","","","","","html-keyboard-response","13","111271","0.0-11.0-0.0-2.0-0.0","6759fa50a9bb240e423de357","6796e1c0ff24ca17c453c51c","67c7195fafac60713890b448","passed","","","","","","","","","","","","","","","","","ballFalling_prac","416","464","296","1","fallScene","false","","","","","","",""
"","","","","","html-keyboard-response","14","113209","0.0-11.0-0.0-2.0-1.0","6759fa50a9bb240e423de357","6796e1c0ff24ca17c453c51c","67c7195fafac60713890b448","passed","","1934","","","","","","","","","","","","","","j","yesOrNo_prac_noTimed","","","","1","","","gt","NA","","","","",""
"","","","","","html-keyboard-response","15","114779","0.0-11.0-0.0-2.0-0.1","6759fa50a9bb240e423de357","6796e1c0ff24ca17c453c51c","67c7195fafac60713890b448","passed","","","","","","","","","","","","","","","","","ballFalling_prac","441","414","302","5","fallScene","true","","","","","","",""
"","","","","","html-keyboard-response","16","116062","0.0-11.0-0.0-2.0-1.1","6759fa50a9bb240e423de357","6796e1c0ff24ca17c453c51c","67c7195fafac60713890b448","passed","","1282","","","","","","","","","","","","","","j","yesOrNo_prac_noTimed","","","","5","","","close gt","NA","","","","",""
"","","","","","html-keyboard-response","17","118163","0.0-11.0-0.0-2.0-0.2","6759fa50a9bb240e423de357","6796e1c0ff24ca17c453c51c","67c7195fafac60713890b448","passed","","","","","","","","","","","","","","","","","ballFalling_prac","660","666","350","3","fallScene","false","","","","","","",""
"","","","","","html-keyboard-response","18","120274","0.0-11.0-0.0-2.0-1.2","6759fa50a9bb240e423de357","6796e1c0ff24ca17c453c51c","67c7195fafac60713890b448","passed","","2106","","","","","","","","","","","","","","j","yesOrNo_prac_noTimed","","","","3","","","wrong direction","NA","","","","",""
"","","","","","instructions","19","147374","0.0-11.0-0.0-3.0","6759fa50a9bb240e423de357","6796e1c0ff24ca17c453c51c","67c7195fafac60713890b448","passed","[{""page_index"":0,""viewing_time"":14365},{""page_index"":1,""viewing_time"":12733}]","27099","","","","","","","","","","","","","","","","","","","","","","","","","","","",""
"","","","","","html-button-response","20","152860","0.0-11.0-0.0-4.0","6759fa50a9bb240e423de357","6796e1c0ff24ca17c453c51c","67c7195fafac60713890b448","passed","","4985","","","","","","","","","","","","","<p>To make sure you understood the task, we just have a <b>brief quiz</b> here.</p><p>If you need to review the instructions, click 'Previous'.</p><p>It's important to understand the task to do the study, so you have to pass the quiz to move to the study.</p>","1","","","","","","","","","","","","","",""
"","","","","","survey-multi-choice","21","170453","0.0-11.0-1.0-0.0","6759fa50a9bb240e423de357","6796e1c0ff24ca17c453c51c","67c7195fafac60713890b448","passed","","17592","","","","","","","","","","","","","","{""generalProcedure"":""Watch a video of a ball falling, some of it behind a gray screen. After each video, decide if the triangle is at the spot where the ball hit the triangle behind the screen. There is time limit for the response.""}","","","","","","","","","","[0]","","","",""
"","","","","","survey-multi-choice","22","174749","0.0-11.0-1.0-1.0","6759fa50a9bb240e423de357","6796e1c0ff24ca17c453c51c","67c7195fafac60713890b448","passed","","4294","","","","","","","","","","","","","","{""checkBallHitObstacle"":""Yes.""}","","","","","","","","","","[0]","","","",""
"","","","","","survey-multi-choice","23","178674","0.0-11.0-1.0-2.0","6759fa50a9bb240e423de357","6796e1c0ff24ca17c453c51c","67c7195fafac60713890b448","passed","","3923","","","","","","","","","","","","","","{""checkTriangleVisibility"":""No, the triangle is hidden behind the gray screen.""}","","","","","","","","","","[0]","","","",""
"","","","","","survey-multi-choice","24","186332","0.0-11.0-1.0-3.0","6759fa50a9bb240e423de357","6796e1c0ff24ca17c453c51c","67c7195fafac60713890b448","passed","","7657","","","","","","","","","","","","","","{""checkTimedResponse"":""Your response will not be recorded, and the trial will move to the next one.""}","","","","","","","","","","[0]","","","",""
"","","","","","survey-multi-choice","25","192561","0.0-11.0-1.0-4.0","6759fa50a9bb240e423de357","6796e1c0ff24ca17c453c51c","67c7195fafac60713890b448","passed","","6228","","","","","","","","","","","","","","{""checkTimeBlockNotice"":""At the beginning of each block.""}","","","","","","","","","","[0]","","","",""
"","","","","","survey-multi-choice","26","198406","0.0-11.0-1.0-5.0","6759fa50a9bb240e423de357","6796e1c0ff24ca17c453c51c","67c7195fafac60713890b448","passed","","5844","","","","","","","","","","","","","","{""checkTimeBlockSameness"":""Yes, the time limit is the same for all trials within a block.""}","","","","","","","","","","[0]","","","",""
"","","","","","survey-multi-choice","27","214224","0.0-11.0-1.0-6.0","6759fa50a9bb240e423de357","6796e1c0ff24ca17c453c51c","67c7195fafac60713890b448","passed","","15817","","","","","","","","","","","","","","{""checkTrianglePrecision"":""No. The proposed purple triangle is not in the correct position because it doesn't match the location of the white triangle exactly.""}","","","","","","","","","","[0]","","","",""
"","","","","","instructions","28","235215","0.0-12.0","6759fa50a9bb240e423de357","6796e1c0ff24ca17c453c51c","67c7195fafac60713890b448","passed","[{""page_index"":0,""viewing_time"":2340},{""page_index"":1,""viewing_time"":5925},{""page_index"":2,""viewing_time"":5837},{""page_index"":3,""viewing_time"":6888}]","20990","","","","","","","","","","","","","","","","","","","","","","","","","","","",""
"","","","","","instructions","29","245982","0.0-13.0-0.0","6759fa50a9bb240e423de357","6796e1c0ff24ca17c453c51c","67c7195fafac60713890b448","passed","[{""page_index"":0,""viewing_time"":10766}]","10766","","","","","","","","","","","","","","","","","","","","","","","","","","","",""
"","","","","","html-keyboard-response","30","248549","0.0-13.0-1.0","6759fa50a9bb240e423de357","6796e1c0ff24ca17c453c51c","67c7195fafac60713890b448","passed","","2566","","","","","","","","","","","","","<p><span style=""font-size:40px;"">Practice BLOCK 1</span></p><p><span style=""font-size:25px;"">You have <b style=""color: #FF644F;""><strong>3 second(s)</strong></b> to respond to the following trials.</span><br></p><p id=""blinking-text"" style=""font-weight; animation: blink 2s infinite;"">Press Space to continue</p><style>
                    @keyframes blink {
                        50% {
                            opacity: 0;
                        }
                    }
                </style>"," ","","","","","","","","","","","","","",""
"","","","","","html-keyboard-response","31","250100","0.0-13.0-2.0-0.0","6759fa50a9bb240e423de357","6796e1c0ff24ca17c453c51c","67c7195fafac60713890b448","passed","","","","","","","","","","","","","","","","","ballFalling_prac","584","536","296","1","fallScene","true","","","","","","",""
"","","","","","html-keyboard-response","32","253104","0.0-13.0-2.0-1.0","6759fa50a9bb240e423de357","6796e1c0ff24ca17c453c51c","67c7195fafac60713890b448","passed","","1746","","","","","","","","","","","","","","f","yesOrNo_prac","","","","1","","","close gt","3000","","","","",""
"","","","","","html-keyboard-response","33","254668","0.0-13.0-2.0-0.1","6759fa50a9bb240e423de357","6796e1c0ff24ca17c453c51c","67c7195fafac60713890b448","passed","","","","","","","","","","","","","","","","","ballFalling_prac","416","464","296","1","fallScene","false","","","","","","",""
"","","","","","html-keyboard-response","34","257670","0.0-13.0-2.0-1.1","6759fa50a9bb240e423de357","6796e1c0ff24ca17c453c51c","67c7195fafac60713890b448","passed","","1913","","","","","","","","","","","","","","j","yesOrNo_prac","","","","1","","","far gt","3000","","","","",""
"","","","","","html-keyboard-response","35","259262","0.0-13.0-2.0-0.2","6759fa50a9bb240e423de357","6796e1c0ff24ca17c453c51c","67c7195fafac60713890b448","passed","","","","","","","","","","","","","","","","","ballFalling_prac","660","610","263","4","fallScene","false","","","","","","",""
"","","","","","html-keyboard-response","36","262265","0.0-13.0-2.0-1.2","6759fa50a9bb240e423de357","6796e1c0ff24ca17c453c51c","67c7195fafac60713890b448","passed","","1347","","","","","","","","","","","","","","f","yesOrNo_prac","","","","4","","","gt","3000","","","","",""
"","","","","","html-keyboard-response","37","264590","0.0-13.0-3.0","6759fa50a9bb240e423de357","6796e1c0ff24ca17c453c51c","67c7195fafac60713890b448","passed","","2324","","","","","","","","","","","","","<p><span style=""font-size:40px;"">Practice BLOCK 2</span></p><p><span style=""font-size:25px;"">You have <b style=""color: #FF644F;""><strong>0.7 second(s)</strong></b> to respond to the following trials.</span><br></p><p id=""blinking-text"" style=""font-weight; animation: blink 2s infinite;"">Press Space to continue</p><style>
                    @keyframes blink {
                        50% {
                            opacity: 0;
                        }
                    }
                </style>"," ","","","","","","","","","","","","","",""
"","","","","","html-keyboard-response","38","266158","0.0-13.0-4.0-0.0","6759fa50a9bb240e423de357","6796e1c0ff24ca17c453c51c","67c7195fafac60713890b448","passed","","","","","","","","","","","","","","","","","ballFalling_prac","660","610","263","4","fallScene","false","","","","","","",""
"","","","","","html-keyboard-response","39","266861","0.0-13.0-4.0-1.0","6759fa50a9bb240e423de357","6796e1c0ff24ca17c453c51c","67c7195fafac60713890b448","passed","","null","","","","","","","","","","","","","","null","yesOrNo_prac","","","","4","","","far gt","700","","","","",""
"","","","","","html-keyboard-response","40","268415","0.0-13.0-4.0-0.1","6759fa50a9bb240e423de357","6796e1c0ff24ca17c453c51c","67c7195fafac60713890b448","passed","","","","","","","","","","","","","","","","","ballFalling_prac","441","500","317","6","fallScene","true","","","","","","",""
"","","","","","html-keyboard-response","41","269120","0.0-13.0-4.0-1.1","6759fa50a9bb240e423de357","6796e1c0ff24ca17c453c51c","67c7195fafac60713890b448","passed","","null","","","","","","","","","","","","","","null","yesOrNo_prac","","","","6","","","gt","700","","","","",""
"","","","","","html-keyboard-response","42","271210","0.0-13.0-4.0-0.2","6759fa50a9bb240e423de357","6796e1c0ff24ca17c453c51c","67c7195fafac60713890b448","passed","","","","","","","","","","","","","","","","","ballFalling_prac","340","334","350","3","fallScene","true","","","","","","",""
"","","","","","html-keyboard-response","43","271915","0.0-13.0-4.0-1.2","6759fa50a9bb240e423de357","6796e1c0ff24ca17c453c51c","67c7195fafac60713890b448","passed","","null","","","","","","","","","","","","","","null","yesOrNo_prac","","","","3","","","close gt","700","","","","",""
"","","","","","instructions","44","279623","0.0-13.0-5.0","6759fa50a9bb240e423de357","6796e1c0ff24ca17c453c51c","67c7195fafac60713890b448","passed","[{""page_index"":0,""viewing_time"":7708}]","7708","","","","","","","","","","","","","","","","","","","","","","","","","","","",""
"","","","","","html-keyboard-response","45","280953","0.0-13.0-6.0","6759fa50a9bb240e423de357","6796e1c0ff24ca17c453c51c","67c7195fafac60713890b448","passed","","1329","","","","","","","","","","","","","<p><span style=""font-size:40px;"">Practice Test BLOCK 1</span></p><p><span style=""font-size:25px;"">You have <b style=""color: #FF644F;""><strong>0.7 second(s)</strong></b> to respond to the following trials.</span><br></p><p id=""blinking-text"" style=""font-weight; animation: blink 2s infinite;"">Press Space to continue</p><style>
                    @keyframes blink {
                        50% {
                            opacity: 0;
                        }
                    }
                </style>"," ","","","","","","","","","","","","","",""
"","","","","","html-keyboard-response","46","282512","0.0-13.0-7.0-0.0","6759fa50a9bb240e423de357","6796e1c0ff24ca17c453c51c","67c7195fafac60713890b448","passed","","","","","","","","","","","","","","","","","ballFalling_prac","340","390","263","4","fallScene","true","","","","","","",""
"","","","","","html-keyboard-response","47","283216","0.0-13.0-7.0-1.0","6759fa50a9bb240e423de357","6796e1c0ff24ca17c453c51c","67c7195fafac60713890b448","passed","","null","","","","","","","","","","","","","","null","yesOrNo_prac","","","","4","","","far gt","700","","","","",""
"","","","","","html-keyboard-response","48","284787","0.0-13.0-7.0-0.1","6759fa50a9bb240e423de357","6796e1c0ff24ca17c453c51c","67c7195fafac60713890b448","passed","","","","","","","","","","","","","","","","","ballFalling_prac","441","500","317","6","fallScene","true","","","","","","",""
"","","","","","html-keyboard-response","49","285489","0.0-13.0-7.0-1.1","6759fa50a9bb240e423de357","6796e1c0ff24ca17c453c51c","67c7195fafac60713890b448","passed","","null","","","","","","","","","","","","","","null","yesOrNo_prac","","","","6","","","close gt","700","","","","",""
"","","","","","html-keyboard-response","50","287063","0.0-13.0-7.0-0.2","6759fa50a9bb240e423de357","6796e1c0ff24ca17c453c51c","67c7195fafac60713890b448","passed","","","","","","","","","","","","","","","","","ballFalling_prac","559","586","302","5","fallScene","false","","","","","","",""
"","","","","","html-keyboard-response","51","287768","0.0-13.0-7.0-1.2","6759fa50a9bb240e423de357","6796e1c0ff24ca17c453c51c","67c7195fafac60713890b448","passed","","null","","","","","","","","","","","","","","null","yesOrNo_prac","","","","5","","","gt","700","","","","",""
"","","","","","html-keyboard-response","52","289452","0.0-13.0-8.0","6759fa50a9bb240e423de357","6796e1c0ff24ca17c453c51c","67c7195fafac60713890b448","passed","","1683","","","","","","","","","","","","","<p><span style=""font-size:40px;"">Practice Test BLOCK 2</span></p><p><span style=""font-size:25px;"">You have <b style=""color: #FF644F;""><strong>3 second(s)</strong></b> to respond to the following trials.</span><br></p><p id=""blinking-text"" style=""font-weight; animation: blink 2s infinite;"">Press Space to continue</p><style>
                    @keyframes blink {
                        50% {
                            opacity: 0;
                        }
                    }
                </style>"," ","","","","","","","","","","","","","",""
"","","","","","html-keyboard-response","53","291021","0.0-13.0-9.0-0.0","6759fa50a9bb240e423de357","6796e1c0ff24ca17c453c51c","67c7195fafac60713890b448","passed","","","","","","","","","","","","","","","","","ballFalling_prac","416","365","249","2","fallScene","false","","","","","","",""
"","","","","","html-keyboard-response","54","294027","0.0-13.0-9.0-1.0","6759fa50a9bb240e423de357","6796e1c0ff24ca17c453c51c","67c7195fafac60713890b448","passed","","753","","","","","","","","","","","","","","f","yesOrNo_prac","","","","2","","","gt","3000","","","","",""
"","","","","","html-keyboard-response","55","295597","0.0-13.0-9.0-0.1","6759fa50a9bb240e423de357","6796e1c0ff24ca17c453c51c","67c7195fafac60713890b448","passed","","","","","","","","","","","","","","","","","ballFalling_prac","340","390","263","4","fallScene","true","","","","","","",""
"","","","","","html-keyboard-response","56","298600","0.0-13.0-9.0-1.1","6759fa50a9bb240e423de357","6796e1c0ff24ca17c453c51c","67c7195fafac60713890b448","passed","","952","","","","","","","","","","","","","","j","yesOrNo_prac","","","","4","","","close gt","3000","","","","",""
"","","","","","html-keyboard-response","57","300165","0.0-13.0-9.0-0.2","6759fa50a9bb240e423de357","6796e1c0ff24ca17c453c51c","67c7195fafac60713890b448","passed","","","","","","","","","","","","","","","","","ballFalling_prac","559","586","302","5","fallScene","false","","","","","","",""
"","","","","","html-keyboard-response","58","303169","0.0-13.0-9.0-1.2","6759fa50a9bb240e423de357","6796e1c0ff24ca17c453c51c","67c7195fafac60713890b448","passed","","1553","","","","","","","","","","","","","","f","yesOrNo_prac","","","","5","","","far gt","3000","","","","",""
"","","","","","html-button-response","59","305885","0.0-13.0-10.0-0.0","6759fa50a9bb240e423de357","6796e1c0ff24ca17c453c51c","67c7195fafac60713890b448","passed","","2714","","","","","","","","","","","","","<p>Oops! You did not pass the practice test. You missed 3 out of 6 trials.</p><p>You will now repeat the practice and the test.</p>","0","","","","","","","","","","","failed","","",""
"","","","","","instructions","60","307022","0.0-13.1-0.1","6759fa50a9bb240e423de357","6796e1c0ff24ca17c453c51c","67c7195fafac60713890b448","passed","[{""page_index"":0,""viewing_time"":1137}]","1137","","","","","","","","","","","","","","","","","","","","","","","","","","","",""
"","","","","","html-keyboard-response","61","308598","0.0-13.1-1.1","6759fa50a9bb240e423de357","6796e1c0ff24ca17c453c51c","67c7195fafac60713890b448","passed","","1575","","","","","","","","","","","","","<p><span style=""font-size:40px;"">Practice BLOCK 1</span></p><p><span style=""font-size:25px;"">You have <b style=""color: #FF644F;""><strong>3 second(s)</strong></b> to respond to the following trials.</span><br></p><p id=""blinking-text"" style=""font-weight; animation: blink 2s infinite;"">Press Space to continue</p><style>
                    @keyframes blink {
                        50% {
                            opacity: 0;
                        }
                    }
                </style>"," ","","","","","","","","","","","","","",""
"","","","","","html-keyboard-response","62","310162","0.0-13.1-2.1-0.3","6759fa50a9bb240e423de357","6796e1c0ff24ca17c453c51c","67c7195fafac60713890b448","passed","","","","","","","","","","","","","","","","","ballFalling_prac","416","464","296","1","fallScene","false","","","","","","",""
"","","","","","html-keyboard-response","63","313164","0.0-13.1-2.1-1.3","6759fa50a9bb240e423de357","6796e1c0ff24ca17c453c51c","67c7195fafac60713890b448","passed","","681","","","","","","","","","","","","","","j","yesOrNo_prac","","","","1","","","far gt","3000","","","","",""
"","","","","","html-keyboard-response","64","314721","0.0-13.1-2.1-0.4","6759fa50a9bb240e423de357","6796e1c0ff24ca17c453c51c","67c7195fafac60713890b448","passed","","","","","","","","","","","","","","","","","ballFalling_prac","584","536","296","1","fallScene","true","","","","","","",""
"","","","","","html-keyboard-response","65","317726","0.0-13.1-2.1-1.4","6759fa50a9bb240e423de357","6796e1c0ff24ca17c453c51c","67c7195fafac60713890b448","passed","","953","","","","","","","","","","","","","","f","yesOrNo_prac","","","","1","","","close gt","3000","","","","",""
"","","","","","html-keyboard-response","66","319308","0.0-13.1-2.1-0.5","6759fa50a9bb240e423de357","6796e1c0ff24ca17c453c51c","67c7195fafac60713890b448","passed","","","","","","","","","","","","","","","","","ballFalling_prac","660","610","263","4","fallScene","false","","","","","","",""
"","","","","","html-keyboard-response","67","322312","0.0-13.1-2.1-1.5","6759fa50a9bb240e423de357","6796e1c0ff24ca17c453c51c","67c7195fafac60713890b448","passed","","2010","","","","","","","","","","","","","","j","yesOrNo_prac","","","","4","","","gt","3000","","","","",""
"","","","","","html-keyboard-response","68","324226","0.0-13.1-3.1","6759fa50a9bb240e423de357","6796e1c0ff24ca17c453c51c","67c7195fafac60713890b448","passed","","1913","","","","","","","","","","","","","<p><span style=""font-size:40px;"">Practice BLOCK 2</span></p><p><span style=""font-size:25px;"">You have <b style=""color: #FF644F;""><strong>0.7 second(s)</strong></b> to respond to the following trials.</span><br></p><p id=""blinking-text"" style=""font-weight; animation: blink 2s infinite;"">Press Space to continue</p><style>
                    @keyframes blink {
                        50% {
                            opacity: 0;
                        }
                    }
                </style>"," ","","","","","","","","","","","","","",""
"","","","","","html-keyboard-response","69","325824","0.0-13.1-4.1-0.3","6759fa50a9bb240e423de357","6796e1c0ff24ca17c453c51c","67c7195fafac60713890b448","passed","","","","","","","","","","","","","","","","","ballFalling_prac","660","610","263","4","fallScene","false","","","","","","",""
"","","","","","html-keyboard-response","70","326526","0.0-13.1-4.1-1.3","6759fa50a9bb240e423de357","6796e1c0ff24ca17c453c51c","67c7195fafac60713890b448","passed","","null","","","","","","","","","","","","","","null","yesOrNo_prac","","","","4","","","far gt","700","","","","",""
"","","","","","html-keyboard-response","71","328649","0.0-13.1-4.1-0.4","6759fa50a9bb240e423de357","6796e1c0ff24ca17c453c51c","67c7195fafac60713890b448","passed","","","","","","","","","","","","","","","","","ballFalling_prac","340","334","350","3","fallScene","true","","","","","","",""
"","","","","","html-keyboard-response","72","329354","0.0-13.1-4.1-1.4","6759fa50a9bb240e423de357","6796e1c0ff24ca17c453c51c","67c7195fafac60713890b448","passed","","null","","","","","","","","","","","","","","null","yesOrNo_prac","","","","3","","","close gt","700","","","","",""
"","","","","","html-keyboard-response","73","330908","0.0-13.1-4.1-0.5","6759fa50a9bb240e423de357","6796e1c0ff24ca17c453c51c","67c7195fafac60713890b448","passed","","","","","","","","","","","","","","","","","ballFalling_prac","441","500","317","6","fallScene","true","","","","","","",""
"","","","","","html-keyboard-response","74","331611","0.0-13.1-4.1-1.5","6759fa50a9bb240e423de357","6796e1c0ff24ca17c453c51c","67c7195fafac60713890b448","passed","","null","","","","","","","","","","","","","","null","yesOrNo_prac","","","","6","","","gt","700","","","","",""
"","","","","","instructions","75","335215","0.0-13.1-5.1","6759fa50a9bb240e423de357","6796e1c0ff24ca17c453c51c","67c7195fafac60713890b448","passed","[{""page_index"":0,""viewing_time"":3602}]","3603","","","","","","","","","","","","","","","","","","","","","","","","","","","",""
"","","","","","html-keyboard-response","76","336815","0.0-13.1-6.1","6759fa50a9bb240e423de357","6796e1c0ff24ca17c453c51c","67c7195fafac60713890b448","passed","","1599","","","","","","","","","","","","","<p><span style=""font-size:40px;"">Practice Test BLOCK 1</span></p><p><span style=""font-size:25px;"">You have <b style=""color: #FF644F;""><strong>0.7 second(s)</strong></b> to respond to the following trials.</span><br></p><p id=""blinking-text"" style=""font-weight; animation: blink 2s infinite;"">Press Space to continue</p><style>
                    @keyframes blink {
                        50% {
                            opacity: 0;
                        }
                    }
                </style>"," ","","","","","","","","","","","","","",""
"","","","","","html-keyboard-response","77","338395","0.0-13.1-7.1-0.3","6759fa50a9bb240e423de357","6796e1c0ff24ca17c453c51c","67c7195fafac60713890b448","passed","","","","","","","","","","","","","","","","","ballFalling_prac","559","586","302","5","fallScene","false","","","","","","",""
"","","","","","html-keyboard-response","78","339098","0.0-13.1-7.1-1.3","6759fa50a9bb240e423de357","6796e1c0ff24ca17c453c51c","67c7195fafac60713890b448","passed","","null","","","","","","","","","","","","","","null","yesOrNo_prac","","","","5","","","gt","700","","","","",""
"","","","","","html-keyboard-response","79","340674","0.0-13.1-7.1-0.4","6759fa50a9bb240e423de357","6796e1c0ff24ca17c453c51c","67c7195fafac60713890b448","passed","","","","","","","","","","","","","","","","","ballFalling_prac","340","390","263","4","fallScene","true","","","","","","",""
"","","","","","html-keyboard-response","80","341375","0.0-13.1-7.1-1.4","6759fa50a9bb240e423de357","6796e1c0ff24ca17c453c51c","67c7195fafac60713890b448","passed","","611","","","","","","","","","","","","","","j","yesOrNo_prac","","","","4","","","far gt","700","","","","",""
"","","","","","html-keyboard-response","81","342941","0.0-13.1-7.1-0.5","6759fa50a9bb240e423de357","6796e1c0ff24ca17c453c51c","67c7195fafac60713890b448","passed","","","","","","","","","","","","","","","","","ballFalling_prac","441","500","317","6","fallScene","true","","","","","","",""
"","","","","","html-keyboard-response","82","343643","0.0-13.1-7.1-1.5","6759fa50a9bb240e423de357","6796e1c0ff24ca17c453c51c","67c7195fafac60713890b448","passed","","488","","","","","","","","","","","","","","j","yesOrNo_prac","","","","6","","","close gt","700","","","","",""
"","","","","","html-keyboard-response","83","346748","0.0-13.1-8.1","6759fa50a9bb240e423de357","6796e1c0ff24ca17c453c51c","67c7195fafac60713890b448","passed","","3102","","","","","","","","","","","","","<p><span style=""font-size:40px;"">Practice Test BLOCK 2</span></p><p><span style=""font-size:25px;"">You have <b style=""color: #FF644F;""><strong>3 second(s)</strong></b> to respond to the following trials.</span><br></p><p id=""blinking-text"" style=""font-weight; animation: blink 2s infinite;"">Press Space to continue</p><style>
                    @keyframes blink {
                        50% {
                            opacity: 0;
                        }
                    }
                </style>"," ","","","","","","","","","","","","","",""
"","","","","","html-keyboard-response","84","348345","0.0-13.1-9.1-0.3","6759fa50a9bb240e423de357","6796e1c0ff24ca17c453c51c","67c7195fafac60713890b448","passed","","","","","","","","","","","","","","","","","ballFalling_prac","340","390","263","4","fallScene","true","","","","","","",""
"","","","","","html-keyboard-response","85","351348","0.0-13.1-9.1-1.3","6759fa50a9bb240e423de357","6796e1c0ff24ca17c453c51c","67c7195fafac60713890b448","passed","","896","","","","","","","","","","","","","","f","yesOrNo_prac","","","","4","","","close gt","3000","","","","",""
"","","","","","html-keyboard-response","86","352925","0.0-13.1-9.1-0.4","6759fa50a9bb240e423de357","6796e1c0ff24ca17c453c51c","67c7195fafac60713890b448","passed","","","","","","","","","","","","","","","","","ballFalling_prac","416","365","249","2","fallScene","false","","","","","","",""
"","","","","","html-keyboard-response","87","355927","0.0-13.1-9.1-1.4","6759fa50a9bb240e423de357","6796e1c0ff24ca17c453c51c","67c7195fafac60713890b448","passed","","1194","","","","","","","","","","","","","","j","yesOrNo_prac","","","","2","","","gt","3000","","","","",""
"","","","","","html-keyboard-response","88","357502","0.0-13.1-9.1-0.5","6759fa50a9bb240e423de357","6796e1c0ff24ca17c453c51c","67c7195fafac60713890b448","passed","","","","","","","","","","","","","","","","","ballFalling_prac","559","586","302","5","fallScene","false","","","","","","",""
"","","","","","html-keyboard-response","89","360506","0.0-13.1-9.1-1.5","6759fa50a9bb240e423de357","6796e1c0ff24ca17c453c51c","67c7195fafac60713890b448","passed","","1233","","","","","","","","","","","","","","f","yesOrNo_prac","","","","5","","","far gt","3000","","","","",""
"","","","","","instructions","90","369761","0.0-14.0","6759fa50a9bb240e423de357","6796e1c0ff24ca17c453c51c","67c7195fafac60713890b448","passed","[{""page_index"":0,""viewing_time"":9252}]","9253","","","","","","","","","","","","","","","","","","","","","","","","","","","",""
"","","","","","html-keyboard-response","91","370917","0.0-15.0","6759fa50a9bb240e423de357","6796e1c0ff24ca17c453c51c","67c7195fafac60713890b448","passed","","1156","","","","","","","","","","","","","<p><span style=""font-size:40px;"">BLOCK 1</span></p><p><span style=""font-size:25px;"">You have <b style=""color: #FF644F;""><strong>3 second(s)</strong></b> to respond to the following trials.</span><br></p><p></p> <!-- Blank line -->
                <p id=""blinking-text"" style=""font-weight; animation: blink 2s infinite;"">Press Space to continue</p>
                <style>
                    @keyframes blink {
                        50% {
                            opacity: 0;
                        }
                    }
                </style></p>"," ","","","","","","","","","","","","","",""
"","","","","","html-keyboard-response","92","372471","0.0-16.0-0.0","6759fa50a9bb240e423de357","6796e1c0ff24ca17c453c51c","67c7195fafac60713890b448","passed","","","","","","","","","","","","","","","","","ballFalling","322.3","379.3711431702997","245.25","1","fallScene","true","","","","","1","",""
"","","","","","html-keyboard-response","93","375476","0.0-16.0-1.0","6759fa50a9bb240e423de357","6796e1c0ff24ca17c453c51c","67c7195fafac60713890b448","passed","","1263","","","","","","","","","","","","","","f","yesOrNo","","","","1","","","mid","3000","","","1","390.27114317029975","300"
"","","","","","html-keyboard-response","94","377050","0.0-16.0-0.1","6759fa50a9bb240e423de357","6796e1c0ff24ca17c453c51c","67c7195fafac60713890b448","passed","","","","","","","","","","","","","","","","","ballFalling","604.4000000000001","650.0211431702996","404.58000000000004","11","fallScene","false","","","","","2","",""
"","","","","","html-keyboard-response","95","380052","0.0-16.0-1.1","6759fa50a9bb240e423de357","6796e1c0ff24ca17c453c51c","67c7195fafac60713890b448","passed","","2366","","","","","","","","","","","","","","f","yesOrNo","","","","11","","","lp","3000","","","2","605.4000000000001","372.6340973215488"
"","","","","","html-keyboard-response","96","382061","0.0-16.0-0.2","6759fa50a9bb240e423de357","6796e1c0ff24ca17c453c51c","67c7195fafac60713890b448","passed","","","","","","","","","","","","","","","","","ballFalling","604.4000000000001","596.8711431702998","394.5","10","fallScene","true","","","","","3","",""
"","","","","","html-keyboard-response","97","385064","0.0-16.0-1.2","6759fa50a9bb240e423de357","6796e1c0ff24ca17c453c51c","67c7195fafac60713890b448","passed","","2047","","","","","","","","","","","","","","j","yesOrNo","","","","10","","","lp","3000","","","3","603.4000000000001","215.50214355555383"
"","","","","","html-keyboard-response","98","387066","0.0-16.0-0.3","6759fa50a9bb240e423de357","6796e1c0ff24ca17c453c51c","67c7195fafac60713890b448","passed","","","","","","","","","","","","","","","","","ballFalling","604.4000000000001","596.8711431702998","394.5","10","fallScene","false","","","","","4","",""
"","","","","","html-keyboard-response","99","390069","0.0-16.0-1.3","6759fa50a9bb240e423de357","6796e1c0ff24ca17c453c51c","67c7195fafac60713890b448","passed","","1569","","","","","","","","","","","","","","f","yesOrNo","","","","10","","","lp","3000","","","4","603.4000000000001","215.50214355555383"
"","","","","","html-keyboard-response","100","391622","0.0-16.0-0.4","6759fa50a9bb240e423de357","6796e1c0ff24ca17c453c51c","67c7195fafac60713890b448","passed","","","","","","","","","","","","","","","","","ballFalling","322.3","379.3711431702997","245.25","1","fallScene","false","","","","","5","",""
"","","","","","html-keyboard-response","101","394626","0.0-16.0-1.4","6759fa50a9bb240e423de357","6796e1c0ff24ca17c453c51c","67c7195fafac60713890b448","passed","","null","","","","","","","","","","","","","","null","yesOrNo","","","","1","","","gt","3000","","","5","379.3711431702997","245.25"
"","","","","","html-keyboard-response","102","396179","0.0-16.0-0.5","6759fa50a9bb240e423de357","6796e1c0ff24ca17c453c51c","67c7195fafac60713890b448","passed","","","","","","","","","","","","","","","","","ballFalling","322.3","296.07114317029976","371.46","3","fallScene","true","","","","","6","",""
"","","","","","html-keyboard-response","103","399183","0.0-16.0-1.5","6759fa50a9bb240e423de357","6796e1c0ff24ca17c453c51c","67c7195fafac60713890b448","passed","","2415","","","","","","","","","","","","","","f","yesOrNo","","","","3","","","gt","3000","","","6","296.07114317029976","371.46"
"","","","","","html-keyboard-response","104","400670","0.0-16.0-0.6","6759fa50a9bb240e423de357","6796e1c0ff24ca17c453c51c","67c7195fafac60713890b448","passed","","","","","","","","","","","","","","","","","ballFalling","604.4000000000001","667.6211431702998","201.78","9","fallScene","true","","","","","7","",""
"","","","","","html-keyboard-response","105","403675","0.0-16.0-1.6","6759fa50a9bb240e423de357","6796e1c0ff24ca17c453c51c","67c7195fafac60713890b448","passed","","1279","","","","","","","","","","","","","","j","yesOrNo","","","","9","","","mid","3000","","","7","605.4000000000001","300"
"","","","","","html-keyboard-response","106","405229","0.0-16.0-0.7","6759fa50a9bb240e423de357","6796e1c0ff24ca17c453c51c","67c7195fafac60713890b448","passed","","","","","","","","","","","","","","","","","ballFalling","500","453.67114317029973","210.33","5","fallScene","true","","","","","8","",""
"","","","","","html-keyboard-response","107","408232","0.0-16.0-1.7","6759fa50a9bb240e423de357","6796e1c0ff24ca17c453c51c","67c7195fafac60713890b448","passed","","null","","","","","","","","","","","","","","null","yesOrNo","","","","5","","","mid","3000","","","8","499","300"
"","","","","","html-keyboard-response","108","409787","0.0-16.0-0.8","6759fa50a9bb240e423de357","6796e1c0ff24ca17c453c51c","67c7195fafac60713890b448","passed","","","","","","","","","","","","","","","","","ballFalling","322.3","379.3711431702997","245.25","1","fallScene","false","","","","","9","",""
"","","","","","html-keyboard-response","109","412788","0.0-16.0-1.8","6759fa50a9bb240e423de357","6796e1c0ff24ca17c453c51c","67c7195fafac60713890b448","passed","","779","","","","","","","","","","","","","","f","yesOrNo","","","","1","","","lp","3000","","","9","323.3","217.74551669457017"
"","","","","","html-keyboard-response","110","414345","0.0-16.0-0.9","6759fa50a9bb240e423de357","6796e1c0ff24ca17c453c51c","67c7195fafac60713890b448","passed","","","","","","","","","","","","","","","","","ballFalling","322.3","356.42114317029973","357.87","4","fallScene","false","","","","","10","",""
"","","","","","html-keyboard-response","111","417349","0.0-16.0-1.9","6759fa50a9bb240e423de357","6796e1c0ff24ca17c453c51c","67c7195fafac60713890b448","passed","","1810","","","","","","","","","","","","","","j","yesOrNo","","","","4","","","mid","3000","","","10","390.27114317029975","300"
"","","","","","html-keyboard-response","112","419354","0.0-16.0-0.10","6759fa50a9bb240e423de357","6796e1c0ff24ca17c453c51c","67c7195fafac60713890b448","passed","","","","","","","","","","","","","","","","","ballFalling","604.4000000000001","596.8711431702998","394.5","10","fallScene","true","","","","","11","",""
"","","","","","html-keyboard-response","113","422360","0.0-16.0-1.10","6759fa50a9bb240e423de357","6796e1c0ff24ca17c453c51c","67c7195fafac60713890b448","passed","","1838","","","","","","","","","","","","","","f","yesOrNo","","","","10","","","mid","3000","","","11","536.4288568297004","300"
"","","","","","html-keyboard-response","114","423847","0.0-16.0-0.11","6759fa50a9bb240e423de357","6796e1c0ff24ca17c453c51c","67c7195fafac60713890b448","passed","","","","","","","","","","","","","","","","","ballFalling","604.4000000000001","667.6211431702998","201.78","9","fallScene","true","","","","","12","",""
"","","","","","html-keyboard-response","115","426849","0.0-16.0-1.11","6759fa50a9bb240e423de357","6796e1c0ff24ca17c453c51c","67c7195fafac60713890b448","passed","","1602","","","","","","","","","","","","","","f","yesOrNo","","","","9","","","mid","3000","","","12","605.4000000000001","300"
"","","","","","html-keyboard-response","116","428509","0.0-16.0-0.12","6759fa50a9bb240e423de357","6796e1c0ff24ca17c453c51c","67c7195fafac60713890b448","passed","","","","","","","","","","","","","","","","","ballFalling","500","479.92114317029973","330.87","6","fallScene","false","","","","","13","",""
"","","","","","html-keyboard-response","117","431513","0.0-16.0-1.12","6759fa50a9bb240e423de357","6796e1c0ff24ca17c453c51c","67c7195fafac60713890b448","passed","","2207","","","","","","","","","","","","","","f","yesOrNo","","","","6","","","gt","3000","","","13","479.9211431702998","330.87"
"","","","","","html-keyboard-response","118","433066","0.0-16.0-0.13","6759fa50a9bb240e423de357","6796e1c0ff24ca17c453c51c","67c7195fafac60713890b448","passed","","","","","","","","","","","","","","","","","ballFalling","322.3","379.3711431702997","245.25","1","fallScene","true","","","","","14","",""
"","","","","","html-keyboard-response","119","436069","0.0-16.0-1.13","6759fa50a9bb240e423de357","6796e1c0ff24ca17c453c51c","67c7195fafac60713890b448","passed","","1269","","","","","","","","","","","","","","f","yesOrNo","","","","1","","","mid","3000","","","14","390.27114317029975","300"
"","","","","","html-keyboard-response","120","437624","0.0-16.0-0.14","6759fa50a9bb240e423de357","6796e1c0ff24ca17c453c51c","67c7195fafac60713890b448","passed","","","","","","","","","","","","","","","","","ballFalling","322.3","356.42114317029973","357.87","4","fallScene","false","","","","","15","",""
"","","","","","html-keyboard-response","121","440629","0.0-16.0-1.14","6759fa50a9bb240e423de357","6796e1c0ff24ca17c453c51c","67c7195fafac60713890b448","passed","","749","","","","","","","","","","","","","","j","yesOrNo","","","","4","","","gt","3000","","","15","356.42114317029973","357.87"
"","","","","","html-keyboard-response","122","442115","0.0-16.0-0.15","6759fa50a9bb240e423de357","6796e1c0ff24ca17c453c51c","67c7195fafac60713890b448","passed","","","","","","","","","","","","","","","","","ballFalling","604.4000000000001","667.6211431702998","201.78","9","fallScene","true","","","","","16","",""
"","","","","","html-keyboard-response","123","445118","0.0-16.0-1.15","6759fa50a9bb240e423de357","6796e1c0ff24ca17c453c51c","67c7195fafac60713890b448","passed","","null","","","","","","","","","","","","","","null","yesOrNo","","","","9","","","lp","3000","","","16","605.4000000000001","151"
"","","","","","html-keyboard-response","124","446675","0.0-16.0-0.16","6759fa50a9bb240e423de357","6796e1c0ff24ca17c453c51c","67c7195fafac60713890b448","passed","","","","","","","","","","","","","","","","","ballFalling","604.4000000000001","650.0211431702996","404.58000000000004","11","fallScene","false","","","","","17","",""
"","","","","","html-keyboard-response","125","449677","0.0-16.0-1.16","6759fa50a9bb240e423de357","6796e1c0ff24ca17c453c51c","67c7195fafac60713890b448","passed","","409","","","","","","","","","","","","","","j","yesOrNo","","","","11","","","mid","3000","","","17","605.4000000000001","300"
"","","","","","html-keyboard-response","126","451467","0.0-16.0-0.17","6759fa50a9bb240e423de357","6796e1c0ff24ca17c453c51c","67c7195fafac60713890b448","passed","","","","","","","","","","","","","","","","","ballFalling","322.3","308.07114317029976","253.89","2","fallScene","true","","","","","18","",""
"","","","","","html-keyboard-response","127","454472","0.0-16.0-1.17","6759fa50a9bb240e423de357","6796e1c0ff24ca17c453c51c","67c7195fafac60713890b448","passed","","2008","","","","","","","","","","","","","","j","yesOrNo","","","","2","","","gt","3000","","","18","308.07114317029976","253.89"
"","","","","","html-keyboard-response","128","455957","0.0-16.0-0.18","6759fa50a9bb240e423de357","6796e1c0ff24ca17c453c51c","67c7195fafac60713890b448","passed","","","","","","","","","","","","","","","","","ballFalling","604.4000000000001","667.6211431702998","201.78","9","fallScene","true","","","","","19","",""
"","","","","","html-keyboard-response","129","458962","0.0-16.0-1.18","6759fa50a9bb240e423de357","6796e1c0ff24ca17c453c51c","67c7195fafac60713890b448","passed","","1747","","","","","","","","","","","","","","f","yesOrNo","","","","9","","","gt","3000","","","19","667.6211431702998","201.78"
"","","","","","html-keyboard-response","130","460967","0.0-16.0-0.19","6759fa50a9bb240e423de357","6796e1c0ff24ca17c453c51c","67c7195fafac60713890b448","passed","","","","","","","","","","","","","","","","","ballFalling","500","510.8711431702997","369.03","8","fallScene","false","","","","","20","",""
"","","","","","html-keyboard-response","131","463970","0.0-16.0-1.19","6759fa50a9bb240e423de357","6796e1c0ff24ca17c453c51c","67c7195fafac60713890b448","passed","","2380","","","","","","","","","","","","","","j","yesOrNo","","","","8","","","gt","3000","","","20","510.8711431702997","369.03"
"","","","","","html-keyboard-response","132","465526","0.0-16.0-0.20","6759fa50a9bb240e423de357","6796e1c0ff24ca17c453c51c","67c7195fafac60713890b448","passed","","","","","","","","","","","","","","","","","ballFalling","322.3","379.3711431702997","245.25","1","fallScene","true","","","","","21","",""
"","","","","","html-keyboard-response","133","468531","0.0-16.0-1.20","6759fa50a9bb240e423de357","6796e1c0ff24ca17c453c51c","67c7195fafac60713890b448","passed","","996","","","","","","","","","","","","","","j","yesOrNo","","","","1","","","lp","3000","","","21","323.3","217.74551669457017"
"","","","","","html-keyboard-response","134","470317","0.0-16.0-0.21","6759fa50a9bb240e423de357","6796e1c0ff24ca17c453c51c","67c7195fafac60713890b448","passed","","","","","","","","","","","","","","","","","ballFalling","322.3","308.07114317029976","253.89","2","fallScene","false","","","","","22","",""
"","","","","","html-keyboard-response","135","473320","0.0-16.0-1.21","6759fa50a9bb240e423de357","6796e1c0ff24ca17c453c51c","67c7195fafac60713890b448","passed","","303","","","","","","","","","","","","","","j","yesOrNo","","","","2","","","mid","3000","","","22","321.3","300"
"","","","","","html-keyboard-response","136","474875","0.0-16.0-0.22","6759fa50a9bb240e423de357","6796e1c0ff24ca17c453c51c","67c7195fafac60713890b448","passed","","","","","","","","","","","","","","","","","ballFalling","604.4000000000001","650.0211431702996","404.58000000000004","11","fallScene","true","","","","","23","",""
"","","","","","html-keyboard-response","137","477880","0.0-16.0-1.22","6759fa50a9bb240e423de357","6796e1c0ff24ca17c453c51c","67c7195fafac60713890b448","passed","","474","","","","","","","","","","","","","","j","yesOrNo","","","","11","","","gt","3000","","","23","650.0211431702996","404.58"
"","","","","","html-keyboard-response","138","479366","0.0-16.0-0.23","6759fa50a9bb240e423de357","6796e1c0ff24ca17c453c51c","67c7195fafac60713890b448","passed","","","","","","","","","","","","","","","","","ballFalling","604.4000000000001","667.6211431702998","201.78","9","fallScene","true","","","","","24","",""
"","","","","","html-keyboard-response","139","482371","0.0-16.0-1.23","6759fa50a9bb240e423de357","6796e1c0ff24ca17c453c51c","67c7195fafac60713890b448","passed","","1529","","","","","","","","","","","","","","f","yesOrNo","","","","9","","","lp","3000","","","24","605.4000000000001","151"
"","","","","","html-keyboard-response","140","484541","0.0-17.0","6759fa50a9bb240e423de357","6796e1c0ff24ca17c453c51c","67c7195fafac60713890b448","passed","","2169","","","","","","","","","","","","","<p><span style=""font-size:40px;"">BLOCK 2</span></p><p><span style=""font-size:25px;"">You have <b style=""color: #FF644F;""><strong>0.7 second(s)</strong></b> to respond to the following trials.</span><br></p><p></p> <!-- Blank line -->
                <p id=""blinking-text"" style=""font-weight; animation: blink 2s infinite;"">Press Space to continue</p>
                <style>
                    @keyframes blink {
                        50% {
                            opacity: 0;
                        }
                    }
                </style></p>"," ","","","","","","","","","","","","","",""
"","","","","","html-keyboard-response","141","486099","0.0-18.0-0.0","6759fa50a9bb240e423de357","6796e1c0ff24ca17c453c51c","67c7195fafac60713890b448","passed","","","","","","","","","","","","","","","","","ballFalling","604.4000000000001","575.4211431702997","266.76","12","fallScene","false","","","","","25","",""
"","","","","","html-keyboard-response","142","486802","0.0-18.0-1.0","6759fa50a9bb240e423de357","6796e1c0ff24ca17c453c51c","67c7195fafac60713890b448","passed","","null","","","","","","","","","","","","","","null","yesOrNo","","","","12","","","lp","700","","","25","603.4000000000001","151"
"","","","","","html-keyboard-response","143","488808","0.0-18.0-0.1","6759fa50a9bb240e423de357","6796e1c0ff24ca17c453c51c","67c7195fafac60713890b448","passed","","","","","","","","","","","","","","","","","ballFalling","500","510.8711431702997","369.03","8","fallScene","true","","","","","26","",""
"","","","","","html-keyboard-response","144","489510","0.0-18.0-1.1","6759fa50a9bb240e423de357","6796e1c0ff24ca17c453c51c","67c7195fafac60713890b448","passed","","null","","","","","","","","","","","","","","null","yesOrNo","","","","8","","","mid","700","","","26","501","300"
"","","","","","html-keyboard-response","145","491079","0.0-18.0-0.2","6759fa50a9bb240e423de357","6796e1c0ff24ca17c453c51c","67c7195fafac60713890b448","passed","","","","","","","","","","","","","","","","","ballFalling","322.3","379.3711431702997","245.25","1","fallScene","false","","","","","27","",""
"","","","","","html-keyboard-response","146","491782","0.0-18.0-1.2","6759fa50a9bb240e423de357","6796e1c0ff24ca17c453c51c","67c7195fafac60713890b448","passed","","589","","","","","","","","","","","","","","f","yesOrNo","","","","1","","","mid","700","","","27","390.27114317029975","300"
"","","","","","html-keyboard-response","147","493771","0.0-18.0-0.3","6759fa50a9bb240e423de357","6796e1c0ff24ca17c453c51c","67c7195fafac60713890b448","passed","","","","","","","","","","","","","","","","","ballFalling","500","510.8711431702997","369.03","8","fallScene","true","","","","","28","",""
"","","","","","html-keyboard-response","148","494474","0.0-18.0-1.3","6759fa50a9bb240e423de357","6796e1c0ff24ca17c453c51c","67c7195fafac60713890b448","passed","","423","","","","","","","","","","","","","","j","yesOrNo","","","","8","","","lp","700","","","28","501","151"
"","","","","","html-keyboard-response","149","496032","0.0-18.0-0.4","6759fa50a9bb240e423de357","6796e1c0ff24ca17c453c51c","67c7195fafac60713890b448","passed","","","","","","","","","","","","","","","","","ballFalling","322.3","356.42114317029973","357.87","4","fallScene","true","","","","","29","",""
"","","","","","html-keyboard-response","150","496735","0.0-18.0-1.4","6759fa50a9bb240e423de357","6796e1c0ff24ca17c453c51c","67c7195fafac60713890b448","passed","","409","","","","","","","","","","","","","","j","yesOrNo","","","","4","","","lp","700","","","29","323.3","297.4070551689986"
"","","","","","html-keyboard-response","151","498290","0.0-18.0-0.5","6759fa50a9bb240e423de357","6796e1c0ff24ca17c453c51c","67c7195fafac60713890b448","passed","","","","","","","","","","","","","","","","","ballFalling","500","453.67114317029973","210.33","5","fallScene","true","","","","","30","",""
"","","","","","html-keyboard-response","152","498993","0.0-18.0-1.5","6759fa50a9bb240e423de357","6796e1c0ff24ca17c453c51c","67c7195fafac60713890b448","passed","","515","","","","","","","","","","","","","","f","yesOrNo","","","","5","","","lp","700","","","30","499","151"
"","","","","","html-keyboard-response","153","500550","0.0-18.0-0.6","6759fa50a9bb240e423de357","6796e1c0ff24ca17c453c51c","67c7195fafac60713890b448","passed","","","","","","","","","","","","","","","","","ballFalling","322.3","296.07114317029976","371.46","3","fallScene","false","","","","","31","",""
"","","","","","html-keyboard-response","154","501253","0.0-18.0-1.6","6759fa50a9bb240e423de357","6796e1c0ff24ca17c453c51c","67c7195fafac60713890b448","passed","","null","","","","","","","","","","","","","","null","yesOrNo","","","","3","","","mid","700","","","31","321.3","300"
"","","","","","html-keyboard-response","155","502809","0.0-18.0-0.7","6759fa50a9bb240e423de357","6796e1c0ff24ca17c453c51c","67c7195fafac60713890b448","passed","","","","","","","","","","","","","","","","","ballFalling","604.4000000000001","650.0211431702996","404.58000000000004","11","fallScene","false","","","","","32","",""
"","","","","","html-keyboard-response","156","503512","0.0-18.0-1.7","6759fa50a9bb240e423de357","6796e1c0ff24ca17c453c51c","67c7195fafac60713890b448","passed","","208","","","","","","","","","","","","","","j","yesOrNo","","","","11","","","lp","700","","","32","605.4000000000001","372.6340973215488"
"","","","","","html-keyboard-response","157","505085","0.0-18.0-0.8","6759fa50a9bb240e423de357","6796e1c0ff24ca17c453c51c","67c7195fafac60713890b448","passed","","","","","","","","","","","","","","","","","ballFalling","500","553.4711431702997","282.51","7","fallScene","true","","","","","33","",""
"","","","","","html-keyboard-response","158","505787","0.0-18.0-1.8","6759fa50a9bb240e423de357","6796e1c0ff24ca17c453c51c","67c7195fafac60713890b448","passed","","333","","","","","","","","","","","","","","f","yesOrNo","","","","7","","","gt","700","","","33","553.4711431702997","282.51"
"","","","","","html-keyboard-response","159","507358","0.0-18.0-0.9","6759fa50a9bb240e423de357","6796e1c0ff24ca17c453c51c","67c7195fafac60713890b448","passed","","","","","","","","","","","","","","","","","ballFalling","500","553.4711431702997","282.51","7","fallScene","true","","","","","34","",""
"","","","","","html-keyboard-response","160","508064","0.0-18.0-1.9","6759fa50a9bb240e423de357","6796e1c0ff24ca17c453c51c","67c7195fafac60713890b448","passed","","null","","","","","","","","","","","","","","null","yesOrNo","","","","7","","","mid","700","","","34","501","300"
"","","","","","html-keyboard-response","161","509633","0.0-18.0-0.10","6759fa50a9bb240e423de357","6796e1c0ff24ca17c453c51c","67c7195fafac60713890b448","passed","","","","","","","","","","","","","","","","","ballFalling","500","553.4711431702997","282.51","7","fallScene","false","","","","","35","",""
"","","","","","html-keyboard-response","162","510336","0.0-18.0-1.10","6759fa50a9bb240e423de357","6796e1c0ff24ca17c453c51c","67c7195fafac60713890b448","passed","","null","","","","","","","","","","","","","","null","yesOrNo","","","","7","","","lp","700","","","35","501","227.2843295913261"
"","","","","","html-keyboard-response","163","511890","0.0-18.0-0.11","6759fa50a9bb240e423de357","6796e1c0ff24ca17c453c51c","67c7195fafac60713890b448","passed","","","","","","","","","","","","","","","","","ballFalling","322.3","296.07114317029976","371.46","3","fallScene","true","","","","","36","",""
"","","","","","html-keyboard-response","164","512594","0.0-18.0-1.11","6759fa50a9bb240e423de357","6796e1c0ff24ca17c453c51c","67c7195fafac60713890b448","passed","","202","","","","","","","","","","","","","","f","yesOrNo","","","","3","","","mid","700","","","36","321.3","300"
"","","","","","html-keyboard-response","165","514166","0.0-18.0-0.12","6759fa50a9bb240e423de357","6796e1c0ff24ca17c453c51c","67c7195fafac60713890b448","passed","","","","","","","","","","","","","","","","","ballFalling","500","553.4711431702997","282.51","7","fallScene","false","","","","","37","",""
"","","","","","html-keyboard-response","166","514872","0.0-18.0-1.12","6759fa50a9bb240e423de357","6796e1c0ff24ca17c453c51c","67c7195fafac60713890b448","passed","","null","","","","","","","","","","","","","","null","yesOrNo","","","","7","","","gt","700","","","37","553.4711431702997","282.51"
"","","","","","html-keyboard-response","167","516525","0.0-18.0-0.13","6759fa50a9bb240e423de357","6796e1c0ff24ca17c453c51c","67c7195fafac60713890b448","passed","","","","","","","","","","","","","","","","","ballFalling","500","479.92114317029973","330.87","6","fallScene","false","","","","","38","",""
"","","","","","html-keyboard-response","168","517228","0.0-18.0-1.13","6759fa50a9bb240e423de357","6796e1c0ff24ca17c453c51c","67c7195fafac60713890b448","passed","","null","","","","","","","","","","","","","","null","yesOrNo","","","","6","","","mid","700","","","38","499","300"
"","","","","","html-keyboard-response","169","518782","0.0-18.0-0.14","6759fa50a9bb240e423de357","6796e1c0ff24ca17c453c51c","67c7195fafac60713890b448","passed","","","","","","","","","","","","","","","","","ballFalling","322.3","356.42114317029973","357.87","4","fallScene","true","","","","","39","",""
"","","","","","html-keyboard-response","170","519488","0.0-18.0-1.14","6759fa50a9bb240e423de357","6796e1c0ff24ca17c453c51c","67c7195fafac60713890b448","passed","","514","","","","","","","","","","","","","","j","yesOrNo","","","","4","","","gt","700","","","39","356.42114317029973","357.87"
"","","","","","html-keyboard-response","171","521041","0.0-18.0-0.15","6759fa50a9bb240e423de357","6796e1c0ff24ca17c453c51c","67c7195fafac60713890b448","passed","","","","","","","","","","","","","","","","","ballFalling","500","453.67114317029973","210.33","5","fallScene","false","","","","","40","",""
"","","","","","html-keyboard-response","172","521747","0.0-18.0-1.15","6759fa50a9bb240e423de357","6796e1c0ff24ca17c453c51c","67c7195fafac60713890b448","passed","","362","","","","","","","","","","","","","","j","yesOrNo","","","","5","","","mid","700","","","40","499","300"
"","","","","","html-keyboard-response","173","523300","0.0-18.0-0.16","6759fa50a9bb240e423de357","6796e1c0ff24ca17c453c51c","67c7195fafac60713890b448","passed","","","","","","","","","","","","","","","","","ballFalling","322.3","296.07114317029976","371.46","3","fallScene","false","","","","","41","",""
"","","","","","html-keyboard-response","174","524004","0.0-18.0-1.16","6759fa50a9bb240e423de357","6796e1c0ff24ca17c453c51c","67c7195fafac60713890b448","passed","","689","","","","","","","","","","","","","","j","yesOrNo","","","","3","","","lp","700","","","41","321.3","287.3327096511259"
"","","","","","html-keyboard-response","175","525790","0.0-18.0-0.17","6759fa50a9bb240e423de357","6796e1c0ff24ca17c453c51c","67c7195fafac60713890b448","passed","","","","","","","","","","","","","","","","","ballFalling","322.3","308.07114317029976","253.89","2","fallScene","true","","","","","42","",""
"","","","","","html-keyboard-response","176","526492","0.0-18.0-1.17","6759fa50a9bb240e423de357","6796e1c0ff24ca17c453c51c","67c7195fafac60713890b448","passed","","599","","","","","","","","","","","","","","f","yesOrNo","","","","2","","","mid","700","","","42","321.3","300"
"","","","","","html-keyboard-response","177","528053","0.0-18.0-0.18","6759fa50a9bb240e423de357","6796e1c0ff24ca17c453c51c","67c7195fafac60713890b448","passed","","","","","","","","","","","","","","","","","ballFalling","322.3","379.3711431702997","245.25","1","fallScene","true","","","","","43","",""
"","","","","","html-keyboard-response","178","528756","0.0-18.0-1.18","6759fa50a9bb240e423de357","6796e1c0ff24ca17c453c51c","67c7195fafac60713890b448","passed","","null","","","","","","","","","","","","","","null","yesOrNo","","","","1","","","lp","700","","","43","323.3","217.74551669457017"
"","","","","","html-keyboard-response","179","530546","0.0-18.0-0.19","6759fa50a9bb240e423de357","6796e1c0ff24ca17c453c51c","67c7195fafac60713890b448","passed","","","","","","","","","","","","","","","","","ballFalling","322.3","308.07114317029976","253.89","2","fallScene","false","","","","","44","",""
"","","","","","html-keyboard-response","180","531250","0.0-18.0-1.19","6759fa50a9bb240e423de357","6796e1c0ff24ca17c453c51c","67c7195fafac60713890b448","passed","","null","","","","","","","","","","","","","","null","yesOrNo","","","","2","","","gt","700","","","44","308.07114317029976","253.89"
"","","","","","html-keyboard-response","181","532803","0.0-18.0-0.20","6759fa50a9bb240e423de357","6796e1c0ff24ca17c453c51c","67c7195fafac60713890b448","passed","","","","","","","","","","","","","","","","","ballFalling","322.3","379.3711431702997","245.25","1","fallScene","false","","","","","45","",""
"","","","","","html-keyboard-response","182","533506","0.0-18.0-1.20","6759fa50a9bb240e423de357","6796e1c0ff24ca17c453c51c","67c7195fafac60713890b448","passed","","null","","","","","","","","","","","","","","null","yesOrNo","","","","1","","","gt","700","","","45","379.3711431702997","245.25"
"","","","","","html-keyboard-response","183","534997","0.0-18.0-0.21","6759fa50a9bb240e423de357","6796e1c0ff24ca17c453c51c","67c7195fafac60713890b448","passed","","","","","","","","","","","","","","","","","ballFalling","604.4000000000001","667.6211431702998","201.78","9","fallScene","true","","","","","46","",""
"","","","","","html-keyboard-response","184","535702","0.0-18.0-1.21","6759fa50a9bb240e423de357","6796e1c0ff24ca17c453c51c","67c7195fafac60713890b448","passed","","254","","","","","","","","","","","","","","j","yesOrNo","","","","9","","","gt","700","","","46","667.6211431702998","201.78"
"","","","","","html-keyboard-response","185","537354","0.0-18.0-0.22","6759fa50a9bb240e423de357","6796e1c0ff24ca17c453c51c","67c7195fafac60713890b448","passed","","","","","","","","","","","","","","","","","ballFalling","500","479.92114317029973","330.87","6","fallScene","false","","","","","47","",""
"","","","","","html-keyboard-response","186","538057","0.0-18.0-1.22","6759fa50a9bb240e423de357","6796e1c0ff24ca17c453c51c","67c7195fafac60713890b448","passed","","123","","","","","","","","","","","","","","j","yesOrNo","","","","6","","","gt","700","","","47","479.9211431702998","330.87"
"","","","","","html-keyboard-response","187","539712","0.0-18.0-0.23","6759fa50a9bb240e423de357","6796e1c0ff24ca17c453c51c","67c7195fafac60713890b448","passed","","","","","","","","","","","","","","","","","ballFalling","500","479.92114317029973","330.87","6","fallScene","false","","","","","48","",""
"","","","","","html-keyboard-response","188","540415","0.0-18.0-1.23","6759fa50a9bb240e423de357","6796e1c0ff24ca17c453c51c","67c7195fafac60713890b448","passed","","305","","","","","","","","","","","","","","j","yesOrNo","","","","6","","","gt","700","","","48","479.9211431702998","330.87"
"","","","","","html-keyboard-response","189","542930","0.0-19.0","6759fa50a9bb240e423de357","6796e1c0ff24ca17c453c51c","67c7195fafac60713890b448","passed","","2514","","","","","","","","","","","","","<p><span style=""font-size:40px;"">BLOCK 3</span></p><p><span style=""font-size:25px;"">You have <b style=""color: #FF644F;""><strong>0.7 second(s)</strong></b> to respond to the following trials.</span><br></p><p></p> <!-- Blank line -->
                <p id=""blinking-text"" style=""font-weight; animation: blink 2s infinite;"">Press Space to continue</p>
                <style>
                    @keyframes blink {
                        50% {
                            opacity: 0;
                        }
                    }
                </style></p>"," ","","","","","","","","","","","","","",""
"","","","","","html-keyboard-response","190","544486","0.0-20.0-0.0","6759fa50a9bb240e423de357","6796e1c0ff24ca17c453c51c","67c7195fafac60713890b448","passed","","","","","","","","","","","","","","","","","ballFalling","604.4000000000001","575.4211431702997","266.76","12","fallScene","true","","","","","49","",""
"","","","","","html-keyboard-response","191","545189","0.0-20.0-1.0","6759fa50a9bb240e423de357","6796e1c0ff24ca17c453c51c","67c7195fafac60713890b448","passed","","508","","","","","","","","","","","","","","f","yesOrNo","","","","12","","","gt","700","","","49","575.4211431702997","266.76"
"","","","","","html-keyboard-response","192","546745","0.0-20.0-0.1","6759fa50a9bb240e423de357","6796e1c0ff24ca17c453c51c","67c7195fafac60713890b448","passed","","","","","","","","","","","","","","","","","ballFalling","500","453.67114317029973","210.33","5","fallScene","true","","","","","50","",""
"","","","","","html-keyboard-response","193","547447","0.0-20.0-1.1","6759fa50a9bb240e423de357","6796e1c0ff24ca17c453c51c","67c7195fafac60713890b448","passed","","448","","","","","","","","","","","","","","j","yesOrNo","","","","5","","","mid","700","","","50","499","300"
"","","","","","html-keyboard-response","194","548931","0.0-20.0-0.2","6759fa50a9bb240e423de357","6796e1c0ff24ca17c453c51c","67c7195fafac60713890b448","passed","","","","","","","","","","","","","","","","","ballFalling","604.4000000000001","667.6211431702998","201.78","9","fallScene","false","","","","","51","",""
"","","","","","html-keyboard-response","195","549634","0.0-20.0-1.2","6759fa50a9bb240e423de357","6796e1c0ff24ca17c453c51c","67c7195fafac60713890b448","passed","","489","","","","","","","","","","","","","","j","yesOrNo","","","","9","","","mid","700","","","51","605.4000000000001","300"
"","","","","","html-keyboard-response","196","551654","0.0-20.0-0.3","6759fa50a9bb240e423de357","6796e1c0ff24ca17c453c51c","67c7195fafac60713890b448","passed","","","","","","","","","","","","","","","","","ballFalling","500","510.8711431702997","369.03","8","fallScene","true","","","","","52","",""
"","","","","","html-keyboard-response","197","552359","0.0-20.0-1.3","6759fa50a9bb240e423de357","6796e1c0ff24ca17c453c51c","67c7195fafac60713890b448","passed","","null","","","","","","","","","","","","","","null","yesOrNo","","","","8","","","lp","700","","","52","501","151"
"","","","","","html-keyboard-response","198","553913","0.0-20.0-0.4","6759fa50a9bb240e423de357","6796e1c0ff24ca17c453c51c","67c7195fafac60713890b448","passed","","","","","","","","","","","","","","","","","ballFalling","322.3","356.42114317029973","357.87","4","fallScene","true","","","","","53","",""
"","","","","","html-keyboard-response","199","554616","0.0-20.0-1.4","6759fa50a9bb240e423de357","6796e1c0ff24ca17c453c51c","67c7195fafac60713890b448","passed","","623","","","","","","","","","","","","","","j","yesOrNo","","","","4","","","lp","700","","","53","323.3","297.4070551689986"
"","","","","","html-keyboard-response","200","556170","0.0-20.0-0.5","6759fa50a9bb240e423de357","6796e1c0ff24ca17c453c51c","67c7195fafac60713890b448","passed","","","","","","","","","","","","","","","","","ballFalling","322.3","356.42114317029973","357.87","4","fallScene","false","","","","","54","",""
"","","","","","html-keyboard-response","201","556875","0.0-20.0-1.5","6759fa50a9bb240e423de357","6796e1c0ff24ca17c453c51c","67c7195fafac60713890b448","passed","","431","","","","","","","","","","","","","","f","yesOrNo","","","","4","","","mid","700","","","54","390.27114317029975","300"
"","","","","","html-keyboard-response","202","558880","0.0-20.0-0.6","6759fa50a9bb240e423de357","6796e1c0ff24ca17c453c51c","67c7195fafac60713890b448","passed","","","","","","","","","","","","","","","","","ballFalling","604.4000000000001","596.8711431702998","394.5","10","fallScene","true","","","","","55","",""
"","","","","","html-keyboard-response","203","559583","0.0-20.0-1.6","6759fa50a9bb240e423de357","6796e1c0ff24ca17c453c51c","67c7195fafac60713890b448","passed","","null","","","","","","","","","","","","","","null","yesOrNo","","","","10","","","lp","700","","","55","603.4000000000001","215.50214355555383"
"","","","","","html-keyboard-response","204","561137","0.0-20.0-0.7","6759fa50a9bb240e423de357","6796e1c0ff24ca17c453c51c","67c7195fafac60713890b448","passed","","","","","","","","","","","","","","","","","ballFalling","322.3","356.42114317029973","357.87","4","fallScene","true","","","","","56","",""
"","","","","","html-keyboard-response","205","561840","0.0-20.0-1.7","6759fa50a9bb240e423de357","6796e1c0ff24ca17c453c51c","67c7195fafac60713890b448","passed","","null","","","","","","","","","","","","","","null","yesOrNo","","","","4","","","mid","700","","","56","390.27114317029975","300"
"","","","","","html-keyboard-response","206","563394","0.0-20.0-0.8","6759fa50a9bb240e423de357","6796e1c0ff24ca17c453c51c","67c7195fafac60713890b448","passed","","","","","","","","","","","","","","","","","ballFalling","604.4000000000001","575.4211431702997","266.76","12","fallScene","true","","","","","57","",""
"","","","","","html-keyboard-response","207","564097","0.0-20.0-1.8","6759fa50a9bb240e423de357","6796e1c0ff24ca17c453c51c","67c7195fafac60713890b448","passed","","null","","","","","","","","","","","","","","null","yesOrNo","","","","12","","","gt","700","","","57","575.4211431702997","266.76"
"","","","","","html-keyboard-response","208","565653","0.0-20.0-0.9","6759fa50a9bb240e423de357","6796e1c0ff24ca17c453c51c","67c7195fafac60713890b448","passed","","","","","","","","","","","","","","","","","ballFalling","500","453.67114317029973","210.33","5","fallScene","false","","","","","58","",""
"","","","","","html-keyboard-response","209","566356","0.0-20.0-1.9","6759fa50a9bb240e423de357","6796e1c0ff24ca17c453c51c","67c7195fafac60713890b448","passed","","517","","","","","","","","","","","","","","j","yesOrNo","","","","5","","","gt","700","","","58","453.6711431702998","210.33"
"","","","","","html-keyboard-response","210","568361","0.0-20.0-0.10","6759fa50a9bb240e423de357","6796e1c0ff24ca17c453c51c","67c7195fafac60713890b448","passed","","","","","","","","","","","","","","","","","ballFalling","604.4000000000001","596.8711431702998","394.5","10","fallScene","false","","","","","59","",""
"","","","","","html-keyboard-response","211","569066","0.0-20.0-1.10","6759fa50a9bb240e423de357","6796e1c0ff24ca17c453c51c","67c7195fafac60713890b448","passed","","609","","","","","","","","","","","","","","f","yesOrNo","","","","10","","","mid","700","","","59","536.4288568297004","300"
"","","","","","html-keyboard-response","212","570720","0.0-20.0-0.11","6759fa50a9bb240e423de357","6796e1c0ff24ca17c453c51c","67c7195fafac60713890b448","passed","","","","","","","","","","","","","","","","","ballFalling","500","479.92114317029973","330.87","6","fallScene","false","","","","","60","",""
"","","","","","html-keyboard-response","213","571424","0.0-20.0-1.11","6759fa50a9bb240e423de357","6796e1c0ff24ca17c453c51c","67c7195fafac60713890b448","passed","","null","","","","","","","","","","","","","","null","yesOrNo","","","","6","","","mid","700","","","60","499","300"
"","","","","","html-keyboard-response","214","572979","0.0-20.0-0.12","6759fa50a9bb240e423de357","6796e1c0ff24ca17c453c51c","67c7195fafac60713890b448","passed","","","","","","","","","","","","","","","","","ballFalling","322.3","379.3711431702997","245.25","1","fallScene","false","","","","","61","",""
"","","","","","html-keyboard-response","215","573683","0.0-20.0-1.12","6759fa50a9bb240e423de357","6796e1c0ff24ca17c453c51c","67c7195fafac60713890b448","passed","","673","","","","","","","","","","","","","","j","yesOrNo","","","","1","","","gt","700","","","61","379.3711431702997","245.25"
"","","","","","html-keyboard-response","216","575236","0.0-20.0-0.13","6759fa50a9bb240e423de357","6796e1c0ff24ca17c453c51c","67c7195fafac60713890b448","passed","","","","","","","","","","","","","","","","","ballFalling","322.3","356.42114317029973","357.87","4","fallScene","true","","","","","62","",""
"","","","","","html-keyboard-response","217","575940","0.0-20.0-1.13","6759fa50a9bb240e423de357","6796e1c0ff24ca17c453c51c","67c7195fafac60713890b448","passed","","351","","","","","","","","","","","","","","j","yesOrNo","","","","4","","","gt","700","","","62","356.42114317029973","357.87"
"","","","","","html-keyboard-response","218","577496","0.0-20.0-0.14","6759fa50a9bb240e423de357","6796e1c0ff24ca17c453c51c","67c7195fafac60713890b448","passed","","","","","","","","","","","","","","","","","ballFalling","604.4000000000001","650.0211431702996","404.58000000000004","11","fallScene","true","","","","","63","",""
"","","","","","html-keyboard-response","219","578201","0.0-20.0-1.14","6759fa50a9bb240e423de357","6796e1c0ff24ca17c453c51c","67c7195fafac60713890b448","passed","","177","","","","","","","","","","","","","","f","yesOrNo","","","","11","","","mid","700","","","63","605.4000000000001","300"
"","","","","","html-keyboard-response","220","579754","0.0-20.0-0.15","6759fa50a9bb240e423de357","6796e1c0ff24ca17c453c51c","67c7195fafac60713890b448","passed","","","","","","","","","","","","","","","","","ballFalling","322.3","296.07114317029976","371.46","3","fallScene","true","","","","","64","",""
"","","","","","html-keyboard-response","221","580459","0.0-20.0-1.15","6759fa50a9bb240e423de357","6796e1c0ff24ca17c453c51c","67c7195fafac60713890b448","passed","","null","","","","","","","","","","","","","","null","yesOrNo","","","","3","","","gt","700","","","64","296.07114317029976","371.46"
"","","","","","html-keyboard-response","222","582462","0.0-20.0-0.16","6759fa50a9bb240e423de357","6796e1c0ff24ca17c453c51c","67c7195fafac60713890b448","passed","","","","","","","","","","","","","","","","","ballFalling","604.4000000000001","596.8711431702998","394.5","10","fallScene","true","","","","","65","",""
"","","","","","html-keyboard-response","223","583167","0.0-20.0-1.16","6759fa50a9bb240e423de357","6796e1c0ff24ca17c453c51c","67c7195fafac60713890b448","passed","","null","","","","","","","","","","","","","","null","yesOrNo","","","","10","","","gt","700","","","65","596.8711431702998","394.5"
"","","","","","html-keyboard-response","224","584954","0.0-20.0-0.17","6759fa50a9bb240e423de357","6796e1c0ff24ca17c453c51c","67c7195fafac60713890b448","passed","","","","","","","","","","","","","","","","","ballFalling","322.3","308.07114317029976","253.89","2","fallScene","false","","","","","66","",""
"","","","","","html-keyboard-response","225","585656","0.0-20.0-1.17","6759fa50a9bb240e423de357","6796e1c0ff24ca17c453c51c","67c7195fafac60713890b448","passed","","null","","","","","","","","","","","","","","null","yesOrNo","","","","2","","","lp","700","","","66","321.3","151"
"","","","","","html-keyboard-response","226","587211","0.0-20.0-0.18","6759fa50a9bb240e423de357","6796e1c0ff24ca17c453c51c","67c7195fafac60713890b448","passed","","","","","","","","","","","","","","","","","ballFalling","604.4000000000001","650.0211431702996","404.58000000000004","11","fallScene","true","","","","","67","",""
"","","","","","html-keyboard-response","227","587913","0.0-20.0-1.18","6759fa50a9bb240e423de357","6796e1c0ff24ca17c453c51c","67c7195fafac60713890b448","passed","","337","","","","","","","","","","","","","","j","yesOrNo","","","","11","","","mid","700","","","67","605.4000000000001","300"
"","","","","","html-keyboard-response","228","589470","0.0-20.0-0.19","6759fa50a9bb240e423de357","6796e1c0ff24ca17c453c51c","67c7195fafac60713890b448","passed","","","","","","","","","","","","","","","","","ballFalling","500","453.67114317029973","210.33","5","fallScene","true","","","","","68","",""
"","","","","","html-keyboard-response","229","590175","0.0-20.0-1.19","6759fa50a9bb240e423de357","6796e1c0ff24ca17c453c51c","67c7195fafac60713890b448","passed","","479","","","","","","","","","","","","","","f","yesOrNo","","","","5","","","lp","700","","","68","499","151"
"","","","","","html-keyboard-response","230","591828","0.0-20.0-0.20","6759fa50a9bb240e423de357","6796e1c0ff24ca17c453c51c","67c7195fafac60713890b448","passed","","","","","","","","","","","","","","","","","ballFalling","500","479.92114317029973","330.87","6","fallScene","true","","","","","69","",""
"","","","","","html-keyboard-response","231","592530","0.0-20.0-1.20","6759fa50a9bb240e423de357","6796e1c0ff24ca17c453c51c","67c7195fafac60713890b448","passed","","285","","","","","","","","","","","","","","j","yesOrNo","","","","6","","","lp","700","","","69","499","189.92909825697632"
"","","","","","html-keyboard-response","232","594019","0.0-20.0-0.21","6759fa50a9bb240e423de357","6796e1c0ff24ca17c453c51c","67c7195fafac60713890b448","passed","","","","","","","","","","","","","","","","","ballFalling","604.4000000000001","667.6211431702998","201.78","9","fallScene","true","","","","","70","",""
"","","","","","html-keyboard-response","233","594721","0.0-20.0-1.21","6759fa50a9bb240e423de357","6796e1c0ff24ca17c453c51c","67c7195fafac60713890b448","passed","","559","","","","","","","","","","","","","","j","yesOrNo","","","","9","","","lp","700","","","70","605.4000000000001","151"
"","","","","","html-keyboard-response","234","596512","0.0-20.0-0.22","6759fa50a9bb240e423de357","6796e1c0ff24ca17c453c51c","67c7195fafac60713890b448","passed","","","","","","","","","","","","","","","","","ballFalling","322.3","308.07114317029976","253.89","2","fallScene","true","","","","","71","",""
"","","","","","html-keyboard-response","235","597217","0.0-20.0-1.22","6759fa50a9bb240e423de357","6796e1c0ff24ca17c453c51c","67c7195fafac60713890b448","passed","","455","","","","","","","","","","","","","","j","yesOrNo","","","","2","","","gt","700","","","71","308.07114317029976","253.89"
"","","","","","html-keyboard-response","236","598786","0.0-20.0-0.23","6759fa50a9bb240e423de357","6796e1c0ff24ca17c453c51c","67c7195fafac60713890b448","passed","","","","","","","","","","","","","","","","","ballFalling","500","553.4711431702997","282.51","7","fallScene","false","","","","","72","",""
"","","","","","html-keyboard-response","237","599489","0.0-20.0-1.23","6759fa50a9bb240e423de357","6796e1c0ff24ca17c453c51c","67c7195fafac60713890b448","passed","","181","","","","","","","","","","","","","","j","yesOrNo","","","","7","","","lp","700","","","72","501","227.2843295913261"
"","","","","","html-keyboard-response","238","608678","0.0-21.0","6759fa50a9bb240e423de357","6796e1c0ff24ca17c453c51c","67c7195fafac60713890b448","passed","","9187","","","","","","","","","","","","","<p><span style=""font-size:40px;"">BLOCK 4</span></p><p><span style=""font-size:25px;"">You have <b style=""color: #FF644F;""><strong>0.7 second(s)</strong></b> to respond to the following trials.</span><br></p><p></p> <!-- Blank line -->
                <p id=""blinking-text"" style=""font-weight; animation: blink 2s infinite;"">Press Space to continue</p>
                <style>
                    @keyframes blink {
                        50% {
                            opacity: 0;
                        }
                    }
                </style></p>"," ","","","","","","","","","","","","","",""
"","","","","","html-keyboard-response","239","610232","0.0-22.0-0.0","6759fa50a9bb240e423de357","6796e1c0ff24ca17c453c51c","67c7195fafac60713890b448","passed","","","","","","","","","","","","","","","","","ballFalling","604.4000000000001","575.4211431702997","266.76","12","fallScene","true","","","","","73","",""
"","","","","","html-keyboard-response","240","610934","0.0-22.0-1.0","6759fa50a9bb240e423de357","6796e1c0ff24ca17c453c51c","67c7195fafac60713890b448","passed","","667","","","","","","","","","","","","","","j","yesOrNo","","","","12","","","lp","700","","","73","603.4000000000001","151"
"","","","","","html-keyboard-response","241","612507","0.0-22.0-0.1","6759fa50a9bb240e423de357","6796e1c0ff24ca17c453c51c","67c7195fafac60713890b448","passed","","","","","","","","","","","","","","","","","ballFalling","604.4000000000001","650.0211431702996","404.58000000000004","11","fallScene","false","","","","","74","",""
"","","","","","html-keyboard-response","242","613209","0.0-22.0-1.1","6759fa50a9bb240e423de357","6796e1c0ff24ca17c453c51c","67c7195fafac60713890b448","passed","","660","","","","","","","","","","","","","","j","yesOrNo","","","","11","","","lp","700","","","74","605.4000000000001","372.6340973215488"
"","","","","","html-keyboard-response","243","614770","0.0-22.0-0.2","6759fa50a9bb240e423de357","6796e1c0ff24ca17c453c51c","67c7195fafac60713890b448","passed","","","","","","","","","","","","","","","","","ballFalling","604.4000000000001","575.4211431702997","266.76","12","fallScene","true","","","","","75","",""
"","","","","","html-keyboard-response","244","615471","0.0-22.0-1.2","6759fa50a9bb240e423de357","6796e1c0ff24ca17c453c51c","67c7195fafac60713890b448","passed","","472","","","","","","","","","","","","","","j","yesOrNo","","","","12","","","mid","700","","","75","536.4288568297004","300"
"","","","","","html-keyboard-response","245","617024","0.0-22.0-0.3","6759fa50a9bb240e423de357","6796e1c0ff24ca17c453c51c","67c7195fafac60713890b448","passed","","","","","","","","","","","","","","","","","ballFalling","322.3","379.3711431702997","245.25","1","fallScene","true","","","","","76","",""
"","","","","","html-keyboard-response","246","617726","0.0-22.0-1.3","6759fa50a9bb240e423de357","6796e1c0ff24ca17c453c51c","67c7195fafac60713890b448","passed","","653","","","","","","","","","","","","","","f","yesOrNo","","","","1","","","lp","700","","","76","323.3","217.74551669457017"
"","","","","","html-keyboard-response","247","619215","0.0-22.0-0.4","6759fa50a9bb240e423de357","6796e1c0ff24ca17c453c51c","67c7195fafac60713890b448","passed","","","","","","","","","","","","","","","","","ballFalling","604.4000000000001","667.6211431702998","201.78","9","fallScene","true","","","","","77","",""
"","","","","","html-keyboard-response","248","619918","0.0-22.0-1.4","6759fa50a9bb240e423de357","6796e1c0ff24ca17c453c51c","67c7195fafac60713890b448","passed","","342","","","","","","","","","","","","","","f","yesOrNo","","","","9","","","lp","700","","","77","605.4000000000001","151"
"","","","","","html-keyboard-response","249","621475","0.0-22.0-0.5","6759fa50a9bb240e423de357","6796e1c0ff24ca17c453c51c","67c7195fafac60713890b448","passed","","","","","","","","","","","","","","","","","ballFalling","604.4000000000001","650.0211431702996","404.58000000000004","11","fallScene","true","","","","","78","",""
"","","","","","html-keyboard-response","250","622177","0.0-22.0-1.5","6759fa50a9bb240e423de357","6796e1c0ff24ca17c453c51c","67c7195fafac60713890b448","passed","","116","","","","","","","","","","","","","","j","yesOrNo","","","","11","","","gt","700","","","78","650.0211431702996","404.58"
"","","","","","html-keyboard-response","251","624183","0.0-22.0-0.6","6759fa50a9bb240e423de357","6796e1c0ff24ca17c453c51c","67c7195fafac60713890b448","passed","","","","","","","","","","","","","","","","","ballFalling","604.4000000000001","596.8711431702998","394.5","10","fallScene","false","","","","","79","",""
"","","","","","html-keyboard-response","252","624888","0.0-22.0-1.6","6759fa50a9bb240e423de357","6796e1c0ff24ca17c453c51c","67c7195fafac60713890b448","passed","","620","","","","","","","","","","","","","","j","yesOrNo","","","","10","","","gt","700","","","79","596.8711431702998","394.5"
"","","","","","html-keyboard-response","253","626442","0.0-22.0-0.7","6759fa50a9bb240e423de357","6796e1c0ff24ca17c453c51c","67c7195fafac60713890b448","passed","","","","","","","","","","","","","","","","","ballFalling","500","453.67114317029973","210.33","5","fallScene","true","","","","","80","",""
"","","","","","html-keyboard-response","254","627146","0.0-22.0-1.7","6759fa50a9bb240e423de357","6796e1c0ff24ca17c453c51c","67c7195fafac60713890b448","passed","","null","","","","","","","","","","","","","","null","yesOrNo","","","","5","","","gt","700","","","80","453.6711431702998","210.33"
"","","","","","html-keyboard-response","255","628934","0.0-22.0-0.8","6759fa50a9bb240e423de357","6796e1c0ff24ca17c453c51c","67c7195fafac60713890b448","passed","","","","","","","","","","","","","","","","","ballFalling","322.3","308.07114317029976","253.89","2","fallScene","false","","","","","81","",""
"","","","","","html-keyboard-response","256","629637","0.0-22.0-1.8","6759fa50a9bb240e423de357","6796e1c0ff24ca17c453c51c","67c7195fafac60713890b448","passed","","258","","","","","","","","","","","","","","f","yesOrNo","","","","2","","","lp","700","","","81","321.3","151"
"","","","","","html-keyboard-response","257","631192","0.0-22.0-0.9","6759fa50a9bb240e423de357","6796e1c0ff24ca17c453c51c","67c7195fafac60713890b448","passed","","","","","","","","","","","","","","","","","ballFalling","322.3","296.07114317029976","371.46","3","fallScene","true","","","","","82","",""
"","","","","","html-keyboard-response","258","631895","0.0-22.0-1.9","6759fa50a9bb240e423de357","6796e1c0ff24ca17c453c51c","67c7195fafac60713890b448","passed","","381","","","","","","","","","","","","","","j","yesOrNo","","","","3","","","lp","700","","","82","321.3","287.3327096511259"
"","","","","","html-keyboard-response","259","633382","0.0-22.0-0.10","6759fa50a9bb240e423de357","6796e1c0ff24ca17c453c51c","67c7195fafac60713890b448","passed","","","","","","","","","","","","","","","","","ballFalling","604.4000000000001","667.6211431702998","201.78","9","fallScene","false","","","","","83","",""
"","","","","","html-keyboard-response","260","634085","0.0-22.0-1.10","6759fa50a9bb240e423de357","6796e1c0ff24ca17c453c51c","67c7195fafac60713890b448","passed","","544","","","","","","","","","","","","","","f","yesOrNo","","","","9","","","gt","700","","","83","667.6211431702998","201.78"
"","","","","","html-keyboard-response","261","636091","0.0-22.0-0.11","6759fa50a9bb240e423de357","6796e1c0ff24ca17c453c51c","67c7195fafac60713890b448","passed","","","","","","","","","","","","","","","","","ballFalling","604.4000000000001","596.8711431702998","394.5","10","fallScene","false","","","","","84","",""
"","","","","","html-keyboard-response","262","636794","0.0-22.0-1.11","6759fa50a9bb240e423de357","6796e1c0ff24ca17c453c51c","67c7195fafac60713890b448","passed","","null","","","","","","","","","","","","","","null","yesOrNo","","","","10","","","mid","700","","","84","536.4288568297004","300"
"","","","","","html-keyboard-response","263","638285","0.0-22.0-0.12","6759fa50a9bb240e423de357","6796e1c0ff24ca17c453c51c","67c7195fafac60713890b448","passed","","","","","","","","","","","","","","","","","ballFalling","604.4000000000001","667.6211431702998","201.78","9","fallScene","false","","","","","85","",""
"","","","","","html-keyboard-response","264","638988","0.0-22.0-1.12","6759fa50a9bb240e423de357","6796e1c0ff24ca17c453c51c","67c7195fafac60713890b448","passed","","null","","","","","","","","","","","","","","null","yesOrNo","","","","9","","","mid","700","","","85","605.4000000000001","300"
"","","","","","html-keyboard-response","265","640557","0.0-22.0-0.13","6759fa50a9bb240e423de357","6796e1c0ff24ca17c453c51c","67c7195fafac60713890b448","passed","","","","","","","","","","","","","","","","","ballFalling","500","553.4711431702997","282.51","7","fallScene","false","","","","","86","",""
"","","","","","html-keyboard-response","266","641262","0.0-22.0-1.13","6759fa50a9bb240e423de357","6796e1c0ff24ca17c453c51c","67c7195fafac60713890b448","passed","","582","","","","","","","","","","","","","","f","yesOrNo","","","","7","","","mid","700","","","86","501","300"
"","","","","","html-keyboard-response","267","643266","0.0-22.0-0.14","6759fa50a9bb240e423de357","6796e1c0ff24ca17c453c51c","67c7195fafac60713890b448","passed","","","","","","","","","","","","","","","","","ballFalling","500","510.8711431702997","369.03","8","fallScene","true","","","","","87","",""
"","","","","","html-keyboard-response","268","643970","0.0-22.0-1.14","6759fa50a9bb240e423de357","6796e1c0ff24ca17c453c51c","67c7195fafac60713890b448","passed","","445","","","","","","","","","","","","","","j","yesOrNo","","","","8","","","gt","700","","","87","510.8711431702997","369.03"
"","","","","","html-keyboard-response","269","645973","0.0-22.0-0.15","6759fa50a9bb240e423de357","6796e1c0ff24ca17c453c51c","67c7195fafac60713890b448","passed","","","","","","","","","","","","","","","","","ballFalling","604.4000000000001","596.8711431702998","394.5","10","fallScene","false","","","","","88","",""
"","","","","","html-keyboard-response","270","646676","0.0-22.0-1.15","6759fa50a9bb240e423de357","6796e1c0ff24ca17c453c51c","67c7195fafac60713890b448","passed","","609","","","","","","","","","","","","","","j","yesOrNo","","","","10","","","lp","700","","","88","603.4000000000001","215.50214355555383"
"","","","","","html-keyboard-response","271","648232","0.0-22.0-0.16","6759fa50a9bb240e423de357","6796e1c0ff24ca17c453c51c","67c7195fafac60713890b448","passed","","","","","","","","","","","","","","","","","ballFalling","604.4000000000001","575.4211431702997","266.76","12","fallScene","true","","","","","89","",""
"","","","","","html-keyboard-response","272","648937","0.0-22.0-1.16","6759fa50a9bb240e423de357","6796e1c0ff24ca17c453c51c","67c7195fafac60713890b448","passed","","null","","","","","","","","","","","","","","null","yesOrNo","","","","12","","","mid","700","","","89","536.4288568297004","300"
"","","","","","html-keyboard-response","273","650725","0.0-22.0-0.17","6759fa50a9bb240e423de357","6796e1c0ff24ca17c453c51c","67c7195fafac60713890b448","passed","","","","","","","","","","","","","","","","","ballFalling","322.3","308.07114317029976","253.89","2","fallScene","false","","","","","90","",""
"","","","","","html-keyboard-response","274","651427","0.0-22.0-1.17","6759fa50a9bb240e423de357","6796e1c0ff24ca17c453c51c","67c7195fafac60713890b448","passed","","null","","","","","","","","","","","","","","null","yesOrNo","","","","2","","","mid","700","","","90","321.3","300"
"","","","","","html-keyboard-response","275","653432","0.0-22.0-0.18","6759fa50a9bb240e423de357","6796e1c0ff24ca17c453c51c","67c7195fafac60713890b448","passed","","","","","","","","","","","","","","","","","ballFalling","500","510.8711431702997","369.03","8","fallScene","true","","","","","91","",""
"","","","","","html-keyboard-response","276","654136","0.0-22.0-1.18","6759fa50a9bb240e423de357","6796e1c0ff24ca17c453c51c","67c7195fafac60713890b448","passed","","null","","","","","","","","","","","","","","null","yesOrNo","","","","8","","","gt","700","","","91","510.8711431702997","369.03"
"","","","","","html-keyboard-response","277","656141","0.0-22.0-0.19","6759fa50a9bb240e423de357","6796e1c0ff24ca17c453c51c","67c7195fafac60713890b448","passed","","","","","","","","","","","","","","","","","ballFalling","500","510.8711431702997","369.03","8","fallScene","false","","","","","92","",""
"","","","","","html-keyboard-response","278","656845","0.0-22.0-1.19","6759fa50a9bb240e423de357","6796e1c0ff24ca17c453c51c","67c7195fafac60713890b448","passed","","null","","","","","","","","","","","","","","null","yesOrNo","","","","8","","","mid","700","","","92","501","300"
"","","","","","html-keyboard-response","279","658398","0.0-22.0-0.20","6759fa50a9bb240e423de357","6796e1c0ff24ca17c453c51c","67c7195fafac60713890b448","passed","","","","","","","","","","","","","","","","","ballFalling","322.3","296.07114317029976","371.46","3","fallScene","true","","","","","93","",""
"","","","","","html-keyboard-response","280","659101","0.0-22.0-1.20","6759fa50a9bb240e423de357","6796e1c0ff24ca17c453c51c","67c7195fafac60713890b448","passed","","322","","","","","","","","","","","","","","j","yesOrNo","","","","3","","","gt","700","","","93","296.07114317029976","371.46"
"","","","","","html-keyboard-response","281","660759","0.0-22.0-0.21","6759fa50a9bb240e423de357","6796e1c0ff24ca17c453c51c","67c7195fafac60713890b448","passed","","","","","","","","","","","","","","","","","ballFalling","500","479.92114317029973","330.87","6","fallScene","true","","","","","94","",""
"","","","","","html-keyboard-response","282","661463","0.0-22.0-1.21","6759fa50a9bb240e423de357","6796e1c0ff24ca17c453c51c","67c7195fafac60713890b448","passed","","268","","","","","","","","","","","","","","f","yesOrNo","","","","6","","","lp","700","","","94","499","189.92909825697632"
"","","","","","html-keyboard-response","283","663015","0.0-22.0-0.22","6759fa50a9bb240e423de357","6796e1c0ff24ca17c453c51c","67c7195fafac60713890b448","passed","","","","","","","","","","","","","","","","","ballFalling","604.4000000000001","650.0211431702996","404.58000000000004","11","fallScene","false","","","","","95","",""
"","","","","","html-keyboard-response","284","663718","0.0-22.0-1.22","6759fa50a9bb240e423de357","6796e1c0ff24ca17c453c51c","67c7195fafac60713890b448","passed","","9","","","","","","","","","","","","","","j","yesOrNo","","","","11","","","gt","700","","","95","650.0211431702996","404.58"
"","","","","","html-keyboard-response","285","665274","0.0-22.0-0.23","6759fa50a9bb240e423de357","6796e1c0ff24ca17c453c51c","67c7195fafac60713890b448","passed","","","","","","","","","","","","","","","","","ballFalling","322.3","379.3711431702997","245.25","1","fallScene","false","","","","","96","",""
"","","","","","html-keyboard-response","286","665979","0.0-22.0-1.23","6759fa50a9bb240e423de357","6796e1c0ff24ca17c453c51c","67c7195fafac60713890b448","passed","","320","","","","","","","","","","","","","","f","yesOrNo","","","","1","","","mid","700","","","96","390.27114317029975","300"
"","","","","","html-keyboard-response","287","671825","0.0-23.0","6759fa50a9bb240e423de357","6796e1c0ff24ca17c453c51c","67c7195fafac60713890b448","passed","","5846","","","","","","","","","","","","","<p><span style=""font-size:40px;"">BLOCK 5</span></p><p><span style=""font-size:25px;"">You have <b style=""color: #FF644F;""><strong>3 second(s)</strong></b> to respond to the following trials.</span><br></p><p></p> <!-- Blank line -->
                <p id=""blinking-text"" style=""font-weight; animation: blink 2s infinite;"">Press Space to continue</p>
                <style>
                    @keyframes blink {
                        50% {
                            opacity: 0;
                        }
                    }
                </style></p>"," ","","","","","","","","","","","","","",""
"","","","","","html-keyboard-response","288","673383","0.0-24.0-0.0","6759fa50a9bb240e423de357","6796e1c0ff24ca17c453c51c","67c7195fafac60713890b448","passed","","","","","","","","","","","","","","","","","ballFalling","604.4000000000001","650.0211431702996","404.58000000000004","11","fallScene","true","","","","","97","",""
"","","","","","html-keyboard-response","289","676387","0.0-24.0-1.0","6759fa50a9bb240e423de357","6796e1c0ff24ca17c453c51c","67c7195fafac60713890b448","passed","","629","","","","","","","","","","","","","","j","yesOrNo","","","","11","","","lp","3000","","","97","605.4000000000001","372.6340973215488"
"","","","","","html-keyboard-response","290","678403","0.0-24.0-0.1","6759fa50a9bb240e423de357","6796e1c0ff24ca17c453c51c","67c7195fafac60713890b448","passed","","","","","","","","","","","","","","","","","ballFalling","500","510.8711431702997","369.03","8","fallScene","true","","","","","98","",""
"","","","","","html-keyboard-response","291","681408","0.0-24.0-1.1","6759fa50a9bb240e423de357","6796e1c0ff24ca17c453c51c","67c7195fafac60713890b448","passed","","291","","","","","","","","","","","","","","j","yesOrNo","","","","8","","","mid","3000","","","98","501","300"
"","","","","","html-keyboard-response","292","683420","0.0-24.0-0.2","6759fa50a9bb240e423de357","6796e1c0ff24ca17c453c51c","67c7195fafac60713890b448","passed","","","","","","","","","","","","","","","","","ballFalling","604.4000000000001","596.8711431702998","394.5","10","fallScene","true","","","","","99","",""
"","","","","","html-keyboard-response","293","686425","0.0-24.0-1.2","6759fa50a9bb240e423de357","6796e1c0ff24ca17c453c51c","67c7195fafac60713890b448","passed","","250","","","","","","","","","","","","","","j","yesOrNo","","","","10","","","mid","3000","","","99","536.4288568297004","300"
"","","","","","html-keyboard-response","294","687993","0.0-24.0-0.3","6759fa50a9bb240e423de357","6796e1c0ff24ca17c453c51c","67c7195fafac60713890b448","passed","","","","","","","","","","","","","","","","","ballFalling","322.3","296.07114317029976","371.46","3","fallScene","true","","","","","100","",""
"","","","","","html-keyboard-response","295","690994","0.0-24.0-1.3","6759fa50a9bb240e423de357","6796e1c0ff24ca17c453c51c","67c7195fafac60713890b448","passed","","472","","","","","","","","","","","","","","f","yesOrNo","","","","3","","","mid","3000","","","100","321.3","300"
"","","","","","html-keyboard-response","296","692554","0.0-24.0-0.4","6759fa50a9bb240e423de357","6796e1c0ff24ca17c453c51c","67c7195fafac60713890b448","passed","","","","","","","","","","","","","","","","","ballFalling","500","553.4711431702997","282.51","7","fallScene","true","","","","","101","",""
"","","","","","html-keyboard-response","297","695560","0.0-24.0-1.4","6759fa50a9bb240e423de357","6796e1c0ff24ca17c453c51c","67c7195fafac60713890b448","passed","","2764","","","","","","","","","","","","","","f","yesOrNo","","","","7","","","mid","3000","","","101","501","300"
"","","","","","html-keyboard-response","298","697562","0.0-24.0-0.5","6759fa50a9bb240e423de357","6796e1c0ff24ca17c453c51c","67c7195fafac60713890b448","passed","","","","","","","","","","","","","","","","","ballFalling","604.4000000000001","596.8711431702998","394.5","10","fallScene","false","","","","","102","",""
"","","","","","html-keyboard-response","299","700566","0.0-24.0-1.5","6759fa50a9bb240e423de357","6796e1c0ff24ca17c453c51c","67c7195fafac60713890b448","passed","","299","","","","","","","","","","","","","","j","yesOrNo","","","","10","","","gt","3000","","","102","596.8711431702998","394.5"
