"success","timeout","failed_images","failed_audio","failed_video","trial_type","trial_index","time_elapsed","internal_node_id","subject_id","study_id","session_id","practiceTestResult","view_history","rt","width","height","webaudio","browser","browser_version","mobile","os","fullscreen","vsync_rate","webcam","microphone","url","stimulus","response","task","ball_X","obstacle_groundTruth_x","obstacle_groundTruth_y","stimulus_idx","trial_name","flipped","choice","timeLimit","question_order","comprehensionCheck","currentTrial","obstacle_choice_x","obstacle_choice_y"
"true","false","[]","[]","[]","preload","0","1947","0.0-0.0","6762abbea62dc4c2acf59fe0","6796e1c0ff24ca17c453c51c","67c715ba04b522cea8f2ad0a","passed","","","","","","","","","","","","","","","","","","","","","","","","","","","","","",""
"","","","","","instructions","1","9341","0.0-1.0","6762abbea62dc4c2acf59fe0","6796e1c0ff24ca17c453c51c","67c715ba04b522cea8f2ad0a","passed","[{""page_index"":0,""viewing_time"":7392}]","7393","","","","","","","","","","","","","","","","","","","","","","","","","","","",""
"","","","","","browser-check","2","11725","0.0-2.0","6762abbea62dc4c2acf59fe0","6796e1c0ff24ca17c453c51c","67c715ba04b522cea8f2ad0a","passed","","","1366","633","true","chrome","131.0.0","false","Windows 10","true","60.73","true","true","","","","","","","","","","","","","","","","",""
"","","","","","external-html","3","16790","0.0-3.0","6762abbea62dc4c2acf59fe0","6796e1c0ff24ca17c453c51c","67c715ba04b522cea8f2ad0a","passed","","4453","","","","","","","","","","","","consent.html","","","","","","","","","","","","","","","",""
"true","","","","","fullscreen","4","24788","0.0-4.0","6762abbea62dc4c2acf59fe0","6796e1c0ff24ca17c453c51c","67c715ba04b522cea8f2ad0a","passed","","7685","","","","","","","","","","","","","","","","","","","","","","","","","","","",""
"","","","","","browser-check","5","25789","0.0-5.0","6762abbea62dc4c2acf59fe0","6796e1c0ff24ca17c453c51c","67c715ba04b522cea8f2ad0a","passed","","","1366","768","true","chrome","131.0.0","false","Windows 10","true","60.42","true","true","","","","","","","","","","","","","","","","",""
"","","","","","html-keyboard-response","6","30487","0.0-6.0","6762abbea62dc4c2acf59fe0","6796e1c0ff24ca17c453c51c","67c715ba04b522cea8f2ad0a","passed","","4696","","","","","","","","","","","","","<p><b>This experiment requires keyboard input.</b></p> 
        <p><b>To ensure your response will be recorded successfully, please press 'Space' to continue.</b></p>
        <p>If you can't proceed, you won't be able to complete this study.</p>
        <p></p> <!-- Blank line -->
        <p id=""blinking-text"" style=""font-weight; animation: blink 2s infinite;"">Press Space to continue</p>
        <style>
            @keyframes blink {
                50% {
                    opacity: 0;
                }
            }
        </style>"," ","","","","","","","","","","","","","",""
"","","","","","html-keyboard-response","7","32655","0.0-7.0","6762abbea62dc4c2acf59fe0","6796e1c0ff24ca17c453c51c","67c715ba04b522cea8f2ad0a","passed","","2167","","","","","","","","","","","","","<p><b>This experiment requires keyboard input.</b></p> 
        <p><b>To ensure your response will be recorded successfully, please press the 'f' key to continue.</b></p>
        <p>If you can't proceed, you won't be able to complete this study.</p>
        <p></p> <!-- Blank line -->
        <p id=""blinking-text"" style=""font-weight; animation: blink 2s infinite;"">Press f to continue</p>
        <style>
            @keyframes blink {
                50% {
                    opacity: 0;
                }
            }
        </style>","f","","","","","","","","","","","","","",""
"","","","","","html-keyboard-response","8","33962","0.0-8.0","6762abbea62dc4c2acf59fe0","6796e1c0ff24ca17c453c51c","67c715ba04b522cea8f2ad0a","passed","","1305","","","","","","","","","","","","","<p><b>This experiment requires keyboard input.</b></p> 
        <p><b>To ensure your response will be recorded successfully, please press the 'j' key to continue.</b></p>
        <p>If you can't proceed, you won't be able to complete this study.</p>
        <p></p> <!-- Blank line -->
        <p id=""blinking-text"" style=""font-weight; animation: blink 2s infinite;"">Press j to continue</p>
        <style>
            @keyframes blink {
                50% {
                    opacity: 0;
                }
            }
        </style>","j","","","","","","","","","","","","","",""
"","","","","","browser-check","9","34971","0.0-9.0","6762abbea62dc4c2acf59fe0","6796e1c0ff24ca17c453c51c","67c715ba04b522cea8f2ad0a","passed","","","1366","768","true","chrome","131.0.0","false","Windows 10","true","60.02","true","true","","","","","","","","","","","","","","","","",""
"","","","","","survey-text","10","48487","0.0-10.0","6762abbea62dc4c2acf59fe0","6796e1c0ff24ca17c453c51c","67c715ba04b522cea8f2ad0a","passed","","13507","","","","","","","","","","","","","","{""prolificID"":""6762abbea62dc4c2acf59fe0""}","","","","","","","","","","","","","",""
"","","","","","instructions","11","99825","0.0-11.0-0.0-0.0","6762abbea62dc4c2acf59fe0","6796e1c0ff24ca17c453c51c","67c715ba04b522cea8f2ad0a","passed","[{""page_index"":0,""viewing_time"":19223},{""page_index"":1,""viewing_time"":12858},{""page_index"":2,""viewing_time"":10680},{""page_index"":3,""viewing_time"":8574}]","51336","","","","","","","","","","","","","","","","","","","","","","","","","","","",""
"","","","","","html-keyboard-response","12","108841","0.0-11.0-0.0-1.0","6762abbea62dc4c2acf59fe0","6796e1c0ff24ca17c453c51c","67c715ba04b522cea8f2ad0a","passed","","8504","","","","","","","","","","","","","<br>Remember! After a ball falls, the screen will disappear, and you'll decide if the proposed position is where the hidden triangle was. <br>You will now practice this by watching a few videos and making decisions.<p>To respond:<br style=""margin-bottom: 5px; text-indent: -20px; padding-left: 20px;"">- Press <b style=""color: #12AD2B;"">J for Yes</b>, if you think the triangle is in the correct position.<br style=""margin-top: 0; text-indent: -20px; padding-left: 20px;"">- Press <b style=""color: orange;"">F for No</b>, if you think the triangle is not in the correct position.</p><p>In this practice round, there is no time limit. Focus on getting comfortable with the task first.<br>Press either J or F to begin your practice trials.</p><img src = ""YesOrNo_instruction.png"" style=""width: 65%;""></img>","j","","","","","","","","","","","","","",""
"","","","","","html-keyboard-response","13","110387","0.0-11.0-0.0-2.0-0.0","6762abbea62dc4c2acf59fe0","6796e1c0ff24ca17c453c51c","67c715ba04b522cea8f2ad0a","passed","","","","","","","","","","","","","","","","","ballFalling_prac","416","464","296","1","fallScene","false","","","","","","",""
"","","","","","html-keyboard-response","14","110780","0.0-11.0-0.0-2.0-1.0","6762abbea62dc4c2acf59fe0","6796e1c0ff24ca17c453c51c","67c715ba04b522cea8f2ad0a","passed","","381","","","","","","","","","","","","","","j","yesOrNo_prac_noTimed","","","","1","","","gt","NA","","","","",""
"","","","","","html-keyboard-response","15","112352","0.0-11.0-0.0-2.0-0.1","6762abbea62dc4c2acf59fe0","6796e1c0ff24ca17c453c51c","67c715ba04b522cea8f2ad0a","passed","","","","","","","","","","","","","","","","","ballFalling_prac","441","414","302","5","fallScene","true","","","","","","",""
"","","","","","html-keyboard-response","16","112905","0.0-11.0-0.0-2.0-1.1","6762abbea62dc4c2acf59fe0","6796e1c0ff24ca17c453c51c","67c715ba04b522cea8f2ad0a","passed","","549","","","","","","","","","","","","","","f","yesOrNo_prac_noTimed","","","","5","","","close gt","NA","","","","",""
"","","","","","html-keyboard-response","17","115087","0.0-11.0-0.0-2.0-0.2","6762abbea62dc4c2acf59fe0","6796e1c0ff24ca17c453c51c","67c715ba04b522cea8f2ad0a","passed","","","","","","","","","","","","","","","","","ballFalling_prac","660","666","350","3","fallScene","false","","","","","","",""
"","","","","","html-keyboard-response","18","115598","0.0-11.0-0.0-2.0-1.2","6762abbea62dc4c2acf59fe0","6796e1c0ff24ca17c453c51c","67c715ba04b522cea8f2ad0a","passed","","506","","","","","","","","","","","","","","f","yesOrNo_prac_noTimed","","","","3","","","wrong direction","NA","","","","",""
"","","","","","instructions","19","1311741","0.0-11.0-0.0-3.0","6762abbea62dc4c2acf59fe0","6796e1c0ff24ca17c453c51c","67c715ba04b522cea8f2ad0a","passed","[{""page_index"":0,""viewing_time"":1185152},{""page_index"":1,""viewing_time"":10989}]","1196142","","","","","","","","","","","","","","","","","","","","","","","","","","","",""
"","","","","","html-button-response","20","1321100","0.0-11.0-0.0-4.0","6762abbea62dc4c2acf59fe0","6796e1c0ff24ca17c453c51c","67c715ba04b522cea8f2ad0a","passed","","8845","","","","","","","","","","","","","<p>To make sure you understood the task, we just have a <b>brief quiz</b> here.</p><p>If you need to review the instructions, click 'Previous'.</p><p>It's important to understand the task to do the study, so you have to pass the quiz to move to the study.</p>","0","","","","","","","","","","","","","",""
"","","","","","instructions","21","1343582","0.0-11.0-0.1-0.1","6762abbea62dc4c2acf59fe0","6796e1c0ff24ca17c453c51c","67c715ba04b522cea8f2ad0a","passed","[{""page_index"":0,""viewing_time"":16578},{""page_index"":1,""viewing_time"":2393},{""page_index"":2,""viewing_time"":1223},{""page_index"":3,""viewing_time"":2282}]","22477","","","","","","","","","","","","","","","","","","","","","","","","","","","",""
"","","","","","html-keyboard-response","22","1351603","0.0-11.0-0.1-1.1","6762abbea62dc4c2acf59fe0","6796e1c0ff24ca17c453c51c","67c715ba04b522cea8f2ad0a","passed","","7506","","","","","","","","","","","","","<br>Remember! After a ball falls, the screen will disappear, and you'll decide if the proposed position is where the hidden triangle was. <br>You will now practice this by watching a few videos and making decisions.<p>To respond:<br style=""margin-bottom: 5px; text-indent: -20px; padding-left: 20px;"">- Press <b style=""color: #12AD2B;"">J for Yes</b>, if you think the triangle is in the correct position.<br style=""margin-top: 0; text-indent: -20px; padding-left: 20px;"">- Press <b style=""color: orange;"">F for No</b>, if you think the triangle is not in the correct position.</p><p>In this practice round, there is no time limit. Focus on getting comfortable with the task first.<br>Press either J or F to begin your practice trials.</p><img src = ""YesOrNo_instruction.png"" style=""width: 65%;""></img>","j","","","","","","","","","","","","","",""
"","","","","","html-keyboard-response","23","1353861","0.0-11.0-0.1-2.1-0.3","6762abbea62dc4c2acf59fe0","6796e1c0ff24ca17c453c51c","67c715ba04b522cea8f2ad0a","passed","","","","","","","","","","","","","","","","","ballFalling_prac","416","464","296","1","fallScene","false","","","","","","",""
"","","","","","html-keyboard-response","24","1356212","0.0-11.0-0.1-2.1-1.3","6762abbea62dc4c2acf59fe0","6796e1c0ff24ca17c453c51c","67c715ba04b522cea8f2ad0a","passed","","2345","","","","","","","","","","","","","","j","yesOrNo_prac_noTimed","","","","1","","","gt","NA","","","","",""
"","","","","","html-keyboard-response","25","1357793","0.0-11.0-0.1-2.1-0.4","6762abbea62dc4c2acf59fe0","6796e1c0ff24ca17c453c51c","67c715ba04b522cea8f2ad0a","passed","","","","","","","","","","","","","","","","","ballFalling_prac","441","414","302","5","fallScene","true","","","","","","",""
"","","","","","html-keyboard-response","26","1357967","0.0-11.0-0.1-2.1-1.4","6762abbea62dc4c2acf59fe0","6796e1c0ff24ca17c453c51c","67c715ba04b522cea8f2ad0a","passed","","166","","","","","","","","","","","","","","j","yesOrNo_prac_noTimed","","","","5","","","close gt","NA","","","","",""
"","","","","","html-keyboard-response","27","1360093","0.0-11.0-0.1-2.1-0.5","6762abbea62dc4c2acf59fe0","6796e1c0ff24ca17c453c51c","67c715ba04b522cea8f2ad0a","passed","","","","","","","","","","","","","","","","","ballFalling_prac","660","666","350","3","fallScene","false","","","","","","",""
"","","","","","html-keyboard-response","28","1360156","0.0-11.0-0.1-2.1-1.5","6762abbea62dc4c2acf59fe0","6796e1c0ff24ca17c453c51c","67c715ba04b522cea8f2ad0a","passed","","56","","","","","","","","","","","","","","f","yesOrNo_prac_noTimed","","","","3","","","wrong direction","NA","","","","",""
"","","","","","instructions","29","1364484","0.0-11.0-0.1-3.1","6762abbea62dc4c2acf59fe0","6796e1c0ff24ca17c453c51c","67c715ba04b522cea8f2ad0a","passed","[{""page_index"":0,""viewing_time"":2941},{""page_index"":1,""viewing_time"":1385}]","4326","","","","","","","","","","","","","","","","","","","","","","","","","","","",""
"","","","","","html-button-response","30","1367118","0.0-11.0-0.1-4.1","6762abbea62dc4c2acf59fe0","6796e1c0ff24ca17c453c51c","67c715ba04b522cea8f2ad0a","passed","","2120","","","","","","","","","","","","","<p>To make sure you understood the task, we just have a <b>brief quiz</b> here.</p><p>If you need to review the instructions, click 'Previous'.</p><p>It's important to understand the task to do the study, so you have to pass the quiz to move to the study.</p>","1","","","","","","","","","","","","","",""
"","","","","","survey-multi-choice","31","1386265","0.0-11.0-1.0-0.0","6762abbea62dc4c2acf59fe0","6796e1c0ff24ca17c453c51c","67c715ba04b522cea8f2ad0a","passed","","19143","","","","","","","","","","","","","","{""generalProcedure"":""Watch a video of a ball falling, some of it behind a gray screen. After each video, decide if the triangle is at the spot where the ball hit the triangle behind the screen. There is time limit for the response.""}","","","","","","","","","","[0]","","","",""
"","","","","","survey-multi-choice","32","1390734","0.0-11.0-1.0-1.0","6762abbea62dc4c2acf59fe0","6796e1c0ff24ca17c453c51c","67c715ba04b522cea8f2ad0a","passed","","4467","","","","","","","","","","","","","","{""checkBallHitObstacle"":""No.""}","","","","","","","","","","[0]","","","",""
"","","","","","survey-multi-choice","33","1397469","0.0-11.0-1.0-2.0","6762abbea62dc4c2acf59fe0","6796e1c0ff24ca17c453c51c","67c715ba04b522cea8f2ad0a","passed","","6732","","","","","","","","","","","","","","{""checkTriangleVisibility"":""No, the triangle is hidden behind the gray screen.""}","","","","","","","","","","[0]","","","",""
"","","","","","survey-multi-choice","34","1402441","0.0-11.0-1.0-3.0","6762abbea62dc4c2acf59fe0","6796e1c0ff24ca17c453c51c","67c715ba04b522cea8f2ad0a","passed","","4969","","","","","","","","","","","","","","{""checkTimedResponse"":""Your response will not be recorded, and the trial will move to the next one.""}","","","","","","","","","","[0]","","","",""
"","","","","","survey-multi-choice","35","1418086","0.0-11.0-1.0-4.0","6762abbea62dc4c2acf59fe0","6796e1c0ff24ca17c453c51c","67c715ba04b522cea8f2ad0a","passed","","15642","","","","","","","","","","","","","","{""checkTimeBlockNotice"":""At the beginning of each block.""}","","","","","","","","","","[0]","","","",""
"","","","","","survey-multi-choice","36","1424334","0.0-11.0-1.0-5.0","6762abbea62dc4c2acf59fe0","6796e1c0ff24ca17c453c51c","67c715ba04b522cea8f2ad0a","passed","","6244","","","","","","","","","","","","","","{""checkTimeBlockSameness"":""Yes, the time limit is the same for all trials within a block.""}","","","","","","","","","","[0]","","","",""
"","","","","","survey-multi-choice","37","1446312","0.0-11.0-1.0-6.0","6762abbea62dc4c2acf59fe0","6796e1c0ff24ca17c453c51c","67c715ba04b522cea8f2ad0a","passed","","21975","","","","","","","","","","","","","","{""checkTrianglePrecision"":""No. The proposed purple triangle is not in the correct position because it doesn't match the location of the white triangle exactly.""}","","","","","","","","","","[0]","","","",""
"","","","","","html-button-response","38","1449308","0.0-11.0-2.0-0.0","6762abbea62dc4c2acf59fe0","6796e1c0ff24ca17c453c51c","67c715ba04b522cea8f2ad0a","passed","","2994","","","","","","","","","","","","","<p>Oops! You did not pass the quiz.</p><p>You will now repeat the instructions and practice.</p>","0","","","","","","","","","","","failed","","",""
"","","","","","instructions","39","1591593","0.0-11.1-0.2-0.2","6762abbea62dc4c2acf59fe0","6796e1c0ff24ca17c453c51c","67c715ba04b522cea8f2ad0a","passed","[{""page_index"":0,""viewing_time"":137574},{""page_index"":1,""viewing_time"":809},{""page_index"":2,""viewing_time"":2012},{""page_index"":3,""viewing_time"":1887}]","142283","","","","","","","","","","","","","","","","","","","","","","","","","","","",""
"","","","","","html-keyboard-response","40","1594978","0.0-11.1-0.2-1.2","6762abbea62dc4c2acf59fe0","6796e1c0ff24ca17c453c51c","67c715ba04b522cea8f2ad0a","passed","","2864","","","","","","","","","","","","","<br>Remember! After a ball falls, the screen will disappear, and you'll decide if the proposed position is where the hidden triangle was. <br>You will now practice this by watching a few videos and making decisions.<p>To respond:<br style=""margin-bottom: 5px; text-indent: -20px; padding-left: 20px;"">- Press <b style=""color: #12AD2B;"">J for Yes</b>, if you think the triangle is in the correct position.<br style=""margin-top: 0; text-indent: -20px; padding-left: 20px;"">- Press <b style=""color: orange;"">F for No</b>, if you think the triangle is not in the correct position.</p><p>In this practice round, there is no time limit. Focus on getting comfortable with the task first.<br>Press either J or F to begin your practice trials.</p><img src = ""YesOrNo_instruction.png"" style=""width: 65%;""></img>","j","","","","","","","","","","","","","",""
"","","","","","html-keyboard-response","41","1597065","0.0-11.1-0.2-2.2-0.6","6762abbea62dc4c2acf59fe0","6796e1c0ff24ca17c453c51c","67c715ba04b522cea8f2ad0a","passed","","","","","","","","","","","","","","","","","ballFalling_prac","660","666","350","3","fallScene","false","","","","","","",""
"","","","","","html-keyboard-response","42","1598033","0.0-11.1-0.2-2.2-1.6","6762abbea62dc4c2acf59fe0","6796e1c0ff24ca17c453c51c","67c715ba04b522cea8f2ad0a","passed","","962","","","","","","","","","","","","","","j","yesOrNo_prac_noTimed","","","","3","","","wrong direction","NA","","","","",""
"","","","","","html-keyboard-response","43","1599599","0.0-11.1-0.2-2.2-0.7","6762abbea62dc4c2acf59fe0","6796e1c0ff24ca17c453c51c","67c715ba04b522cea8f2ad0a","passed","","","","","","","","","","","","","","","","","ballFalling_prac","416","464","296","1","fallScene","false","","","","","","",""
"","","","","","html-keyboard-response","44","1599757","0.0-11.1-0.2-2.2-1.7","6762abbea62dc4c2acf59fe0","6796e1c0ff24ca17c453c51c","67c715ba04b522cea8f2ad0a","passed","","152","","","","","","","","","","","","","","j","yesOrNo_prac_noTimed","","","","1","","","gt","NA","","","","",""
"","","","","","html-keyboard-response","45","1601331","0.0-11.1-0.2-2.2-0.8","6762abbea62dc4c2acf59fe0","6796e1c0ff24ca17c453c51c","67c715ba04b522cea8f2ad0a","passed","","","","","","","","","","","","","","","","","ballFalling_prac","441","414","302","5","fallScene","true","","","","","","",""
"","","","","","html-keyboard-response","46","1601988","0.0-11.1-0.2-2.2-1.8","6762abbea62dc4c2acf59fe0","6796e1c0ff24ca17c453c51c","67c715ba04b522cea8f2ad0a","passed","","651","","","","","","","","","","","","","","j","yesOrNo_prac_noTimed","","","","5","","","close gt","NA","","","","",""
"","","","","","instructions","47","1605863","0.0-11.1-0.2-3.2","6762abbea62dc4c2acf59fe0","6796e1c0ff24ca17c453c51c","67c715ba04b522cea8f2ad0a","passed","[{""page_index"":0,""viewing_time"":2141},{""page_index"":1,""viewing_time"":1731}]","3873","","","","","","","","","","","","","","","","","","","","","","","","","","","",""
"","","","","","html-button-response","48","1607652","0.0-11.1-0.2-4.2","6762abbea62dc4c2acf59fe0","6796e1c0ff24ca17c453c51c","67c715ba04b522cea8f2ad0a","passed","","1274","","","","","","","","","","","","","<p>To make sure you understood the task, we just have a <b>brief quiz</b> here.</p><p>If you need to review the instructions, click 'Previous'.</p><p>It's important to understand the task to do the study, so you have to pass the quiz to move to the study.</p>","1","","","","","","","","","","","","","",""
"","","","","","survey-multi-choice","49","1613292","0.0-11.1-1.1-0.1","6762abbea62dc4c2acf59fe0","6796e1c0ff24ca17c453c51c","67c715ba04b522cea8f2ad0a","passed","","5637","","","","","","","","","","","","","","{""generalProcedure"":""Watch a video of a ball falling, some of it behind a gray screen. After each video, decide if the triangle is at the spot where the ball hit the triangle behind the screen. There is time limit for the response.""}","","","","","","","","","","[0]","","","",""
"","","","","","survey-multi-choice","50","1618865","0.0-11.1-1.1-1.1","6762abbea62dc4c2acf59fe0","6796e1c0ff24ca17c453c51c","67c715ba04b522cea8f2ad0a","passed","","5570","","","","","","","","","","","","","","{""checkBallHitObstacle"":""No.""}","","","","","","","","","","[0]","","","",""
"","","","","","survey-multi-choice","51","1623803","0.0-11.1-1.1-2.1","6762abbea62dc4c2acf59fe0","6796e1c0ff24ca17c453c51c","67c715ba04b522cea8f2ad0a","passed","","4935","","","","","","","","","","","","","","{""checkTriangleVisibility"":""No, the triangle is hidden behind the gray screen.""}","","","","","","","","","","[0]","","","",""
"","","","","","survey-multi-choice","52","1627271","0.0-11.1-1.1-3.1","6762abbea62dc4c2acf59fe0","6796e1c0ff24ca17c453c51c","67c715ba04b522cea8f2ad0a","passed","","3466","","","","","","","","","","","","","","{""checkTimedResponse"":""Your response will not be recorded, and the trial will move to the next one.""}","","","","","","","","","","[0]","","","",""
"","","","","","survey-multi-choice","53","1634080","0.0-11.1-1.1-4.1","6762abbea62dc4c2acf59fe0","6796e1c0ff24ca17c453c51c","67c715ba04b522cea8f2ad0a","passed","","6806","","","","","","","","","","","","","","{""checkTimeBlockNotice"":""At the beginning of each block.""}","","","","","","","","","","[0]","","","",""
"","","","","","survey-multi-choice","54","1642733","0.0-11.1-1.1-5.1","6762abbea62dc4c2acf59fe0","6796e1c0ff24ca17c453c51c","67c715ba04b522cea8f2ad0a","passed","","8650","","","","","","","","","","","","","","{""checkTimeBlockSameness"":""I am not sure.""}","","","","","","","","","","[0]","","","",""
"","","","","","survey-multi-choice","55","1663127","0.0-11.1-1.1-6.1","6762abbea62dc4c2acf59fe0","6796e1c0ff24ca17c453c51c","67c715ba04b522cea8f2ad0a","passed","","20390","","","","","","","","","","","","","","{""checkTrianglePrecision"":""No. The proposed purple triangle is not in the correct position because it doesn't match the location of the white triangle exactly.""}","","","","","","","","","","[0]","","","",""
"","","","","","html-button-response","56","1665339","0.0-11.1-2.1-0.1","6762abbea62dc4c2acf59fe0","6796e1c0ff24ca17c453c51c","67c715ba04b522cea8f2ad0a","passed","","2210","","","","","","","","","","","","","<p>Oops! You did not pass the quiz.</p><p>You will now repeat the instructions and practice.</p>","0","","","","","","","","","","","failed","","",""
"","","","","","instructions","57","1671379","0.0-11.2-0.3-0.3","6762abbea62dc4c2acf59fe0","6796e1c0ff24ca17c453c51c","67c715ba04b522cea8f2ad0a","passed","[{""page_index"":0,""viewing_time"":2287},{""page_index"":1,""viewing_time"":187},{""page_index"":2,""viewing_time"":1650},{""page_index"":3,""viewing_time"":1912}]","6038","","","","","","","","","","","","","","","","","","","","","","","","","","","",""
"","","","","","html-keyboard-response","58","1674201","0.0-11.2-0.3-1.3","6762abbea62dc4c2acf59fe0","6796e1c0ff24ca17c453c51c","67c715ba04b522cea8f2ad0a","passed","","2309","","","","","","","","","","","","","<br>Remember! After a ball falls, the screen will disappear, and you'll decide if the proposed position is where the hidden triangle was. <br>You will now practice this by watching a few videos and making decisions.<p>To respond:<br style=""margin-bottom: 5px; text-indent: -20px; padding-left: 20px;"">- Press <b style=""color: #12AD2B;"">J for Yes</b>, if you think the triangle is in the correct position.<br style=""margin-top: 0; text-indent: -20px; padding-left: 20px;"">- Press <b style=""color: orange;"">F for No</b>, if you think the triangle is not in the correct position.</p><p>In this practice round, there is no time limit. Focus on getting comfortable with the task first.<br>Press either J or F to begin your practice trials.</p><img src = ""YesOrNo_instruction.png"" style=""width: 65%;""></img>","j","","","","","","","","","","","","","",""
"","","","","","html-keyboard-response","59","1675762","0.0-11.2-0.3-2.3-0.9","6762abbea62dc4c2acf59fe0","6796e1c0ff24ca17c453c51c","67c715ba04b522cea8f2ad0a","passed","","","","","","","","","","","","","","","","","ballFalling_prac","441","414","302","5","fallScene","true","","","","","","",""
"","","","","","html-keyboard-response","60","1675875","0.0-11.2-0.3-2.3-1.9","6762abbea62dc4c2acf59fe0","6796e1c0ff24ca17c453c51c","67c715ba04b522cea8f2ad0a","passed","","107","","","","","","","","","","","","","","j","yesOrNo_prac_noTimed","","","","5","","","close gt","NA","","","","",""
"","","","","","html-keyboard-response","61","1677995","0.0-11.2-0.3-2.3-0.10","6762abbea62dc4c2acf59fe0","6796e1c0ff24ca17c453c51c","67c715ba04b522cea8f2ad0a","passed","","","","","","","","","","","","","","","","","ballFalling_prac","660","666","350","3","fallScene","false","","","","","","",""
"","","","","","html-keyboard-response","62","1678155","0.0-11.2-0.3-2.3-1.10","6762abbea62dc4c2acf59fe0","6796e1c0ff24ca17c453c51c","67c715ba04b522cea8f2ad0a","passed","","154","","","","","","","","","","","","","","j","yesOrNo_prac_noTimed","","","","3","","","wrong direction","NA","","","","",""
"","","","","","html-keyboard-response","63","1679694","0.0-11.2-0.3-2.3-0.11","6762abbea62dc4c2acf59fe0","6796e1c0ff24ca17c453c51c","67c715ba04b522cea8f2ad0a","passed","","","","","","","","","","","","","","","","","ballFalling_prac","416","464","296","1","fallScene","false","","","","","","",""
"","","","","","html-keyboard-response","64","1679738","0.0-11.2-0.3-2.3-1.11","6762abbea62dc4c2acf59fe0","6796e1c0ff24ca17c453c51c","67c715ba04b522cea8f2ad0a","passed","","38","","","","","","","","","","","","","","j","yesOrNo_prac_noTimed","","","","1","","","gt","NA","","","","",""
"","","","","","instructions","65","1702008","0.0-11.2-0.3-3.3","6762abbea62dc4c2acf59fe0","6796e1c0ff24ca17c453c51c","67c715ba04b522cea8f2ad0a","passed","[{""page_index"":0,""viewing_time"":2743},{""page_index"":1,""viewing_time"":19524}]","22268","","","","","","","","","","","","","","","","","","","","","","","","","","","",""
"","","","","","html-button-response","66","1706474","0.0-11.2-0.3-4.3","6762abbea62dc4c2acf59fe0","6796e1c0ff24ca17c453c51c","67c715ba04b522cea8f2ad0a","passed","","3954","","","","","","","","","","","","","<p>To make sure you understood the task, we just have a <b>brief quiz</b> here.</p><p>If you need to review the instructions, click 'Previous'.</p><p>It's important to understand the task to do the study, so you have to pass the quiz to move to the study.</p>","0","","","","","","","","","","","","","",""
"","","","","","instructions","67","1718173","0.0-11.2-0.4-0.4","6762abbea62dc4c2acf59fe0","6796e1c0ff24ca17c453c51c","67c715ba04b522cea8f2ad0a","passed","[{""page_index"":0,""viewing_time"":3899},{""page_index"":1,""viewing_time"":3070},{""page_index"":2,""viewing_time"":2306},{""page_index"":3,""viewing_time"":2421}]","11697","","","","","","","","","","","","","","","","","","","","","","","","","","","",""
"","","","","","html-keyboard-response","68","1723457","0.0-11.2-0.4-1.4","6762abbea62dc4c2acf59fe0","6796e1c0ff24ca17c453c51c","67c715ba04b522cea8f2ad0a","passed","","4778","","","","","","","","","","","","","<br>Remember! After a ball falls, the screen will disappear, and you'll decide if the proposed position is where the hidden triangle was. <br>You will now practice this by watching a few videos and making decisions.<p>To respond:<br style=""margin-bottom: 5px; text-indent: -20px; padding-left: 20px;"">- Press <b style=""color: #12AD2B;"">J for Yes</b>, if you think the triangle is in the correct position.<br style=""margin-top: 0; text-indent: -20px; padding-left: 20px;"">- Press <b style=""color: orange;"">F for No</b>, if you think the triangle is not in the correct position.</p><p>In this practice round, there is no time limit. Focus on getting comfortable with the task first.<br>Press either J or F to begin your practice trials.</p><img src = ""YesOrNo_instruction.png"" style=""width: 65%;""></img>","j","","","","","","","","","","","","","",""
"","","","","","html-keyboard-response","69","1724994","0.0-11.2-0.4-2.4-0.12","6762abbea62dc4c2acf59fe0","6796e1c0ff24ca17c453c51c","67c715ba04b522cea8f2ad0a","passed","","","","","","","","","","","","","","","","","ballFalling_prac","416","464","296","1","fallScene","false","","","","","","",""
"","","","","","html-keyboard-response","70","1725601","0.0-11.2-0.4-2.4-1.12","6762abbea62dc4c2acf59fe0","6796e1c0ff24ca17c453c51c","67c715ba04b522cea8f2ad0a","passed","","603","","","","","","","","","","","","","","j","yesOrNo_prac_noTimed","","","","1","","","gt","NA","","","","",""
"","","","","","html-keyboard-response","71","1727725","0.0-11.2-0.4-2.4-0.13","6762abbea62dc4c2acf59fe0","6796e1c0ff24ca17c453c51c","67c715ba04b522cea8f2ad0a","passed","","","","","","","","","","","","","","","","","ballFalling_prac","660","666","350","3","fallScene","false","","","","","","",""
"","","","","","html-keyboard-response","72","1729209","0.0-11.2-0.4-2.4-1.13","6762abbea62dc4c2acf59fe0","6796e1c0ff24ca17c453c51c","67c715ba04b522cea8f2ad0a","passed","","1477","","","","","","","","","","","","","","j","yesOrNo_prac_noTimed","","","","3","","","wrong direction","NA","","","","",""
"","","","","","html-keyboard-response","73","1730793","0.0-11.2-0.4-2.4-0.14","6762abbea62dc4c2acf59fe0","6796e1c0ff24ca17c453c51c","67c715ba04b522cea8f2ad0a","passed","","","","","","","","","","","","","","","","","ballFalling_prac","441","414","302","5","fallScene","true","","","","","","",""
"","","","","","html-keyboard-response","74","1731543","0.0-11.2-0.4-2.4-1.14","6762abbea62dc4c2acf59fe0","6796e1c0ff24ca17c453c51c","67c715ba04b522cea8f2ad0a","passed","","744","","","","","","","","","","","","","","j","yesOrNo_prac_noTimed","","","","5","","","close gt","NA","","","","",""
"","","","","","instructions","75","1760354","0.0-11.2-0.4-3.4","6762abbea62dc4c2acf59fe0","6796e1c0ff24ca17c453c51c","67c715ba04b522cea8f2ad0a","passed","[{""page_index"":0,""viewing_time"":19381},{""page_index"":1,""viewing_time"":9427}]","28810","","","","","","","","","","","","","","","","","","","","","","","","","","","",""
"","","","","","html-button-response","76","1765273","0.0-11.2-0.4-4.4","6762abbea62dc4c2acf59fe0","6796e1c0ff24ca17c453c51c","67c715ba04b522cea8f2ad0a","passed","","4404","","","","","","","","","","","","","<p>To make sure you understood the task, we just have a <b>brief quiz</b> here.</p><p>If you need to review the instructions, click 'Previous'.</p><p>It's important to understand the task to do the study, so you have to pass the quiz to move to the study.</p>","1","","","","","","","","","","","","","",""
"","","","","","survey-multi-choice","77","1770927","0.0-11.2-1.2-0.2","6762abbea62dc4c2acf59fe0","6796e1c0ff24ca17c453c51c","67c715ba04b522cea8f2ad0a","passed","","5651","","","","","","","","","","","","","","{""generalProcedure"":""Watch a video of a ball falling, some of it behind a gray screen. After each video, decide if the triangle is at the spot where the ball hit the triangle behind the screen. There is time limit for the response.""}","","","","","","","","","","[0]","","","",""
"","","","","","survey-multi-choice","78","1775850","0.0-11.2-1.2-1.2","6762abbea62dc4c2acf59fe0","6796e1c0ff24ca17c453c51c","67c715ba04b522cea8f2ad0a","passed","","4921","","","","","","","","","","","","","","{""checkBallHitObstacle"":""No.""}","","","","","","","","","","[0]","","","",""
"","","","","","survey-multi-choice","79","1781891","0.0-11.2-1.2-2.2","6762abbea62dc4c2acf59fe0","6796e1c0ff24ca17c453c51c","67c715ba04b522cea8f2ad0a","passed","","6040","","","","","","","","","","","","","","{""checkTriangleVisibility"":""No, the triangle is hidden behind the gray screen.""}","","","","","","","","","","[0]","","","",""
"","","","","","survey-multi-choice","80","1785032","0.0-11.2-1.2-3.2","6762abbea62dc4c2acf59fe0","6796e1c0ff24ca17c453c51c","67c715ba04b522cea8f2ad0a","passed","","3138","","","","","","","","","","","","","","{""checkTimedResponse"":""Your response will not be recorded, and the trial will move to the next one.""}","","","","","","","","","","[0]","","","",""
"","","","","","survey-multi-choice","81","1789757","0.0-11.2-1.2-4.2","6762abbea62dc4c2acf59fe0","6796e1c0ff24ca17c453c51c","67c715ba04b522cea8f2ad0a","passed","","4722","","","","","","","","","","","","","","{""checkTimeBlockNotice"":""At the beginning of each block.""}","","","","","","","","","","[0]","","","",""
"","","","","","survey-multi-choice","82","1792965","0.0-11.2-1.2-5.2","6762abbea62dc4c2acf59fe0","6796e1c0ff24ca17c453c51c","67c715ba04b522cea8f2ad0a","passed","","3205","","","","","","","","","","","","","","{""checkTimeBlockSameness"":""Yes, the time limit is the same for all trials within a block.""}","","","","","","","","","","[0]","","","",""
"","","","","","survey-multi-choice","83","1803776","0.0-11.2-1.2-6.2","6762abbea62dc4c2acf59fe0","6796e1c0ff24ca17c453c51c","67c715ba04b522cea8f2ad0a","passed","","10808","","","","","","","","","","","","","","{""checkTrianglePrecision"":""Yes. The proposed purple triangle is very close to the correct position, so I should choose 'Yes.'""}","","","","","","","","","","[0]","","","",""
"","","","","","html-button-response","84","1805455","0.0-11.2-2.2-0.2","6762abbea62dc4c2acf59fe0","6796e1c0ff24ca17c453c51c","67c715ba04b522cea8f2ad0a","passed","","1674","","","","","","","","","","","","","<p>Oops! You did not pass the quiz.</p><p>You will now repeat the instructions and practice.</p>","0","","","","","","","","","","","failed","","",""
"","","","","","instructions","85","1938818","0.0-11.3-0.5-0.5","6762abbea62dc4c2acf59fe0","6796e1c0ff24ca17c453c51c","67c715ba04b522cea8f2ad0a","passed","[{""page_index"":0,""viewing_time"":1468},{""page_index"":1,""viewing_time"":184},{""page_index"":2,""viewing_time"":1577},{""page_index"":3,""viewing_time"":130131}]","133361","","","","","","","","","","","","","","","","","","","","","","","","","","","",""
"","","","","","html-keyboard-response","86","1942972","0.0-11.3-0.5-1.5","6762abbea62dc4c2acf59fe0","6796e1c0ff24ca17c453c51c","67c715ba04b522cea8f2ad0a","passed","","3648","","","","","","","","","","","","","<br>Remember! After a ball falls, the screen will disappear, and you'll decide if the proposed position is where the hidden triangle was. <br>You will now practice this by watching a few videos and making decisions.<p>To respond:<br style=""margin-bottom: 5px; text-indent: -20px; padding-left: 20px;"">- Press <b style=""color: #12AD2B;"">J for Yes</b>, if you think the triangle is in the correct position.<br style=""margin-top: 0; text-indent: -20px; padding-left: 20px;"">- Press <b style=""color: orange;"">F for No</b>, if you think the triangle is not in the correct position.</p><p>In this practice round, there is no time limit. Focus on getting comfortable with the task first.<br>Press either J or F to begin your practice trials.</p><img src = ""YesOrNo_instruction.png"" style=""width: 65%;""></img>","j","","","","","","","","","","","","","",""
"","","","","","html-keyboard-response","87","1944499","0.0-11.3-0.5-2.5-0.15","6762abbea62dc4c2acf59fe0","6796e1c0ff24ca17c453c51c","67c715ba04b522cea8f2ad0a","passed","","","","","","","","","","","","","","","","","ballFalling_prac","416","464","296","1","fallScene","false","","","","","","",""
"","","","","","html-keyboard-response","88","1944920","0.0-11.3-0.5-2.5-1.15","6762abbea62dc4c2acf59fe0","6796e1c0ff24ca17c453c51c","67c715ba04b522cea8f2ad0a","passed","","415","","","","","","","","","","","","","","j","yesOrNo_prac_noTimed","","","","1","","","gt","NA","","","","",""
"","","","","","html-keyboard-response","89","1947033","0.0-11.3-0.5-2.5-0.16","6762abbea62dc4c2acf59fe0","6796e1c0ff24ca17c453c51c","67c715ba04b522cea8f2ad0a","passed","","","","","","","","","","","","","","","","","ballFalling_prac","660","666","350","3","fallScene","false","","","","","","",""
"","","","","","html-keyboard-response","90","1947936","0.0-11.3-0.5-2.5-1.16","6762abbea62dc4c2acf59fe0","6796e1c0ff24ca17c453c51c","67c715ba04b522cea8f2ad0a","passed","","897","","","","","","","","","","","","","","f","yesOrNo_prac_noTimed","","","","3","","","wrong direction","NA","","","","",""
"","","","","","html-keyboard-response","91","1949532","0.0-11.3-0.5-2.5-0.17","6762abbea62dc4c2acf59fe0","6796e1c0ff24ca17c453c51c","67c715ba04b522cea8f2ad0a","passed","","","","","","","","","","","","","","","","","ballFalling_prac","441","414","302","5","fallScene","true","","","","","","",""
"","","","","","html-keyboard-response","92","1950329","0.0-11.3-0.5-2.5-1.17","6762abbea62dc4c2acf59fe0","6796e1c0ff24ca17c453c51c","67c715ba04b522cea8f2ad0a","passed","","792","","","","","","","","","","","","","","j","yesOrNo_prac_noTimed","","","","5","","","close gt","NA","","","","",""
"","","","","","instructions","93","1962646","0.0-11.3-0.5-3.5","6762abbea62dc4c2acf59fe0","6796e1c0ff24ca17c453c51c","67c715ba04b522cea8f2ad0a","passed","[{""page_index"":0,""viewing_time"":1969},{""page_index"":1,""viewing_time"":10346}]","12315","","","","","","","","","","","","","","","","","","","","","","","","","","","",""
"","","","","","html-button-response","94","1964410","0.0-11.3-0.5-4.5","6762abbea62dc4c2acf59fe0","6796e1c0ff24ca17c453c51c","67c715ba04b522cea8f2ad0a","passed","","1254","","","","","","","","","","","","","<p>To make sure you understood the task, we just have a <b>brief quiz</b> here.</p><p>If you need to review the instructions, click 'Previous'.</p><p>It's important to understand the task to do the study, so you have to pass the quiz to move to the study.</p>","1","","","","","","","","","","","","","",""
"","","","","","survey-multi-choice","95","1983093","0.0-11.3-1.3-0.3","6762abbea62dc4c2acf59fe0","6796e1c0ff24ca17c453c51c","67c715ba04b522cea8f2ad0a","passed","","18679","","","","","","","","","","","","","","{""generalProcedure"":""Watch a video of a ball falling, some of it behind a gray screen. After each video, decide if the triangle is at the spot where the ball hit the triangle behind the screen. There is time limit for the response.""}","","","","","","","","","","[0]","","","",""
"","","","","","survey-multi-choice","96","1999034","0.0-11.3-1.3-1.3","6762abbea62dc4c2acf59fe0","6796e1c0ff24ca17c453c51c","67c715ba04b522cea8f2ad0a","passed","","15938","","","","","","","","","","","","","","{""checkBallHitObstacle"":""Yes.""}","","","","","","","","","","[0]","","","",""
"","","","","","survey-multi-choice","97","2012645","0.0-11.3-1.3-2.3","6762abbea62dc4c2acf59fe0","6796e1c0ff24ca17c453c51c","67c715ba04b522cea8f2ad0a","passed","","13609","","","","","","","","","","","","","","{""checkTriangleVisibility"":""No, the triangle is hidden behind the gray screen.""}","","","","","","","","","","[0]","","","",""
"","","","","","survey-multi-choice","98","2016546","0.0-11.3-1.3-3.3","6762abbea62dc4c2acf59fe0","6796e1c0ff24ca17c453c51c","67c715ba04b522cea8f2ad0a","passed","","3898","","","","","","","","","","","","","","{""checkTimedResponse"":""Your response will not be recorded, and the trial will move to the next one.""}","","","","","","","","","","[0]","","","",""
"","","","","","survey-multi-choice","99","2020099","0.0-11.3-1.3-4.3","6762abbea62dc4c2acf59fe0","6796e1c0ff24ca17c453c51c","67c715ba04b522cea8f2ad0a","passed","","3551","","","","","","","","","","","","","","{""checkTimeBlockNotice"":""At the beginning of each block.""}","","","","","","","","","","[0]","","","",""
"","","","","","survey-multi-choice","100","2024826","0.0-11.3-1.3-5.3","6762abbea62dc4c2acf59fe0","6796e1c0ff24ca17c453c51c","67c715ba04b522cea8f2ad0a","passed","","4724","","","","","","","","","","","","","","{""checkTimeBlockSameness"":""Yes, the time limit is the same for all trials within a block.""}","","","","","","","","","","[0]","","","",""
"","","","","","survey-multi-choice","101","2029307","0.0-11.3-1.3-6.3","6762abbea62dc4c2acf59fe0","6796e1c0ff24ca17c453c51c","67c715ba04b522cea8f2ad0a","passed","","4479","","","","","","","","","","","","","","{""checkTrianglePrecision"":""No. The proposed purple triangle is not in the correct position because it doesn't match the location of the white triangle exactly.""}","","","","","","","","","","[0]","","","",""
"","","","","","instructions","102","2052245","0.0-12.0","6762abbea62dc4c2acf59fe0","6796e1c0ff24ca17c453c51c","67c715ba04b522cea8f2ad0a","passed","[{""page_index"":0,""viewing_time"":6683},{""page_index"":1,""viewing_time"":8288},{""page_index"":2,""viewing_time"":3876},{""page_index"":3,""viewing_time"":4088}]","22936","","","","","","","","","","","","","","","","","","","","","","","","","","","",""
"","","","","","instructions","103","2054562","0.0-13.0-0.0","6762abbea62dc4c2acf59fe0","6796e1c0ff24ca17c453c51c","67c715ba04b522cea8f2ad0a","passed","[{""page_index"":0,""viewing_time"":2316}]","2317","","","","","","","","","","","","","","","","","","","","","","","","","","","",""
"","","","","","html-keyboard-response","104","2060307","0.0-13.0-1.0","6762abbea62dc4c2acf59fe0","6796e1c0ff24ca17c453c51c","67c715ba04b522cea8f2ad0a","passed","","5743","","","","","","","","","","","","","<p><span style=""font-size:40px;"">Practice BLOCK 1</span></p><p><span style=""font-size:25px;"">You have <b style=""color: #FF644F;""><strong>3 second(s)</strong></b> to respond to the following trials.</span><br></p><p id=""blinking-text"" style=""font-weight; animation: blink 2s infinite;"">Press Space to continue</p><style>
                    @keyframes blink {
                        50% {
                            opacity: 0;
                        }
                    }
                </style>"," ","","","","","","","","","","","","","",""
"","","","","","html-keyboard-response","105","2061860","0.0-13.0-2.0-0.0","6762abbea62dc4c2acf59fe0","6796e1c0ff24ca17c453c51c","67c715ba04b522cea8f2ad0a","passed","","","","","","","","","","","","","","","","","ballFalling_prac","584","536","296","1","fallScene","true","","","","","","",""
"","","","","","html-keyboard-response","106","2064886","0.0-13.0-2.0-1.0","6762abbea62dc4c2acf59fe0","6796e1c0ff24ca17c453c51c","67c715ba04b522cea8f2ad0a","passed","","1891","","","","","","","","","","","","","","j","yesOrNo_prac","","","","1","","","close gt","3000","","","","",""
"","","","","","html-keyboard-response","107","2066460","0.0-13.0-2.0-0.1","6762abbea62dc4c2acf59fe0","6796e1c0ff24ca17c453c51c","67c715ba04b522cea8f2ad0a","passed","","","","","","","","","","","","","","","","","ballFalling_prac","660","610","263","4","fallScene","false","","","","","","",""
"","","","","","html-keyboard-response","108","2069471","0.0-13.0-2.0-1.1","6762abbea62dc4c2acf59fe0","6796e1c0ff24ca17c453c51c","67c715ba04b522cea8f2ad0a","passed","","875","","","","","","","","","","","","","","f","yesOrNo_prac","","","","4","","","gt","3000","","","","",""
"","","","","","html-keyboard-response","109","2071027","0.0-13.0-2.0-0.2","6762abbea62dc4c2acf59fe0","6796e1c0ff24ca17c453c51c","67c715ba04b522cea8f2ad0a","passed","","","","","","","","","","","","","","","","","ballFalling_prac","416","464","296","1","fallScene","false","","","","","","",""
"","","","","","html-keyboard-response","110","2074046","0.0-13.0-2.0-1.2","6762abbea62dc4c2acf59fe0","6796e1c0ff24ca17c453c51c","67c715ba04b522cea8f2ad0a","passed","","null","","","","","","","","","","","","","","null","yesOrNo_prac","","","","1","","","far gt","3000","","","","",""
"","","","","","html-keyboard-response","111","2076439","0.0-13.0-3.0","6762abbea62dc4c2acf59fe0","6796e1c0ff24ca17c453c51c","67c715ba04b522cea8f2ad0a","passed","","2390","","","","","","","","","","","","","<p><span style=""font-size:40px;"">Practice BLOCK 2</span></p><p><span style=""font-size:25px;"">You have <b style=""color: #FF644F;""><strong>0.7 second(s)</strong></b> to respond to the following trials.</span><br></p><p id=""blinking-text"" style=""font-weight; animation: blink 2s infinite;"">Press Space to continue</p><style>
                    @keyframes blink {
                        50% {
                            opacity: 0;
                        }
                    }
                </style>"," ","","","","","","","","","","","","","",""
"","","","","","html-keyboard-response","112","2078026","0.0-13.0-4.0-0.0","6762abbea62dc4c2acf59fe0","6796e1c0ff24ca17c453c51c","67c715ba04b522cea8f2ad0a","passed","","","","","","","","","","","","","","","","","ballFalling_prac","660","610","263","4","fallScene","false","","","","","","",""
"","","","","","html-keyboard-response","113","2078747","0.0-13.0-4.0-1.0","6762abbea62dc4c2acf59fe0","6796e1c0ff24ca17c453c51c","67c715ba04b522cea8f2ad0a","passed","","null","","","","","","","","","","","","","","null","yesOrNo_prac","","","","4","","","far gt","700","","","","",""
"","","","","","html-keyboard-response","114","2080292","0.0-13.0-4.0-0.1","6762abbea62dc4c2acf59fe0","6796e1c0ff24ca17c453c51c","67c715ba04b522cea8f2ad0a","passed","","","","","","","","","","","","","","","","","ballFalling_prac","441","500","317","6","fallScene","true","","","","","","",""
"","","","","","html-keyboard-response","115","2081000","0.0-13.0-4.0-1.1","6762abbea62dc4c2acf59fe0","6796e1c0ff24ca17c453c51c","67c715ba04b522cea8f2ad0a","passed","","null","","","","","","","","","","","","","","null","yesOrNo_prac","","","","6","","","gt","700","","","","",""
"","","","","","html-keyboard-response","116","2083126","0.0-13.0-4.0-0.2","6762abbea62dc4c2acf59fe0","6796e1c0ff24ca17c453c51c","67c715ba04b522cea8f2ad0a","passed","","","","","","","","","","","","","","","","","ballFalling_prac","340","334","350","3","fallScene","true","","","","","","",""
"","","","","","html-keyboard-response","117","2083844","0.0-13.0-4.0-1.2","6762abbea62dc4c2acf59fe0","6796e1c0ff24ca17c453c51c","67c715ba04b522cea8f2ad0a","passed","","null","","","","","","","","","","","","","","null","yesOrNo_prac","","","","3","","","close gt","700","","","","",""
"","","","","","instructions","118","2133485","0.0-13.0-5.0","6762abbea62dc4c2acf59fe0","6796e1c0ff24ca17c453c51c","67c715ba04b522cea8f2ad0a","passed","[{""page_index"":0,""viewing_time"":49639}]","49640","","","","","","","","","","","","","","","","","","","","","","","","","","","",""
"","","","","","html-keyboard-response","119","2137175","0.0-13.0-6.0","6762abbea62dc4c2acf59fe0","6796e1c0ff24ca17c453c51c","67c715ba04b522cea8f2ad0a","passed","","3687","","","","","","","","","","","","","<p><span style=""font-size:40px;"">Practice Test BLOCK 1</span></p><p><span style=""font-size:25px;"">You have <b style=""color: #FF644F;""><strong>0.7 second(s)</strong></b> to respond to the following trials.</span><br></p><p id=""blinking-text"" style=""font-weight; animation: blink 2s infinite;"">Press Space to continue</p><style>
                    @keyframes blink {
                        50% {
                            opacity: 0;
                        }
                    }
                </style>"," ","","","","","","","","","","","","","",""
"","","","","","html-keyboard-response","120","2138774","0.0-13.0-7.0-0.0","6762abbea62dc4c2acf59fe0","6796e1c0ff24ca17c453c51c","67c715ba04b522cea8f2ad0a","passed","","","","","","","","","","","","","","","","","ballFalling_prac","340","390","263","4","fallScene","true","","","","","","",""
"","","","","","html-keyboard-response","121","2139489","0.0-13.0-7.0-1.0","6762abbea62dc4c2acf59fe0","6796e1c0ff24ca17c453c51c","67c715ba04b522cea8f2ad0a","passed","","600","","","","","","","","","","","","","","j","yesOrNo_prac","","","","4","","","far gt","700","","","","",""
"","","","","","html-keyboard-response","122","2141040","0.0-13.0-7.0-0.1","6762abbea62dc4c2acf59fe0","6796e1c0ff24ca17c453c51c","67c715ba04b522cea8f2ad0a","passed","","","","","","","","","","","","","","","","","ballFalling_prac","441","500","317","6","fallScene","true","","","","","","",""
"","","","","","html-keyboard-response","123","2141754","0.0-13.0-7.0-1.1","6762abbea62dc4c2acf59fe0","6796e1c0ff24ca17c453c51c","67c715ba04b522cea8f2ad0a","passed","","null","","","","","","","","","","","","","","null","yesOrNo_prac","","","","6","","","close gt","700","","","","",""
"","","","","","html-keyboard-response","124","2143339","0.0-13.0-7.0-0.2","6762abbea62dc4c2acf59fe0","6796e1c0ff24ca17c453c51c","67c715ba04b522cea8f2ad0a","passed","","","","","","","","","","","","","","","","","ballFalling_prac","559","586","302","5","fallScene","false","","","","","","",""
"","","","","","html-keyboard-response","125","2144050","0.0-13.0-7.0-1.2","6762abbea62dc4c2acf59fe0","6796e1c0ff24ca17c453c51c","67c715ba04b522cea8f2ad0a","passed","","588","","","","","","","","","","","","","","j","yesOrNo_prac","","","","5","","","gt","700","","","","",""
"","","","","","html-keyboard-response","126","2144766","0.0-13.0-8.0","6762abbea62dc4c2acf59fe0","6796e1c0ff24ca17c453c51c","67c715ba04b522cea8f2ad0a","passed","","714","","","","","","","","","","","","","<p><span style=""font-size:40px;"">Practice Test BLOCK 2</span></p><p><span style=""font-size:25px;"">You have <b style=""color: #FF644F;""><strong>3 second(s)</strong></b> to respond to the following trials.</span><br></p><p id=""blinking-text"" style=""font-weight; animation: blink 2s infinite;"">Press Space to continue</p><style>
                    @keyframes blink {
                        50% {
                            opacity: 0;
                        }
                    }
                </style>"," ","","","","","","","","","","","","","",""
"","","","","","html-keyboard-response","127","2146340","0.0-13.0-9.0-0.0","6762abbea62dc4c2acf59fe0","6796e1c0ff24ca17c453c51c","67c715ba04b522cea8f2ad0a","passed","","","","","","","","","","","","","","","","","ballFalling_prac","340","390","263","4","fallScene","true","","","","","","",""
"","","","","","html-keyboard-response","128","2149351","0.0-13.0-9.0-1.0","6762abbea62dc4c2acf59fe0","6796e1c0ff24ca17c453c51c","67c715ba04b522cea8f2ad0a","passed","","364","","","","","","","","","","","","","","j","yesOrNo_prac","","","","4","","","close gt","3000","","","","",""
"","","","","","html-keyboard-response","129","2150939","0.0-13.0-9.0-0.1","6762abbea62dc4c2acf59fe0","6796e1c0ff24ca17c453c51c","67c715ba04b522cea8f2ad0a","passed","","","","","","","","","","","","","","","","","ballFalling_prac","416","365","249","2","fallScene","false","","","","","","",""
"","","","","","html-keyboard-response","130","2153956","0.0-13.0-9.0-1.1","6762abbea62dc4c2acf59fe0","6796e1c0ff24ca17c453c51c","67c715ba04b522cea8f2ad0a","passed","","254","","","","","","","","","","","","","","f","yesOrNo_prac","","","","2","","","gt","3000","","","","",""
"","","","","","html-keyboard-response","131","2155539","0.0-13.0-9.0-0.2","6762abbea62dc4c2acf59fe0","6796e1c0ff24ca17c453c51c","67c715ba04b522cea8f2ad0a","passed","","","","","","","","","","","","","","","","","ballFalling_prac","559","586","302","5","fallScene","false","","","","","","",""
"","","","","","html-keyboard-response","132","2158560","0.0-13.0-9.0-1.2","6762abbea62dc4c2acf59fe0","6796e1c0ff24ca17c453c51c","67c715ba04b522cea8f2ad0a","passed","","1016","","","","","","","","","","","","","","j","yesOrNo_prac","","","","5","","","far gt","3000","","","","",""
"","","","","","instructions","133","2167015","0.0-14.0","6762abbea62dc4c2acf59fe0","6796e1c0ff24ca17c453c51c","67c715ba04b522cea8f2ad0a","passed","[{""page_index"":0,""viewing_time"":8450}]","8451","","","","","","","","","","","","","","","","","","","","","","","","","","","",""
"","","","","","html-keyboard-response","134","2169093","0.0-15.0","6762abbea62dc4c2acf59fe0","6796e1c0ff24ca17c453c51c","67c715ba04b522cea8f2ad0a","passed","","2075","","","","","","","","","","","","","<p><span style=""font-size:40px;"">BLOCK 1</span></p><p><span style=""font-size:25px;"">You have <b style=""color: #FF644F;""><strong>3 second(s)</strong></b> to respond to the following trials.</span><br></p><p></p> <!-- Blank line -->
                <p id=""blinking-text"" style=""font-weight; animation: blink 2s infinite;"">Press Space to continue</p>
                <style>
                    @keyframes blink {
                        50% {
                            opacity: 0;
                        }
                    }
                </style></p>"," ","","","","","","","","","","","","","",""
"","","","","","html-keyboard-response","135","2170638","0.0-16.0-0.0","6762abbea62dc4c2acf59fe0","6796e1c0ff24ca17c453c51c","67c715ba04b522cea8f2ad0a","passed","","","","","","","","","","","","","","","","","ballFalling","604.4000000000001","650.0211431702996","404.58000000000004","11","fallScene","true","","","","","1","",""
"","","","","","html-keyboard-response","136","2173654","0.0-16.0-1.0","6762abbea62dc4c2acf59fe0","6796e1c0ff24ca17c453c51c","67c715ba04b522cea8f2ad0a","passed","","487","","","","","","","","","","","","","","j","yesOrNo","","","","11","","","mid","3000","","","1","605.4000000000001","300"
"","","","","","html-keyboard-response","137","2175205","0.0-16.0-0.1","6762abbea62dc4c2acf59fe0","6796e1c0ff24ca17c453c51c","67c715ba04b522cea8f2ad0a","passed","","","","","","","","","","","","","","","","","ballFalling","604.4000000000001","650.0211431702996","404.58000000000004","11","fallScene","true","","","","","2","",""
"","","","","","html-keyboard-response","138","2178212","0.0-16.0-1.1","6762abbea62dc4c2acf59fe0","6796e1c0ff24ca17c453c51c","67c715ba04b522cea8f2ad0a","passed","","814","","","","","","","","","","","","","","j","yesOrNo","","","","11","","","gt","3000","","","2","650.0211431702996","404.58"
"","","","","","html-keyboard-response","139","2179704","0.0-16.0-0.2","6762abbea62dc4c2acf59fe0","6796e1c0ff24ca17c453c51c","67c715ba04b522cea8f2ad0a","passed","","","","","","","","","","","","","","","","","ballFalling","604.4000000000001","667.6211431702998","201.78","9","fallScene","false","","","","","3","",""
"","","","","","html-keyboard-response","140","2182721","0.0-16.0-1.2","6762abbea62dc4c2acf59fe0","6796e1c0ff24ca17c453c51c","67c715ba04b522cea8f2ad0a","passed","","1197","","","","","","","","","","","","","","f","yesOrNo","","","","9","","","gt","3000","","","3","667.6211431702998","201.78"
"","","","","","html-keyboard-response","141","2184271","0.0-16.0-0.3","6762abbea62dc4c2acf59fe0","6796e1c0ff24ca17c453c51c","67c715ba04b522cea8f2ad0a","passed","","","","","","","","","","","","","","","","","ballFalling","322.3","296.07114317029976","371.46","3","fallScene","false","","","","","4","",""
"","","","","","html-keyboard-response","142","2187289","0.0-16.0-1.3","6762abbea62dc4c2acf59fe0","6796e1c0ff24ca17c453c51c","67c715ba04b522cea8f2ad0a","passed","","1033","","","","","","","","","","","","","","j","yesOrNo","","","","3","","","lp","3000","","","4","321.3","287.3327096511259"
"","","","","","html-keyboard-response","143","2188838","0.0-16.0-0.4","6762abbea62dc4c2acf59fe0","6796e1c0ff24ca17c453c51c","67c715ba04b522cea8f2ad0a","passed","","","","","","","","","","","","","","","","","ballFalling","500","453.67114317029973","210.33","5","fallScene","true","","","","","5","",""
"","","","","","html-keyboard-response","144","2191846","0.0-16.0-1.4","6762abbea62dc4c2acf59fe0","6796e1c0ff24ca17c453c51c","67c715ba04b522cea8f2ad0a","passed","","903","","","","","","","","","","","","","","f","yesOrNo","","","","5","","","mid","3000","","","5","499","300"
"","","","","","html-keyboard-response","145","2193871","0.0-16.0-0.5","6762abbea62dc4c2acf59fe0","6796e1c0ff24ca17c453c51c","67c715ba04b522cea8f2ad0a","passed","","","","","","","","","","","","","","","","","ballFalling","500","510.8711431702997","369.03","8","fallScene","false","","","","","6","",""
"","","","","","html-keyboard-response","146","2196891","0.0-16.0-1.5","6762abbea62dc4c2acf59fe0","6796e1c0ff24ca17c453c51c","67c715ba04b522cea8f2ad0a","passed","","1159","","","","","","","","","","","","","","f","yesOrNo","","","","8","","","lp","3000","","","6","501","151"
"","","","","","html-keyboard-response","147","2198538","0.0-16.0-0.6","6762abbea62dc4c2acf59fe0","6796e1c0ff24ca17c453c51c","67c715ba04b522cea8f2ad0a","passed","","","","","","","","","","","","","","","","","ballFalling","500","479.92114317029973","330.87","6","fallScene","true","","","","","7","",""
"","","","","","html-keyboard-response","148","2201553","0.0-16.0-1.6","6762abbea62dc4c2acf59fe0","6796e1c0ff24ca17c453c51c","67c715ba04b522cea8f2ad0a","passed","","880","","","","","","","","","","","","","","f","yesOrNo","","","","6","","","lp","3000","","","7","499","189.92909825697632"
"","","","","","html-keyboard-response","149","2203037","0.0-16.0-0.7","6762abbea62dc4c2acf59fe0","6796e1c0ff24ca17c453c51c","67c715ba04b522cea8f2ad0a","passed","","","","","","","","","","","","","","","","","ballFalling","604.4000000000001","667.6211431702998","201.78","9","fallScene","true","","","","","8","",""
"","","","","","html-keyboard-response","150","2206052","0.0-16.0-1.7","6762abbea62dc4c2acf59fe0","6796e1c0ff24ca17c453c51c","67c715ba04b522cea8f2ad0a","passed","","801","","","","","","","","","","","","","","j","yesOrNo","","","","9","","","mid","3000","","","8","605.4000000000001","300"
"","","","","","html-keyboard-response","151","2207603","0.0-16.0-0.8","6762abbea62dc4c2acf59fe0","6796e1c0ff24ca17c453c51c","67c715ba04b522cea8f2ad0a","passed","","","","","","","","","","","","","","","","","ballFalling","322.3","356.42114317029973","357.87","4","fallScene","true","","","","","9","",""
"","","","","","html-keyboard-response","152","2210621","0.0-16.0-1.8","6762abbea62dc4c2acf59fe0","6796e1c0ff24ca17c453c51c","67c715ba04b522cea8f2ad0a","passed","","788","","","","","","","","","","","","","","j","yesOrNo","","","","4","","","gt","3000","","","9","356.42114317029973","357.87"
"","","","","","html-keyboard-response","153","2212170","0.0-16.0-0.9","6762abbea62dc4c2acf59fe0","6796e1c0ff24ca17c453c51c","67c715ba04b522cea8f2ad0a","passed","","","","","","","","","","","","","","","","","ballFalling","500","453.67114317029973","210.33","5","fallScene","false","","","","","10","",""
"","","","","","html-keyboard-response","154","2215181","0.0-16.0-1.9","6762abbea62dc4c2acf59fe0","6796e1c0ff24ca17c453c51c","67c715ba04b522cea8f2ad0a","passed","","343","","","","","","","","","","","","","","j","yesOrNo","","","","5","","","mid","3000","","","10","499","300"
"","","","","","html-keyboard-response","155","2216736","0.0-16.0-0.10","6762abbea62dc4c2acf59fe0","6796e1c0ff24ca17c453c51c","67c715ba04b522cea8f2ad0a","passed","","","","","","","","","","","","","","","","","ballFalling","500","453.67114317029973","210.33","5","fallScene","true","","","","","11","",""
"","","","","","html-keyboard-response","156","2219749","0.0-16.0-1.10","6762abbea62dc4c2acf59fe0","6796e1c0ff24ca17c453c51c","67c715ba04b522cea8f2ad0a","passed","","875","","","","","","","","","","","","","","f","yesOrNo","","","","5","","","lp","3000","","","11","499","151"
"","","","","","html-keyboard-response","157","2221336","0.0-16.0-0.11","6762abbea62dc4c2acf59fe0","6796e1c0ff24ca17c453c51c","67c715ba04b522cea8f2ad0a","passed","","","","","","","","","","","","","","","","","ballFalling","500","553.4711431702997","282.51","7","fallScene","true","","","","","12","",""
"","","","","","html-keyboard-response","158","2224349","0.0-16.0-1.11","6762abbea62dc4c2acf59fe0","6796e1c0ff24ca17c453c51c","67c715ba04b522cea8f2ad0a","passed","","509","","","","","","","","","","","","","","j","yesOrNo","","","","7","","","mid","3000","","","12","501","300"
"","","","","","html-keyboard-response","159","2226002","0.0-16.0-0.12","6762abbea62dc4c2acf59fe0","6796e1c0ff24ca17c453c51c","67c715ba04b522cea8f2ad0a","passed","","","","","","","","","","","","","","","","","ballFalling","500","479.92114317029973","330.87","6","fallScene","false","","","","","13","",""
"","","","","","html-keyboard-response","160","2229014","0.0-16.0-1.12","6762abbea62dc4c2acf59fe0","6796e1c0ff24ca17c453c51c","67c715ba04b522cea8f2ad0a","passed","","557","","","","","","","","","","","","","","j","yesOrNo","","","","6","","","gt","3000","","","13","479.9211431702998","330.87"
"","","","","","html-keyboard-response","161","2230803","0.0-16.0-0.13","6762abbea62dc4c2acf59fe0","6796e1c0ff24ca17c453c51c","67c715ba04b522cea8f2ad0a","passed","","","","","","","","","","","","","","","","","ballFalling","322.3","308.07114317029976","253.89","2","fallScene","true","","","","","14","",""
"","","","","","html-keyboard-response","162","2233814","0.0-16.0-1.13","6762abbea62dc4c2acf59fe0","6796e1c0ff24ca17c453c51c","67c715ba04b522cea8f2ad0a","passed","","462","","","","","","","","","","","","","","f","yesOrNo","","","","2","","","lp","3000","","","14","321.3","151"
"","","","","","html-keyboard-response","163","2235835","0.0-16.0-0.14","6762abbea62dc4c2acf59fe0","6796e1c0ff24ca17c453c51c","67c715ba04b522cea8f2ad0a","passed","","","","","","","","","","","","","","","","","ballFalling","604.4000000000001","596.8711431702998","394.5","10","fallScene","true","","","","","15","",""
"","","","","","html-keyboard-response","164","2238852","0.0-16.0-1.14","6762abbea62dc4c2acf59fe0","6796e1c0ff24ca17c453c51c","67c715ba04b522cea8f2ad0a","passed","","415","","","","","","","","","","","","","","j","yesOrNo","","","","10","","","lp","3000","","","15","603.4000000000001","215.50214355555383"
"","","","","","html-keyboard-response","165","2240868","0.0-16.0-0.15","6762abbea62dc4c2acf59fe0","6796e1c0ff24ca17c453c51c","67c715ba04b522cea8f2ad0a","passed","","","","","","","","","","","","","","","","","ballFalling","500","510.8711431702997","369.03","8","fallScene","true","","","","","16","",""
"","","","","","html-keyboard-response","166","2243875","0.0-16.0-1.15","6762abbea62dc4c2acf59fe0","6796e1c0ff24ca17c453c51c","67c715ba04b522cea8f2ad0a","passed","","399","","","","","","","","","","","","","","j","yesOrNo","","","","8","","","gt","3000","","","16","510.8711431702997","369.03"
"","","","","","html-keyboard-response","167","2245434","0.0-16.0-0.16","6762abbea62dc4c2acf59fe0","6796e1c0ff24ca17c453c51c","67c715ba04b522cea8f2ad0a","passed","","","","","","","","","","","","","","","","","ballFalling","322.3","356.42114317029973","357.87","4","fallScene","true","","","","","17","",""
"","","","","","html-keyboard-response","168","2248441","0.0-16.0-1.16","6762abbea62dc4c2acf59fe0","6796e1c0ff24ca17c453c51c","67c715ba04b522cea8f2ad0a","passed","","980","","","","","","","","","","","","","","j","yesOrNo","","","","4","","","mid","3000","","","17","390.27114317029975","300"
"","","","","","html-keyboard-response","169","2250101","0.0-16.0-0.17","6762abbea62dc4c2acf59fe0","6796e1c0ff24ca17c453c51c","67c715ba04b522cea8f2ad0a","passed","","","","","","","","","","","","","","","","","ballFalling","500","479.92114317029973","330.87","6","fallScene","false","","","","","18","",""
"","","","","","html-keyboard-response","170","2253120","0.0-16.0-1.17","6762abbea62dc4c2acf59fe0","6796e1c0ff24ca17c453c51c","67c715ba04b522cea8f2ad0a","passed","","554","","","","","","","","","","","","","","j","yesOrNo","","","","6","","","gt","3000","","","18","479.9211431702998","330.87"
"","","","","","html-keyboard-response","171","2254901","0.0-16.0-0.18","6762abbea62dc4c2acf59fe0","6796e1c0ff24ca17c453c51c","67c715ba04b522cea8f2ad0a","passed","","","","","","","","","","","","","","","","","ballFalling","322.3","308.07114317029976","253.89","2","fallScene","true","","","","","19","",""
"","","","","","html-keyboard-response","172","2257920","0.0-16.0-1.18","6762abbea62dc4c2acf59fe0","6796e1c0ff24ca17c453c51c","67c715ba04b522cea8f2ad0a","passed","","573","","","","","","","","","","","","","","f","yesOrNo","","","","2","","","lp","3000","","","19","321.3","151"
"","","","","","html-keyboard-response","173","2259467","0.0-16.0-0.19","6762abbea62dc4c2acf59fe0","6796e1c0ff24ca17c453c51c","67c715ba04b522cea8f2ad0a","passed","","","","","","","","","","","","","","","","","ballFalling","322.3","356.42114317029973","357.87","4","fallScene","false","","","","","20","",""
"","","","","","html-keyboard-response","174","2262478","0.0-16.0-1.19","6762abbea62dc4c2acf59fe0","6796e1c0ff24ca17c453c51c","67c715ba04b522cea8f2ad0a","passed","","1570","","","","","","","","","","","","","","j","yesOrNo","","","","4","","","gt","3000","","","20","356.42114317029973","357.87"
"","","","","","html-keyboard-response","175","2264500","0.0-16.0-0.20","6762abbea62dc4c2acf59fe0","6796e1c0ff24ca17c453c51c","67c715ba04b522cea8f2ad0a","passed","","","","","","","","","","","","","","","","","ballFalling","500","510.8711431702997","369.03","8","fallScene","false","","","","","21","",""
"","","","","","html-keyboard-response","176","2267521","0.0-16.0-1.20","6762abbea62dc4c2acf59fe0","6796e1c0ff24ca17c453c51c","67c715ba04b522cea8f2ad0a","passed","","345","","","","","","","","","","","","","","f","yesOrNo","","","","8","","","mid","3000","","","21","501","300"
"","","","","","html-keyboard-response","177","2269535","0.0-16.0-0.21","6762abbea62dc4c2acf59fe0","6796e1c0ff24ca17c453c51c","67c715ba04b522cea8f2ad0a","passed","","","","","","","","","","","","","","","","","ballFalling","500","510.8711431702997","369.03","8","fallScene","true","","","","","22","",""
"","","","","","html-keyboard-response","178","2272553","0.0-16.0-1.21","6762abbea62dc4c2acf59fe0","6796e1c0ff24ca17c453c51c","67c715ba04b522cea8f2ad0a","passed","","2469","","","","","","","","","","","","","","j","yesOrNo","","","","8","","","lp","3000","","","22","501","151"
"","","","","","html-keyboard-response","179","2274100","0.0-16.0-0.22","6762abbea62dc4c2acf59fe0","6796e1c0ff24ca17c453c51c","67c715ba04b522cea8f2ad0a","passed","","","","","","","","","","","","","","","","","ballFalling","604.4000000000001","575.4211431702997","266.76","12","fallScene","false","","","","","23","",""
"","","","","","html-keyboard-response","180","2277115","0.0-16.0-1.22","6762abbea62dc4c2acf59fe0","6796e1c0ff24ca17c453c51c","67c715ba04b522cea8f2ad0a","passed","","1072","","","","","","","","","","","","","","f","yesOrNo","","","","12","","","mid","3000","","","23","536.4288568297004","300"
"","","","","","html-keyboard-response","181","2278766","0.0-16.0-0.23","6762abbea62dc4c2acf59fe0","6796e1c0ff24ca17c453c51c","67c715ba04b522cea8f2ad0a","passed","","","","","","","","","","","","","","","","","ballFalling","500","479.92114317029973","330.87","6","fallScene","true","","","","","24","",""
"","","","","","html-keyboard-response","182","2281778","0.0-16.0-1.23","6762abbea62dc4c2acf59fe0","6796e1c0ff24ca17c453c51c","67c715ba04b522cea8f2ad0a","passed","","536","","","","","","","","","","","","","","j","yesOrNo","","","","6","","","mid","3000","","","24","499","300"
"","","","","","html-keyboard-response","183","2283619","0.0-17.0","6762abbea62dc4c2acf59fe0","6796e1c0ff24ca17c453c51c","67c715ba04b522cea8f2ad0a","passed","","1839","","","","","","","","","","","","","<p><span style=""font-size:40px;"">BLOCK 2</span></p><p><span style=""font-size:25px;"">You have <b style=""color: #FF644F;""><strong>3 second(s)</strong></b> to respond to the following trials.</span><br></p><p></p> <!-- Blank line -->
                <p id=""blinking-text"" style=""font-weight; animation: blink 2s infinite;"">Press Space to continue</p>
                <style>
                    @keyframes blink {
                        50% {
                            opacity: 0;
                        }
                    }
                </style></p>"," ","","","","","","","","","","","","","",""
"","","","","","html-keyboard-response","184","2285166","0.0-18.0-0.0","6762abbea62dc4c2acf59fe0","6796e1c0ff24ca17c453c51c","67c715ba04b522cea8f2ad0a","passed","","","","","","","","","","","","","","","","","ballFalling","322.3","296.07114317029976","371.46","3","fallScene","true","","","","","25","",""
"","","","","","html-keyboard-response","185","2288188","0.0-18.0-1.0","6762abbea62dc4c2acf59fe0","6796e1c0ff24ca17c453c51c","67c715ba04b522cea8f2ad0a","passed","","421","","","","","","","","","","","","","","j","yesOrNo","","","","3","","","lp","3000","","","25","321.3","287.3327096511259"
"","","","","","html-keyboard-response","186","2289733","0.0-18.0-0.1","6762abbea62dc4c2acf59fe0","6796e1c0ff24ca17c453c51c","67c715ba04b522cea8f2ad0a","passed","","","","","","","","","","","","","","","","","ballFalling","604.4000000000001","650.0211431702996","404.58000000000004","11","fallScene","false","","","","","26","",""
"","","","","","html-keyboard-response","187","2292753","0.0-18.0-1.1","6762abbea62dc4c2acf59fe0","6796e1c0ff24ca17c453c51c","67c715ba04b522cea8f2ad0a","passed","","518","","","","","","","","","","","","","","j","yesOrNo","","","","11","","","gt","3000","","","26","650.0211431702996","404.58"
"","","","","","html-keyboard-response","188","2294299","0.0-18.0-0.2","6762abbea62dc4c2acf59fe0","6796e1c0ff24ca17c453c51c","67c715ba04b522cea8f2ad0a","passed","","","","","","","","","","","","","","","","","ballFalling","322.3","356.42114317029973","357.87","4","fallScene","false","","","","","27","",""
"","","","","","html-keyboard-response","189","2297318","0.0-18.0-1.2","6762abbea62dc4c2acf59fe0","6796e1c0ff24ca17c453c51c","67c715ba04b522cea8f2ad0a","passed","","null","","","","","","","","","","","","","","null","yesOrNo","","","","4","","","lp","3000","","","27","323.3","297.4070551689986"
"","","","","","html-keyboard-response","190","2298899","0.0-18.0-0.3","6762abbea62dc4c2acf59fe0","6796e1c0ff24ca17c453c51c","67c715ba04b522cea8f2ad0a","passed","","","","","","","","","","","","","","","","","ballFalling","500","553.4711431702997","282.51","7","fallScene","false","","","","","28","",""
"","","","","","html-keyboard-response","191","2301912","0.0-18.0-1.3","6762abbea62dc4c2acf59fe0","6796e1c0ff24ca17c453c51c","67c715ba04b522cea8f2ad0a","passed","","null","","","","","","","","","","","","","","null","yesOrNo","","","","7","","","lp","3000","","","28","501","227.2843295913261"
"","","","","","html-keyboard-response","192","2303499","0.0-18.0-0.4","6762abbea62dc4c2acf59fe0","6796e1c0ff24ca17c453c51c","67c715ba04b522cea8f2ad0a","passed","","","","","","","","","","","","","","","","","ballFalling","500","553.4711431702997","282.51","7","fallScene","true","","","","","29","",""
"","","","","","html-keyboard-response","193","2306509","0.0-18.0-1.4","6762abbea62dc4c2acf59fe0","6796e1c0ff24ca17c453c51c","67c715ba04b522cea8f2ad0a","passed","","null","","","","","","","","","","","","","","null","yesOrNo","","","","7","","","lp","3000","","","29","501","227.2843295913261"
"","","","","","html-keyboard-response","194","2308015","0.0-18.0-0.5","6762abbea62dc4c2acf59fe0","6796e1c0ff24ca17c453c51c","67c715ba04b522cea8f2ad0a","passed","","","","","","","","","","","","","","","","","ballFalling","604.4000000000001","575.4211431702997","266.76","12","fallScene","true","","","","","30","",""
"","","","","","html-keyboard-response","195","2311027","0.0-18.0-1.5","6762abbea62dc4c2acf59fe0","6796e1c0ff24ca17c453c51c","67c715ba04b522cea8f2ad0a","passed","","533","","","","","","","","","","","","","","j","yesOrNo","","","","12","","","lp","3000","","","30","603.4000000000001","151"
"","","","","","html-keyboard-response","196","2312581","0.0-18.0-0.6","6762abbea62dc4c2acf59fe0","6796e1c0ff24ca17c453c51c","67c715ba04b522cea8f2ad0a","passed","","","","","","","","","","","","","","","","","ballFalling","322.3","379.3711431702997","245.25","1","fallScene","false","","","","","31","",""
"","","","","","html-keyboard-response","197","2315592","0.0-18.0-1.6","6762abbea62dc4c2acf59fe0","6796e1c0ff24ca17c453c51c","67c715ba04b522cea8f2ad0a","passed","","515","","","","","","","","","","","","","","j","yesOrNo","","","","1","","","lp","3000","","","31","323.3","217.74551669457017"
"","","","","","html-keyboard-response","198","2317149","0.0-18.0-0.7","6762abbea62dc4c2acf59fe0","6796e1c0ff24ca17c453c51c","67c715ba04b522cea8f2ad0a","passed","","","","","","","","","","","","","","","","","ballFalling","322.3","379.3711431702997","245.25","1","fallScene","false","","","","","32","",""
"","","","","","html-keyboard-response","199","2320158","0.0-18.0-1.7","6762abbea62dc4c2acf59fe0","6796e1c0ff24ca17c453c51c","67c715ba04b522cea8f2ad0a","passed","","971","","","","","","","","","","","","","","f","yesOrNo","","","","1","","","lp","3000","","","32","323.3","217.74551669457017"
"","","","","","html-keyboard-response","200","2321715","0.0-18.0-0.8","6762abbea62dc4c2acf59fe0","6796e1c0ff24ca17c453c51c","67c715ba04b522cea8f2ad0a","passed","","","","","","","","","","","","","","","","","ballFalling","322.3","296.07114317029976","371.46","3","fallScene","true","","","","","33","",""
"","","","","","html-keyboard-response","201","2324724","0.0-18.0-1.8","6762abbea62dc4c2acf59fe0","6796e1c0ff24ca17c453c51c","67c715ba04b522cea8f2ad0a","passed","","178","","","","","","","","","","","","","","j","yesOrNo","","","","3","","","gt","3000","","","33","296.07114317029976","371.46"
"","","","","","html-keyboard-response","202","2326732","0.0-18.0-0.9","6762abbea62dc4c2acf59fe0","6796e1c0ff24ca17c453c51c","67c715ba04b522cea8f2ad0a","passed","","","","","","","","","","","","","","","","","ballFalling","604.4000000000001","596.8711431702998","394.5","10","fallScene","false","","","","","34","",""
"","","","","","html-keyboard-response","203","2329746","0.0-18.0-1.9","6762abbea62dc4c2acf59fe0","6796e1c0ff24ca17c453c51c","67c715ba04b522cea8f2ad0a","passed","","1357","","","","","","","","","","","","","","j","yesOrNo","","","","10","","","gt","3000","","","34","596.8711431702998","394.5"
"","","","","","html-keyboard-response","204","2331298","0.0-18.0-0.10","6762abbea62dc4c2acf59fe0","6796e1c0ff24ca17c453c51c","67c715ba04b522cea8f2ad0a","passed","","","","","","","","","","","","","","","","","ballFalling","322.3","296.07114317029976","371.46","3","fallScene","false","","","","","35","",""
"","","","","","html-keyboard-response","205","2334312","0.0-18.0-1.10","6762abbea62dc4c2acf59fe0","6796e1c0ff24ca17c453c51c","67c715ba04b522cea8f2ad0a","passed","","641","","","","","","","","","","","","","","j","yesOrNo","","","","3","","","mid","3000","","","35","321.3","300"
"","","","","","html-keyboard-response","206","2335863","0.0-18.0-0.11","6762abbea62dc4c2acf59fe0","6796e1c0ff24ca17c453c51c","67c715ba04b522cea8f2ad0a","passed","","","","","","","","","","","","","","","","","ballFalling","604.4000000000001","650.0211431702996","404.58000000000004","11","fallScene","false","","","","","36","",""
"","","","","","html-keyboard-response","207","2338873","0.0-18.0-1.11","6762abbea62dc4c2acf59fe0","6796e1c0ff24ca17c453c51c","67c715ba04b522cea8f2ad0a","passed","","786","","","","","","","","","","","","","","f","yesOrNo","","","","11","","","lp","3000","","","36","605.4000000000001","372.6340973215488"
"","","","","","html-keyboard-response","208","2340430","0.0-18.0-0.12","6762abbea62dc4c2acf59fe0","6796e1c0ff24ca17c453c51c","67c715ba04b522cea8f2ad0a","passed","","","","","","","","","","","","","","","","","ballFalling","604.4000000000001","650.0211431702996","404.58000000000004","11","fallScene","true","","","","","37","",""
"","","","","","html-keyboard-response","209","2343443","0.0-18.0-1.12","6762abbea62dc4c2acf59fe0","6796e1c0ff24ca17c453c51c","67c715ba04b522cea8f2ad0a","passed","","661","","","","","","","","","","","","","","j","yesOrNo","","","","11","","","mid","3000","","","37","605.4000000000001","300"
"","","","","","html-keyboard-response","210","2344997","0.0-18.0-0.13","6762abbea62dc4c2acf59fe0","6796e1c0ff24ca17c453c51c","67c715ba04b522cea8f2ad0a","passed","","","","","","","","","","","","","","","","","ballFalling","322.3","296.07114317029976","371.46","3","fallScene","true","","","","","38","",""
"","","","","","html-keyboard-response","211","2348012","0.0-18.0-1.13","6762abbea62dc4c2acf59fe0","6796e1c0ff24ca17c453c51c","67c715ba04b522cea8f2ad0a","passed","","882","","","","","","","","","","","","","","j","yesOrNo","","","","3","","","mid","3000","","","38","321.3","300"
"","","","","","html-keyboard-response","212","2350013","0.0-18.0-0.14","6762abbea62dc4c2acf59fe0","6796e1c0ff24ca17c453c51c","67c715ba04b522cea8f2ad0a","passed","","","","","","","","","","","","","","","","","ballFalling","500","510.8711431702997","369.03","8","fallScene","false","","","","","39","",""
"","","","","","html-keyboard-response","213","2353021","0.0-18.0-1.14","6762abbea62dc4c2acf59fe0","6796e1c0ff24ca17c453c51c","67c715ba04b522cea8f2ad0a","passed","","610","","","","","","","","","","","","","","f","yesOrNo","","","","8","","","gt","3000","","","39","510.8711431702997","369.03"
"","","","","","html-keyboard-response","214","2354580","0.0-18.0-0.15","6762abbea62dc4c2acf59fe0","6796e1c0ff24ca17c453c51c","67c715ba04b522cea8f2ad0a","passed","","","","","","","","","","","","","","","","","ballFalling","322.3","379.3711431702997","245.25","1","fallScene","true","","","","","40","",""
"","","","","","html-keyboard-response","215","2357593","0.0-18.0-1.15","6762abbea62dc4c2acf59fe0","6796e1c0ff24ca17c453c51c","67c715ba04b522cea8f2ad0a","passed","","1233","","","","","","","","","","","","","","j","yesOrNo","","","","1","","","gt","3000","","","40","379.3711431702997","245.25"
"","","","","","html-keyboard-response","216","2359080","0.0-18.0-0.16","6762abbea62dc4c2acf59fe0","6796e1c0ff24ca17c453c51c","67c715ba04b522cea8f2ad0a","passed","","","","","","","","","","","","","","","","","ballFalling","604.4000000000001","667.6211431702998","201.78","9","fallScene","false","","","","","41","",""
"","","","","","html-keyboard-response","217","2362089","0.0-18.0-1.16","6762abbea62dc4c2acf59fe0","6796e1c0ff24ca17c453c51c","67c715ba04b522cea8f2ad0a","passed","","1089","","","","","","","","","","","","","","f","yesOrNo","","","","9","","","lp","3000","","","41","605.4000000000001","151"
"","","","","","html-keyboard-response","218","2363580","0.0-18.0-0.17","6762abbea62dc4c2acf59fe0","6796e1c0ff24ca17c453c51c","67c715ba04b522cea8f2ad0a","passed","","","","","","","","","","","","","","","","","ballFalling","604.4000000000001","667.6211431702998","201.78","9","fallScene","false","","","","","42","",""
"","","","","","html-keyboard-response","219","2366594","0.0-18.0-1.17","6762abbea62dc4c2acf59fe0","6796e1c0ff24ca17c453c51c","67c715ba04b522cea8f2ad0a","passed","","798","","","","","","","","","","","","","","f","yesOrNo","","","","9","","","lp","3000","","","42","605.4000000000001","151"
"","","","","","html-keyboard-response","220","2368597","0.0-18.0-0.18","6762abbea62dc4c2acf59fe0","6796e1c0ff24ca17c453c51c","67c715ba04b522cea8f2ad0a","passed","","","","","","","","","","","","","","","","","ballFalling","604.4000000000001","596.8711431702998","394.5","10","fallScene","true","","","","","43","",""
"","","","","","html-keyboard-response","221","2371601","0.0-18.0-1.18","6762abbea62dc4c2acf59fe0","6796e1c0ff24ca17c453c51c","67c715ba04b522cea8f2ad0a","passed","","1132","","","","","","","","","","","","","","f","yesOrNo","","","","10","","","mid","3000","","","43","536.4288568297004","300"
"","","","","","html-keyboard-response","222","2373095","0.0-18.0-0.19","6762abbea62dc4c2acf59fe0","6796e1c0ff24ca17c453c51c","67c715ba04b522cea8f2ad0a","passed","","","","","","","","","","","","","","","","","ballFalling","604.4000000000001","667.6211431702998","201.78","9","fallScene","false","","","","","44","",""
"","","","","","html-keyboard-response","223","2376110","0.0-18.0-1.19","6762abbea62dc4c2acf59fe0","6796e1c0ff24ca17c453c51c","67c715ba04b522cea8f2ad0a","passed","","794","","","","","","","","","","","","","","j","yesOrNo","","","","9","","","gt","3000","","","44","667.6211431702998","201.78"
"","","","","","html-keyboard-response","224","2377595","0.0-18.0-0.20","6762abbea62dc4c2acf59fe0","6796e1c0ff24ca17c453c51c","67c715ba04b522cea8f2ad0a","passed","","","","","","","","","","","","","","","","","ballFalling","604.4000000000001","667.6211431702998","201.78","9","fallScene","false","","","","","45","",""
"","","","","","html-keyboard-response","225","2380598","0.0-18.0-1.20","6762abbea62dc4c2acf59fe0","6796e1c0ff24ca17c453c51c","67c715ba04b522cea8f2ad0a","passed","","717","","","","","","","","","","","","","","j","yesOrNo","","","","9","","","mid","3000","","","45","605.4000000000001","300"
"","","","","","html-keyboard-response","226","2382161","0.0-18.0-0.21","6762abbea62dc4c2acf59fe0","6796e1c0ff24ca17c453c51c","67c715ba04b522cea8f2ad0a","passed","","","","","","","","","","","","","","","","","ballFalling","604.4000000000001","575.4211431702997","266.76","12","fallScene","true","","","","","46","",""
"","","","","","html-keyboard-response","227","2385164","0.0-18.0-1.21","6762abbea62dc4c2acf59fe0","6796e1c0ff24ca17c453c51c","67c715ba04b522cea8f2ad0a","passed","","408","","","","","","","","","","","","","","j","yesOrNo","","","","12","","","lp","3000","","","46","603.4000000000001","151"
"","","","","","html-keyboard-response","228","2386961","0.0-18.0-0.22","6762abbea62dc4c2acf59fe0","6796e1c0ff24ca17c453c51c","67c715ba04b522cea8f2ad0a","passed","","","","","","","","","","","","","","","","","ballFalling","322.3","308.07114317029976","253.89","2","fallScene","false","","","","","47","",""
"","","","","","html-keyboard-response","229","2389969","0.0-18.0-1.22","6762abbea62dc4c2acf59fe0","6796e1c0ff24ca17c453c51c","67c715ba04b522cea8f2ad0a","passed","","617","","","","","","","","","","","","","","f","yesOrNo","","","","2","","","mid","3000","","","47","321.3","300"
"","","","","","html-keyboard-response","230","2391527","0.0-18.0-0.23","6762abbea62dc4c2acf59fe0","6796e1c0ff24ca17c453c51c","67c715ba04b522cea8f2ad0a","passed","","","","","","","","","","","","","","","","","ballFalling","500","453.67114317029973","210.33","5","fallScene","true","","","","","48","",""
"","","","","","html-keyboard-response","231","2394543","0.0-18.0-1.23","6762abbea62dc4c2acf59fe0","6796e1c0ff24ca17c453c51c","67c715ba04b522cea8f2ad0a","passed","","488","","","","","","","","","","","","","","j","yesOrNo","","","","5","","","gt","3000","","","48","453.6711431702998","210.33"
"","","","","","html-keyboard-response","232","2588817","0.0-19.0","6762abbea62dc4c2acf59fe0","6796e1c0ff24ca17c453c51c","67c715ba04b522cea8f2ad0a","passed","","194272","","","","","","","","","","","","","<p><span style=""font-size:40px;"">BLOCK 3</span></p><p><span style=""font-size:25px;"">You have <b style=""color: #FF644F;""><strong>0.7 second(s)</strong></b> to respond to the following trials.</span><br></p><p></p> <!-- Blank line -->
                <p id=""blinking-text"" style=""font-weight; animation: blink 2s infinite;"">Press Space to continue</p>
                <style>
                    @keyframes blink {
                        50% {
                            opacity: 0;
                        }
                    }
                </style></p>"," ","","","","","","","","","","","","","",""
"","","","","","html-keyboard-response","233","2590385","0.0-20.0-0.0","6762abbea62dc4c2acf59fe0","6796e1c0ff24ca17c453c51c","67c715ba04b522cea8f2ad0a","passed","","","","","","","","","","","","","","","","","ballFalling","322.3","296.07114317029976","371.46","3","fallScene","true","","","","","49","",""
"","","","","","html-keyboard-response","234","2591094","0.0-20.0-1.0","6762abbea62dc4c2acf59fe0","6796e1c0ff24ca17c453c51c","67c715ba04b522cea8f2ad0a","passed","","580","","","","","","","","","","","","","","f","yesOrNo","","","","3","","","mid","700","","","49","321.3","300"
"","","","","","html-keyboard-response","235","2592651","0.0-20.0-0.1","6762abbea62dc4c2acf59fe0","6796e1c0ff24ca17c453c51c","67c715ba04b522cea8f2ad0a","passed","","","","","","","","","","","","","","","","","ballFalling","500","453.67114317029973","210.33","5","fallScene","false","","","","","50","",""
"","","","","","html-keyboard-response","236","2593357","0.0-20.0-1.1","6762abbea62dc4c2acf59fe0","6796e1c0ff24ca17c453c51c","67c715ba04b522cea8f2ad0a","passed","","null","","","","","","","","","","","","","","null","yesOrNo","","","","5","","","lp","700","","","50","499","151"
"","","","","","html-keyboard-response","237","2594918","0.0-20.0-0.2","6762abbea62dc4c2acf59fe0","6796e1c0ff24ca17c453c51c","67c715ba04b522cea8f2ad0a","passed","","","","","","","","","","","","","","","","","ballFalling","322.3","296.07114317029976","371.46","3","fallScene","true","","","","","51","",""
"","","","","","html-keyboard-response","238","2595627","0.0-20.0-1.2","6762abbea62dc4c2acf59fe0","6796e1c0ff24ca17c453c51c","67c715ba04b522cea8f2ad0a","passed","","435","","","","","","","","","","","","","","f","yesOrNo","","","","3","","","gt","700","","","51","296.07114317029976","371.46"
"","","","","","html-keyboard-response","239","2597634","0.0-20.0-0.3","6762abbea62dc4c2acf59fe0","6796e1c0ff24ca17c453c51c","67c715ba04b522cea8f2ad0a","passed","","","","","","","","","","","","","","","","","ballFalling","604.4000000000001","596.8711431702998","394.5","10","fallScene","false","","","","","52","",""
"","","","","","html-keyboard-response","240","2598340","0.0-20.0-1.3","6762abbea62dc4c2acf59fe0","6796e1c0ff24ca17c453c51c","67c715ba04b522cea8f2ad0a","passed","","null","","","","","","","","","","","","","","null","yesOrNo","","","","10","","","lp","700","","","52","603.4000000000001","215.50214355555383"
"","","","","","html-keyboard-response","241","2600352","0.0-20.0-0.4","6762abbea62dc4c2acf59fe0","6796e1c0ff24ca17c453c51c","67c715ba04b522cea8f2ad0a","passed","","","","","","","","","","","","","","","","","ballFalling","604.4000000000001","596.8711431702998","394.5","10","fallScene","false","","","","","53","",""
"","","","","","html-keyboard-response","242","2601064","0.0-20.0-1.4","6762abbea62dc4c2acf59fe0","6796e1c0ff24ca17c453c51c","67c715ba04b522cea8f2ad0a","passed","","null","","","","","","","","","","","","","","null","yesOrNo","","","","10","","","lp","700","","","53","603.4000000000001","215.50214355555383"
"","","","","","html-keyboard-response","243","2602617","0.0-20.0-0.5","6762abbea62dc4c2acf59fe0","6796e1c0ff24ca17c453c51c","67c715ba04b522cea8f2ad0a","passed","","","","","","","","","","","","","","","","","ballFalling","322.3","356.42114317029973","357.87","4","fallScene","false","","","","","54","",""
"","","","","","html-keyboard-response","244","2603329","0.0-20.0-1.5","6762abbea62dc4c2acf59fe0","6796e1c0ff24ca17c453c51c","67c715ba04b522cea8f2ad0a","passed","","554","","","","","","","","","","","","","","f","yesOrNo","","","","4","","","mid","700","","","54","390.27114317029975","300"
"","","","","","html-keyboard-response","245","2604884","0.0-20.0-0.6","6762abbea62dc4c2acf59fe0","6796e1c0ff24ca17c453c51c","67c715ba04b522cea8f2ad0a","passed","","","","","","","","","","","","","","","","","ballFalling","322.3","379.3711431702997","245.25","1","fallScene","true","","","","","55","",""
"","","","","","html-keyboard-response","246","2605599","0.0-20.0-1.6","6762abbea62dc4c2acf59fe0","6796e1c0ff24ca17c453c51c","67c715ba04b522cea8f2ad0a","passed","","543","","","","","","","","","","","","","","j","yesOrNo","","","","1","","","gt","700","","","55","379.3711431702997","245.25"
"","","","","","html-keyboard-response","247","2607383","0.0-20.0-0.7","6762abbea62dc4c2acf59fe0","6796e1c0ff24ca17c453c51c","67c715ba04b522cea8f2ad0a","passed","","","","","","","","","","","","","","","","","ballFalling","322.3","308.07114317029976","253.89","2","fallScene","true","","","","","56","",""
"","","","","","html-keyboard-response","248","2608088","0.0-20.0-1.7","6762abbea62dc4c2acf59fe0","6796e1c0ff24ca17c453c51c","67c715ba04b522cea8f2ad0a","passed","","null","","","","","","","","","","","","","","null","yesOrNo","","","","2","","","lp","700","","","56","321.3","151"
"","","","","","html-keyboard-response","249","2609750","0.0-20.0-0.8","6762abbea62dc4c2acf59fe0","6796e1c0ff24ca17c453c51c","67c715ba04b522cea8f2ad0a","passed","","","","","","","","","","","","","","","","","ballFalling","500","479.92114317029973","330.87","6","fallScene","true","","","","","57","",""
"","","","","","html-keyboard-response","250","2610461","0.0-20.0-1.8","6762abbea62dc4c2acf59fe0","6796e1c0ff24ca17c453c51c","67c715ba04b522cea8f2ad0a","passed","","425","","","","","","","","","","","","","","f","yesOrNo","","","","6","","","mid","700","","","57","499","300"
"","","","","","html-keyboard-response","251","2612033","0.0-20.0-0.9","6762abbea62dc4c2acf59fe0","6796e1c0ff24ca17c453c51c","67c715ba04b522cea8f2ad0a","passed","","","","","","","","","","","","","","","","","ballFalling","500","553.4711431702997","282.51","7","fallScene","false","","","","","58","",""
"","","","","","html-keyboard-response","252","2612747","0.0-20.0-1.9","6762abbea62dc4c2acf59fe0","6796e1c0ff24ca17c453c51c","67c715ba04b522cea8f2ad0a","passed","","316","","","","","","","","","","","","","","j","yesOrNo","","","","7","","","lp","700","","","58","501","227.2843295913261"
"","","","","","html-keyboard-response","253","2614533","0.0-20.0-0.10","6762abbea62dc4c2acf59fe0","6796e1c0ff24ca17c453c51c","67c715ba04b522cea8f2ad0a","passed","","","","","","","","","","","","","","","","","ballFalling","322.3","308.07114317029976","253.89","2","fallScene","true","","","","","59","",""
"","","","","","html-keyboard-response","254","2615245","0.0-20.0-1.10","6762abbea62dc4c2acf59fe0","6796e1c0ff24ca17c453c51c","67c715ba04b522cea8f2ad0a","passed","","662","","","","","","","","","","","","","","j","yesOrNo","","","","2","","","mid","700","","","59","321.3","300"
"","","","","","html-keyboard-response","255","2616800","0.0-20.0-0.11","6762abbea62dc4c2acf59fe0","6796e1c0ff24ca17c453c51c","67c715ba04b522cea8f2ad0a","passed","","","","","","","","","","","","","","","","","ballFalling","322.3","296.07114317029976","371.46","3","fallScene","false","","","","","60","",""
"","","","","","html-keyboard-response","256","2617515","0.0-20.0-1.11","6762abbea62dc4c2acf59fe0","6796e1c0ff24ca17c453c51c","67c715ba04b522cea8f2ad0a","passed","","402","","","","","","","","","","","","","","j","yesOrNo","","","","3","","","gt","700","","","60","296.07114317029976","371.46"
"","","","","","html-keyboard-response","257","2619516","0.0-20.0-0.12","6762abbea62dc4c2acf59fe0","6796e1c0ff24ca17c453c51c","67c715ba04b522cea8f2ad0a","passed","","","","","","","","","","","","","","","","","ballFalling","500","510.8711431702997","369.03","8","fallScene","true","","","","","61","",""
"","","","","","html-keyboard-response","258","2620232","0.0-20.0-1.12","6762abbea62dc4c2acf59fe0","6796e1c0ff24ca17c453c51c","67c715ba04b522cea8f2ad0a","passed","","510","","","","","","","","","","","","","","f","yesOrNo","","","","8","","","mid","700","","","61","501","300"
"","","","","","html-keyboard-response","259","2622017","0.0-20.0-0.13","6762abbea62dc4c2acf59fe0","6796e1c0ff24ca17c453c51c","67c715ba04b522cea8f2ad0a","passed","","","","","","","","","","","","","","","","","ballFalling","322.3","308.07114317029976","253.89","2","fallScene","true","","","","","62","",""
"","","","","","html-keyboard-response","260","2622729","0.0-20.0-1.13","6762abbea62dc4c2acf59fe0","6796e1c0ff24ca17c453c51c","67c715ba04b522cea8f2ad0a","passed","","342","","","","","","","","","","","","","","j","yesOrNo","","","","2","","","lp","700","","","62","321.3","151"
"","","","","","html-keyboard-response","261","2624733","0.0-20.0-0.14","6762abbea62dc4c2acf59fe0","6796e1c0ff24ca17c453c51c","67c715ba04b522cea8f2ad0a","passed","","","","","","","","","","","","","","","","","ballFalling","500","510.8711431702997","369.03","8","fallScene","true","","","","","63","",""
"","","","","","html-keyboard-response","262","2625437","0.0-20.0-1.14","6762abbea62dc4c2acf59fe0","6796e1c0ff24ca17c453c51c","67c715ba04b522cea8f2ad0a","passed","","17","","","","","","","","","","","","","","f","yesOrNo","","","","8","","","lp","700","","","63","501","151"
"","","","","","html-keyboard-response","263","2627099","0.0-20.0-0.15","6762abbea62dc4c2acf59fe0","6796e1c0ff24ca17c453c51c","67c715ba04b522cea8f2ad0a","passed","","","","","","","","","","","","","","","","","ballFalling","500","479.92114317029973","330.87","6","fallScene","false","","","","","64","",""
"","","","","","html-keyboard-response","264","2627813","0.0-20.0-1.15","6762abbea62dc4c2acf59fe0","6796e1c0ff24ca17c453c51c","67c715ba04b522cea8f2ad0a","passed","","311","","","","","","","","","","","","","","j","yesOrNo","","","","6","","","gt","700","","","64","479.9211431702998","330.87"
"","","","","","html-keyboard-response","265","2629300","0.0-20.0-0.16","6762abbea62dc4c2acf59fe0","6796e1c0ff24ca17c453c51c","67c715ba04b522cea8f2ad0a","passed","","","","","","","","","","","","","","","","","ballFalling","604.4000000000001","667.6211431702998","201.78","9","fallScene","true","","","","","65","",""
"","","","","","html-keyboard-response","266","2630014","0.0-20.0-1.16","6762abbea62dc4c2acf59fe0","6796e1c0ff24ca17c453c51c","67c715ba04b522cea8f2ad0a","passed","","315","","","","","","","","","","","","","","f","yesOrNo","","","","9","","","gt","700","","","65","667.6211431702998","201.78"
"","","","","","html-keyboard-response","267","2631666","0.0-20.0-0.17","6762abbea62dc4c2acf59fe0","6796e1c0ff24ca17c453c51c","67c715ba04b522cea8f2ad0a","passed","","","","","","","","","","","","","","","","","ballFalling","500","479.92114317029973","330.87","6","fallScene","false","","","","","66","",""
"","","","","","html-keyboard-response","268","2632381","0.0-20.0-1.17","6762abbea62dc4c2acf59fe0","6796e1c0ff24ca17c453c51c","67c715ba04b522cea8f2ad0a","passed","","328","","","","","","","","","","","","","","j","yesOrNo","","","","6","","","gt","700","","","66","479.9211431702998","330.87"
"","","","","","html-keyboard-response","269","2633950","0.0-20.0-0.18","6762abbea62dc4c2acf59fe0","6796e1c0ff24ca17c453c51c","67c715ba04b522cea8f2ad0a","passed","","","","","","","","","","","","","","","","","ballFalling","500","553.4711431702997","282.51","7","fallScene","true","","","","","67","",""
"","","","","","html-keyboard-response","270","2634657","0.0-20.0-1.18","6762abbea62dc4c2acf59fe0","6796e1c0ff24ca17c453c51c","67c715ba04b522cea8f2ad0a","passed","","380","","","","","","","","","","","","","","j","yesOrNo","","","","7","","","gt","700","","","67","553.4711431702997","282.51"
"","","","","","html-keyboard-response","271","2636216","0.0-20.0-0.19","6762abbea62dc4c2acf59fe0","6796e1c0ff24ca17c453c51c","67c715ba04b522cea8f2ad0a","passed","","","","","","","","","","","","","","","","","ballFalling","322.3","296.07114317029976","371.46","3","fallScene","true","","","","","68","",""
"","","","","","html-keyboard-response","272","2636931","0.0-20.0-1.19","6762abbea62dc4c2acf59fe0","6796e1c0ff24ca17c453c51c","67c715ba04b522cea8f2ad0a","passed","","null","","","","","","","","","","","","","","null","yesOrNo","","","","3","","","mid","700","","","68","321.3","300"
"","","","","","html-keyboard-response","273","2638483","0.0-20.0-0.20","6762abbea62dc4c2acf59fe0","6796e1c0ff24ca17c453c51c","67c715ba04b522cea8f2ad0a","passed","","","","","","","","","","","","","","","","","ballFalling","500","453.67114317029973","210.33","5","fallScene","true","","","","","69","",""
"","","","","","html-keyboard-response","274","2639189","0.0-20.0-1.20","6762abbea62dc4c2acf59fe0","6796e1c0ff24ca17c453c51c","67c715ba04b522cea8f2ad0a","passed","","364","","","","","","","","","","","","","","f","yesOrNo","","","","5","","","mid","700","","","69","499","300"
"","","","","","html-keyboard-response","275","2640766","0.0-20.0-0.21","6762abbea62dc4c2acf59fe0","6796e1c0ff24ca17c453c51c","67c715ba04b522cea8f2ad0a","passed","","","","","","","","","","","","","","","","","ballFalling","500","553.4711431702997","282.51","7","fallScene","true","","","","","70","",""
"","","","","","html-keyboard-response","276","2641481","0.0-20.0-1.21","6762abbea62dc4c2acf59fe0","6796e1c0ff24ca17c453c51c","67c715ba04b522cea8f2ad0a","passed","","111","","","","","","","","","","","","","","j","yesOrNo","","","","7","","","mid","700","","","70","501","300"
"","","","","","html-keyboard-response","277","2643032","0.0-20.0-0.22","6762abbea62dc4c2acf59fe0","6796e1c0ff24ca17c453c51c","67c715ba04b522cea8f2ad0a","passed","","","","","","","","","","","","","","","","","ballFalling","604.4000000000001","650.0211431702996","404.58000000000004","11","fallScene","true","","","","","71","",""
"","","","","","html-keyboard-response","278","2643746","0.0-20.0-1.22","6762abbea62dc4c2acf59fe0","6796e1c0ff24ca17c453c51c","67c715ba04b522cea8f2ad0a","passed","","265","","","","","","","","","","","","","","j","yesOrNo","","","","11","","","mid","700","","","71","605.4000000000001","300"
"","","","","","html-keyboard-response","279","2645299","0.0-20.0-0.23","6762abbea62dc4c2acf59fe0","6796e1c0ff24ca17c453c51c","67c715ba04b522cea8f2ad0a","passed","","","","","","","","","","","","","","","","","ballFalling","322.3","356.42114317029973","357.87","4","fallScene","false","","","","","72","",""
"","","","","","html-keyboard-response","280","2646010","0.0-20.0-1.23","6762abbea62dc4c2acf59fe0","6796e1c0ff24ca17c453c51c","67c715ba04b522cea8f2ad0a","passed","","106","","","","","","","","","","","","","","j","yesOrNo","","","","4","","","gt","700","","","72","356.42114317029973","357.87"
"","","","","","html-keyboard-response","281","2647732","0.0-21.0","6762abbea62dc4c2acf59fe0","6796e1c0ff24ca17c453c51c","67c715ba04b522cea8f2ad0a","passed","","1721","","","","","","","","","","","","","<p><span style=""font-size:40px;"">BLOCK 4</span></p><p><span style=""font-size:25px;"">You have <b style=""color: #FF644F;""><strong>0.7 second(s)</strong></b> to respond to the following trials.</span><br></p><p></p> <!-- Blank line -->
                <p id=""blinking-text"" style=""font-weight; animation: blink 2s infinite;"">Press Space to continue</p>
                <style>
                    @keyframes blink {
                        50% {
                            opacity: 0;
                        }
                    }
                </style></p>"," ","","","","","","","","","","","","","",""
"","","","","","html-keyboard-response","282","2649748","0.0-22.0-0.0","6762abbea62dc4c2acf59fe0","6796e1c0ff24ca17c453c51c","67c715ba04b522cea8f2ad0a","passed","","","","","","","","","","","","","","","","","ballFalling","604.4000000000001","596.8711431702998","394.5","10","fallScene","true","","","","","73","",""
"","","","","","html-keyboard-response","283","2650461","0.0-22.0-1.0","6762abbea62dc4c2acf59fe0","6796e1c0ff24ca17c453c51c","67c715ba04b522cea8f2ad0a","passed","","null","","","","","","","","","","","","","","null","yesOrNo","","","","10","","","gt","700","","","73","596.8711431702998","394.5"
