"success","timeout","failed_images","failed_audio","failed_video","trial_type","trial_index","time_elapsed","internal_node_id","subject_id","study_id","session_id","practiceTestResult","view_history","rt","width","height","webaudio","browser","browser_version","mobile","os","fullscreen","vsync_rate","webcam","microphone","url","stimulus","response","task","ball_X","obstacle_groundTruth_x","obstacle_groundTruth_y","stimulus_idx","trial_name","flipped","choice","timeLimit","question_order","currentTrial","obstacle_choice_x","obstacle_choice_y"
"true","false","[]","[]","[]","preload","0","177","0.0-0.0","676ac49d62a07c31a31e85ec","6796e1c0ff24ca17c453c51c","67c710c481ea872b732c99de","passed","","","","","","","","","","","","","","","","","","","","","","","","","","","","",""
"","","","","","instructions","1","17306","0.0-1.0","676ac49d62a07c31a31e85ec","6796e1c0ff24ca17c453c51c","67c710c481ea872b732c99de","passed","[{""page_index"":0,""viewing_time"":17127}]","17128","","","","","","","","","","","","","","","","","","","","","","","","","","",""
"","","","","","browser-check","2","18304","0.0-2.0","676ac49d62a07c31a31e85ec","6796e1c0ff24ca17c453c51c","67c710c481ea872b732c99de","passed","","","1920","957","true","chrome","133.0.0","false","Windows 10","true","60.49","false","false","","","","","","","","","","","","","","","",""
"","","","","","external-html","3","50993","0.0-3.0","676ac49d62a07c31a31e85ec","6796e1c0ff24ca17c453c51c","67c710c481ea872b732c99de","passed","","32613","","","","","","","","","","","","consent.html","","","","","","","","","","","","","","",""
"true","","","","","fullscreen","4","226043","0.0-4.0","676ac49d62a07c31a31e85ec","6796e1c0ff24ca17c453c51c","67c710c481ea872b732c99de","passed","","174746","","","","","","","","","","","","","","","","","","","","","","","","","","",""
"","","","","","browser-check","5","227052","0.0-5.0","676ac49d62a07c31a31e85ec","6796e1c0ff24ca17c453c51c","67c710c481ea872b732c99de","passed","","","1920","1080","true","chrome","133.0.0","false","Windows 10","true","60.01","false","false","","","","","","","","","","","","","","","",""
"","","","","","html-keyboard-response","6","233669","0.0-6.0","676ac49d62a07c31a31e85ec","6796e1c0ff24ca17c453c51c","67c710c481ea872b732c99de","passed","","6617","","","","","","","","","","","","","<p><b>This experiment requires keyboard input.</b></p> 
        <p><b>To ensure your response will be recorded successfully, please press 'Space' to continue.</b></p>
        <p>If you can't proceed, you won't be able to complete this study.</p>
        <p></p> <!-- Blank line -->
        <p id=""blinking-text"" style=""font-weight; animation: blink 2s infinite;"">Press Space to continue</p>
        <style>
            @keyframes blink {
                50% {
                    opacity: 0;
                }
            }
        </style>"," ","","","","","","","","","","","","",""
"","","","","","html-keyboard-response","7","237924","0.0-7.0","676ac49d62a07c31a31e85ec","6796e1c0ff24ca17c453c51c","67c710c481ea872b732c99de","passed","","4254","","","","","","","","","","","","","<p><b>This experiment requires keyboard input.</b></p> 
        <p><b>To ensure your response will be recorded successfully, please press the 'f' key to continue.</b></p>
        <p>If you can't proceed, you won't be able to complete this study.</p>
        <p></p> <!-- Blank line -->
        <p id=""blinking-text"" style=""font-weight; animation: blink 2s infinite;"">Press f to continue</p>
        <style>
            @keyframes blink {
                50% {
                    opacity: 0;
                }
            }
        </style>","f","","","","","","","","","","","","",""
"","","","","","html-keyboard-response","8","240764","0.0-8.0","676ac49d62a07c31a31e85ec","6796e1c0ff24ca17c453c51c","67c710c481ea872b732c99de","passed","","2839","","","","","","","","","","","","","<p><b>This experiment requires keyboard input.</b></p> 
        <p><b>To ensure your response will be recorded successfully, please press the 'j' key to continue.</b></p>
        <p>If you can't proceed, you won't be able to complete this study.</p>
        <p></p> <!-- Blank line -->
        <p id=""blinking-text"" style=""font-weight; animation: blink 2s infinite;"">Press j to continue</p>
        <style>
            @keyframes blink {
                50% {
                    opacity: 0;
                }
            }
        </style>","j","","","","","","","","","","","","",""
"","","","","","browser-check","9","241768","0.0-9.0","676ac49d62a07c31a31e85ec","6796e1c0ff24ca17c453c51c","67c710c481ea872b732c99de","passed","","","1920","1080","true","chrome","133.0.0","false","Windows 10","true","60.1","false","false","","","","","","","","","","","","","","","",""
"","","","","","survey-text","10","257709","0.0-10.0","676ac49d62a07c31a31e85ec","6796e1c0ff24ca17c453c51c","67c710c481ea872b732c99de","passed","","15937","","","","","","","","","","","","","","{""prolificID"":""676ac49d62a07c31a31e85ec""}","","","","","","","","","","","","",""
"","","","","","instructions","11","344089","0.0-11.0-0.0-0.0","676ac49d62a07c31a31e85ec","6796e1c0ff24ca17c453c51c","67c710c481ea872b732c99de","passed","[{""page_index"":0,""viewing_time"":44656},{""page_index"":1,""viewing_time"":22694},{""page_index"":2,""viewing_time"":11950},{""page_index"":3,""viewing_time"":7078}]","86379","","","","","","","","","","","","","","","","","","","","","","","","","","",""
"","","","","","html-keyboard-response","12","419140","0.0-11.0-0.0-1.0","676ac49d62a07c31a31e85ec","6796e1c0ff24ca17c453c51c","67c710c481ea872b732c99de","passed","","74546","","","","","","","","","","","","","<br>Remember! After a ball falls, the screen will disappear, and you'll decide if the proposed position is where the hidden triangle was. <br>You will now practice this by watching a few videos and making decisions.<p>To respond:<br style=""margin-bottom: 5px; text-indent: -20px; padding-left: 20px;"">- Press <b style=""color: #12AD2B;"">J for Yes</b>, if you think the triangle is in the correct position.<br style=""margin-top: 0; text-indent: -20px; padding-left: 20px;"">- Press <b style=""color: orange;"">F for No</b>, if you think the triangle is not in the correct position.</p><p>In this practice round, there is no time limit. Focus on getting comfortable with the task first.<br>Press either J or F to begin your practice trials.</p><img src = ""YesOrNo_instruction.png"" style=""width: 65%;""></img>","f","","","","","","","","","","","","",""
"","","","","","html-keyboard-response","13","420667","0.0-11.0-0.0-2.0-0.0","676ac49d62a07c31a31e85ec","6796e1c0ff24ca17c453c51c","67c710c481ea872b732c99de","passed","","","","","","","","","","","","","","","","","ballFalling_prac","441","414","302","5","fallScene","true","","","","","",""
"","","","","","html-keyboard-response","14","422588","0.0-11.0-0.0-2.0-1.0","676ac49d62a07c31a31e85ec","6796e1c0ff24ca17c453c51c","67c710c481ea872b732c99de","passed","","1914","","","","","","","","","","","","","","j","yesOrNo_prac_noTimed","","","","5","","","close gt","NA","","","",""
"","","","","","html-keyboard-response","15","424166","0.0-11.0-0.0-2.0-0.1","676ac49d62a07c31a31e85ec","6796e1c0ff24ca17c453c51c","67c710c481ea872b732c99de","passed","","","","","","","","","","","","","","","","","ballFalling_prac","416","464","296","1","fallScene","false","","","","","",""
"","","","","","html-keyboard-response","16","427949","0.0-11.0-0.0-2.0-1.1","676ac49d62a07c31a31e85ec","6796e1c0ff24ca17c453c51c","67c710c481ea872b732c99de","passed","","3780","","","","","","","","","","","","","","j","yesOrNo_prac_noTimed","","","","1","","","gt","NA","","","",""
"","","","","","html-keyboard-response","17","430050","0.0-11.0-0.0-2.0-0.2","676ac49d62a07c31a31e85ec","6796e1c0ff24ca17c453c51c","67c710c481ea872b732c99de","passed","","","","","","","","","","","","","","","","","ballFalling_prac","660","666","350","3","fallScene","false","","","","","",""
"","","","","","html-keyboard-response","18","432133","0.0-11.0-0.0-2.0-1.2","676ac49d62a07c31a31e85ec","6796e1c0ff24ca17c453c51c","67c710c481ea872b732c99de","passed","","2080","","","","","","","","","","","","","","f","yesOrNo_prac_noTimed","","","","3","","","wrong direction","NA","","","",""
"","","","","","instructions","19","494856","0.0-11.0-0.0-3.0","676ac49d62a07c31a31e85ec","6796e1c0ff24ca17c453c51c","67c710c481ea872b732c99de","passed","[{""page_index"":0,""viewing_time"":36618},{""page_index"":1,""viewing_time"":26104}]","62722","","","","","","","","","","","","","","","","","","","","","","","","","","",""
"","","","","","html-button-response","20","503959","0.0-11.0-0.0-4.0","676ac49d62a07c31a31e85ec","6796e1c0ff24ca17c453c51c","67c710c481ea872b732c99de","passed","","8599","","","","","","","","","","","","","<p>To make sure you understood the task, we just have a <b>brief quiz</b> here.</p><p>If you need to review the instructions, click 'Previous'.</p><p>It's important to understand the task to do the study, so you have to pass the quiz to move to the study.</p>","1","","","","","","","","","","","","",""
"","","","","","survey-multi-choice","21","539180","0.0-11.0-1.0-0.0","676ac49d62a07c31a31e85ec","6796e1c0ff24ca17c453c51c","67c710c481ea872b732c99de","passed","","35218","","","","","","","","","","","","","","{""generalProcedure"":""Watch a video of a ball falling, some of it behind a gray screen. After each video, decide if the triangle is at the spot where the ball hit the triangle behind the screen. There is time limit for the response.""}","","","","","","","","","","[0]","","",""
"","","","","","survey-multi-choice","22","556782","0.0-11.0-1.0-1.0","676ac49d62a07c31a31e85ec","6796e1c0ff24ca17c453c51c","67c710c481ea872b732c99de","passed","","17599","","","","","","","","","","","","","","{""checkBallHitObstacle"":""Yes.""}","","","","","","","","","","[0]","","",""
"","","","","","survey-multi-choice","23","562594","0.0-11.0-1.0-2.0","676ac49d62a07c31a31e85ec","6796e1c0ff24ca17c453c51c","67c710c481ea872b732c99de","passed","","5811","","","","","","","","","","","","","","{""checkTriangleVisibility"":""No, the triangle is hidden behind the gray screen.""}","","","","","","","","","","[0]","","",""
"","","","","","survey-multi-choice","24","571016","0.0-11.0-1.0-3.0","676ac49d62a07c31a31e85ec","6796e1c0ff24ca17c453c51c","67c710c481ea872b732c99de","passed","","8421","","","","","","","","","","","","","","{""checkTimedResponse"":""Your response will not be recorded, and the trial will move to the next one.""}","","","","","","","","","","[0]","","",""
"","","","","","survey-multi-choice","25","582535","0.0-11.0-1.0-4.0","676ac49d62a07c31a31e85ec","6796e1c0ff24ca17c453c51c","67c710c481ea872b732c99de","passed","","11517","","","","","","","","","","","","","","{""checkTimeBlockNotice"":""At the beginning of each block.""}","","","","","","","","","","[0]","","",""
"","","","","","survey-multi-choice","26","592473","0.0-11.0-1.0-5.0","676ac49d62a07c31a31e85ec","6796e1c0ff24ca17c453c51c","67c710c481ea872b732c99de","passed","","9937","","","","","","","","","","","","","","{""checkTimeBlockSameness"":""Yes, the time limit is the same for all trials within a block.""}","","","","","","","","","","[0]","","",""
"","","","","","survey-multi-choice","27","607221","0.0-11.0-1.0-6.0","676ac49d62a07c31a31e85ec","6796e1c0ff24ca17c453c51c","67c710c481ea872b732c99de","passed","","14746","","","","","","","","","","","","","","{""checkTrianglePrecision"":""No. The proposed purple triangle is not in the correct position because it doesn't match the location of the white triangle exactly.""}","","","","","","","","","","[0]","","",""
"","","","","","instructions","28","632948","0.0-12.0","676ac49d62a07c31a31e85ec","6796e1c0ff24ca17c453c51c","67c710c481ea872b732c99de","passed","[{""page_index"":0,""viewing_time"":10082},{""page_index"":1,""viewing_time"":6052},{""page_index"":2,""viewing_time"":4946},{""page_index"":3,""viewing_time"":4644}]","25726","","","","","","","","","","","","","","","","","","","","","","","","","","",""
"","","","","","instructions","29","646481","0.0-13.0-0.0","676ac49d62a07c31a31e85ec","6796e1c0ff24ca17c453c51c","67c710c481ea872b732c99de","passed","[{""page_index"":0,""viewing_time"":13531}]","13532","","","","","","","","","","","","","","","","","","","","","","","","","","",""
"","","","","","html-keyboard-response","30","650516","0.0-13.0-1.0","676ac49d62a07c31a31e85ec","6796e1c0ff24ca17c453c51c","67c710c481ea872b732c99de","passed","","4034","","","","","","","","","","","","","<p><span style=""font-size:40px;"">Practice BLOCK 1</span></p><p><span style=""font-size:25px;"">You have <b style=""color: #FF644F;""><strong>3 second(s)</strong></b> to respond to the following trials.</span><br></p><p id=""blinking-text"" style=""font-weight; animation: blink 2s infinite;"">Press Space to continue</p><style>
                    @keyframes blink {
                        50% {
                            opacity: 0;
                        }
                    }
                </style>"," ","","","","","","","","","","","","",""
"","","","","","html-keyboard-response","31","652097","0.0-13.0-2.0-0.0","676ac49d62a07c31a31e85ec","6796e1c0ff24ca17c453c51c","67c710c481ea872b732c99de","passed","","","","","","","","","","","","","","","","","ballFalling_prac","660","610","263","4","fallScene","false","","","","","",""
"","","","","","html-keyboard-response","32","655113","0.0-13.0-2.0-1.0","676ac49d62a07c31a31e85ec","6796e1c0ff24ca17c453c51c","67c710c481ea872b732c99de","passed","","1398","","","","","","","","","","","","","","j","yesOrNo_prac","","","","4","","","gt","3000","","","",""
"","","","","","html-keyboard-response","33","656664","0.0-13.0-2.0-0.1","676ac49d62a07c31a31e85ec","6796e1c0ff24ca17c453c51c","67c710c481ea872b732c99de","passed","","","","","","","","","","","","","","","","","ballFalling_prac","584","536","296","1","fallScene","true","","","","","",""
"","","","","","html-keyboard-response","34","659680","0.0-13.0-2.0-1.1","676ac49d62a07c31a31e85ec","6796e1c0ff24ca17c453c51c","67c710c481ea872b732c99de","passed","","2098","","","","","","","","","","","","","","f","yesOrNo_prac","","","","1","","","close gt","3000","","","",""
"","","","","","html-keyboard-response","35","661231","0.0-13.0-2.0-0.2","676ac49d62a07c31a31e85ec","6796e1c0ff24ca17c453c51c","67c710c481ea872b732c99de","passed","","","","","","","","","","","","","","","","","ballFalling_prac","416","464","296","1","fallScene","false","","","","","",""
"","","","","","html-keyboard-response","36","664246","0.0-13.0-2.0-1.2","676ac49d62a07c31a31e85ec","6796e1c0ff24ca17c453c51c","67c710c481ea872b732c99de","passed","","1474","","","","","","","","","","","","","","j","yesOrNo_prac","","","","1","","","far gt","3000","","","",""
"","","","","","html-keyboard-response","37","671356","0.0-13.0-3.0","676ac49d62a07c31a31e85ec","6796e1c0ff24ca17c453c51c","67c710c481ea872b732c99de","passed","","7109","","","","","","","","","","","","","<p><span style=""font-size:40px;"">Practice BLOCK 2</span></p><p><span style=""font-size:25px;"">You have <b style=""color: #FF644F;""><strong>0.7 second(s)</strong></b> to respond to the following trials.</span><br></p><p id=""blinking-text"" style=""font-weight; animation: blink 2s infinite;"">Press Space to continue</p><style>
                    @keyframes blink {
                        50% {
                            opacity: 0;
                        }
                    }
                </style>"," ","","","","","","","","","","","","",""
"","","","","","html-keyboard-response","38","673464","0.0-13.0-4.0-0.0","676ac49d62a07c31a31e85ec","6796e1c0ff24ca17c453c51c","67c710c481ea872b732c99de","passed","","","","","","","","","","","","","","","","","ballFalling_prac","340","334","350","3","fallScene","true","","","","","",""
"","","","","","html-keyboard-response","39","674167","0.0-13.0-4.0-1.0","676ac49d62a07c31a31e85ec","6796e1c0ff24ca17c453c51c","67c710c481ea872b732c99de","passed","","698","","","","","","","","","","","","","","j","yesOrNo_prac","","","","3","","","close gt","700","","","",""
"","","","","","html-keyboard-response","40","675731","0.0-13.0-4.0-0.1","676ac49d62a07c31a31e85ec","6796e1c0ff24ca17c453c51c","67c710c481ea872b732c99de","passed","","","","","","","","","","","","","","","","","ballFalling_prac","441","500","317","6","fallScene","true","","","","","",""
"","","","","","html-keyboard-response","41","676434","0.0-13.0-4.0-1.1","676ac49d62a07c31a31e85ec","6796e1c0ff24ca17c453c51c","67c710c481ea872b732c99de","passed","","618","","","","","","","","","","","","","","j","yesOrNo_prac","","","","6","","","gt","700","","","",""
"","","","","","html-keyboard-response","42","678014","0.0-13.0-4.0-0.2","676ac49d62a07c31a31e85ec","6796e1c0ff24ca17c453c51c","67c710c481ea872b732c99de","passed","","","","","","","","","","","","","","","","","ballFalling_prac","660","610","263","4","fallScene","false","","","","","",""
"","","","","","html-keyboard-response","43","678730","0.0-13.0-4.0-1.2","676ac49d62a07c31a31e85ec","6796e1c0ff24ca17c453c51c","67c710c481ea872b732c99de","passed","","564","","","","","","","","","","","","","","j","yesOrNo_prac","","","","4","","","far gt","700","","","",""
"","","","","","instructions","44","691601","0.0-13.0-5.0","676ac49d62a07c31a31e85ec","6796e1c0ff24ca17c453c51c","67c710c481ea872b732c99de","passed","[{""page_index"":0,""viewing_time"":12870}]","12870","","","","","","","","","","","","","","","","","","","","","","","","","","",""
"","","","","","html-keyboard-response","45","694436","0.0-13.0-6.0","676ac49d62a07c31a31e85ec","6796e1c0ff24ca17c453c51c","67c710c481ea872b732c99de","passed","","2834","","","","","","","","","","","","","<p><span style=""font-size:40px;"">Practice Test BLOCK 1</span></p><p><span style=""font-size:25px;"">You have <b style=""color: #FF644F;""><strong>0.7 second(s)</strong></b> to respond to the following trials.</span><br></p><p id=""blinking-text"" style=""font-weight; animation: blink 2s infinite;"">Press Space to continue</p><style>
                    @keyframes blink {
                        50% {
                            opacity: 0;
                        }
                    }
                </style>"," ","","","","","","","","","","","","",""
"","","","","","html-keyboard-response","46","695997","0.0-13.0-7.0-0.0","676ac49d62a07c31a31e85ec","6796e1c0ff24ca17c453c51c","67c710c481ea872b732c99de","passed","","","","","","","","","","","","","","","","","ballFalling_prac","441","500","317","6","fallScene","true","","","","","",""
"","","","","","html-keyboard-response","47","696713","0.0-13.0-7.0-1.0","676ac49d62a07c31a31e85ec","6796e1c0ff24ca17c453c51c","67c710c481ea872b732c99de","passed","","null","","","","","","","","","","","","","","null","yesOrNo_prac","","","","6","","","close gt","700","","","",""
"","","","","","html-keyboard-response","48","698280","0.0-13.0-7.0-0.1","676ac49d62a07c31a31e85ec","6796e1c0ff24ca17c453c51c","67c710c481ea872b732c99de","passed","","","","","","","","","","","","","","","","","ballFalling_prac","340","390","263","4","fallScene","true","","","","","",""
"","","","","","html-keyboard-response","49","698996","0.0-13.0-7.0-1.1","676ac49d62a07c31a31e85ec","6796e1c0ff24ca17c453c51c","67c710c481ea872b732c99de","passed","","657","","","","","","","","","","","","","","j","yesOrNo_prac","","","","4","","","far gt","700","","","",""
"","","","","","html-keyboard-response","50","700563","0.0-13.0-7.0-0.2","676ac49d62a07c31a31e85ec","6796e1c0ff24ca17c453c51c","67c710c481ea872b732c99de","passed","","","","","","","","","","","","","","","","","ballFalling_prac","559","586","302","5","fallScene","false","","","","","",""
"","","","","","html-keyboard-response","51","701279","0.0-13.0-7.0-1.2","676ac49d62a07c31a31e85ec","6796e1c0ff24ca17c453c51c","67c710c481ea872b732c99de","passed","","638","","","","","","","","","","","","","","f","yesOrNo_prac","","","","5","","","gt","700","","","",""
"","","","","","html-keyboard-response","52","703252","0.0-13.0-8.0","676ac49d62a07c31a31e85ec","6796e1c0ff24ca17c453c51c","67c710c481ea872b732c99de","passed","","1972","","","","","","","","","","","","","<p><span style=""font-size:40px;"">Practice Test BLOCK 2</span></p><p><span style=""font-size:25px;"">You have <b style=""color: #FF644F;""><strong>3 second(s)</strong></b> to respond to the following trials.</span><br></p><p id=""blinking-text"" style=""font-weight; animation: blink 2s infinite;"">Press Space to continue</p><style>
                    @keyframes blink {
                        50% {
                            opacity: 0;
                        }
                    }
                </style>"," ","","","","","","","","","","","","",""
"","","","","","html-keyboard-response","53","704830","0.0-13.0-9.0-0.0","676ac49d62a07c31a31e85ec","6796e1c0ff24ca17c453c51c","67c710c481ea872b732c99de","passed","","","","","","","","","","","","","","","","","ballFalling_prac","416","365","249","2","fallScene","false","","","","","",""
"","","","","","html-keyboard-response","54","707846","0.0-13.0-9.0-1.0","676ac49d62a07c31a31e85ec","6796e1c0ff24ca17c453c51c","67c710c481ea872b732c99de","passed","","1275","","","","","","","","","","","","","","j","yesOrNo_prac","","","","2","","","gt","3000","","","",""
"","","","","","html-keyboard-response","55","709413","0.0-13.0-9.0-0.1","676ac49d62a07c31a31e85ec","6796e1c0ff24ca17c453c51c","67c710c481ea872b732c99de","passed","","","","","","","","","","","","","","","","","ballFalling_prac","340","390","263","4","fallScene","true","","","","","",""
"","","","","","html-keyboard-response","56","712416","0.0-13.0-9.0-1.1","676ac49d62a07c31a31e85ec","6796e1c0ff24ca17c453c51c","67c710c481ea872b732c99de","passed","","1285","","","","","","","","","","","","","","j","yesOrNo_prac","","","","4","","","close gt","3000","","","",""
"","","","","","html-keyboard-response","57","713997","0.0-13.0-9.0-0.2","676ac49d62a07c31a31e85ec","6796e1c0ff24ca17c453c51c","67c710c481ea872b732c99de","passed","","","","","","","","","","","","","","","","","ballFalling_prac","559","586","302","5","fallScene","false","","","","","",""
"","","","","","html-keyboard-response","58","717013","0.0-13.0-9.0-1.2","676ac49d62a07c31a31e85ec","6796e1c0ff24ca17c453c51c","67c710c481ea872b732c99de","passed","","1318","","","","","","","","","","","","","","f","yesOrNo_prac","","","","5","","","far gt","3000","","","",""
"","","","","","instructions","59","726263","0.0-14.0","676ac49d62a07c31a31e85ec","6796e1c0ff24ca17c453c51c","67c710c481ea872b732c99de","passed","[{""page_index"":0,""viewing_time"":9249}]","9249","","","","","","","","","","","","","","","","","","","","","","","","","","",""
"","","","","","html-keyboard-response","60","729020","0.0-15.0","676ac49d62a07c31a31e85ec","6796e1c0ff24ca17c453c51c","67c710c481ea872b732c99de","passed","","2755","","","","","","","","","","","","","<p><span style=""font-size:40px;"">BLOCK 1</span></p><p><span style=""font-size:25px;"">You have <b style=""color: #FF644F;""><strong>0.7 second(s)</strong></b> to respond to the following trials.</span><br></p><p></p> <!-- Blank line -->
                <p id=""blinking-text"" style=""font-weight; animation: blink 2s infinite;"">Press Space to continue</p>
                <style>
                    @keyframes blink {
                        50% {
                            opacity: 0;
                        }
                    }
                </style></p>"," ","","","","","","","","","","","","",""
"","","","","","html-keyboard-response","61","730580","0.0-16.0-0.0","676ac49d62a07c31a31e85ec","6796e1c0ff24ca17c453c51c","67c710c481ea872b732c99de","passed","","","","","","","","","","","","","","","","","ballFalling","604.4000000000001","650.0211431702996","404.58000000000004","11","fallScene","true","","","","1","",""
"","","","","","html-keyboard-response","62","731296","0.0-16.0-1.0","676ac49d62a07c31a31e85ec","6796e1c0ff24ca17c453c51c","67c710c481ea872b732c99de","passed","","null","","","","","","","","","","","","","","null","yesOrNo","","","","11","","","mid","700","","1","605.4000000000001","300"
"","","","","","html-keyboard-response","63","732863","0.0-16.0-0.1","676ac49d62a07c31a31e85ec","6796e1c0ff24ca17c453c51c","67c710c481ea872b732c99de","passed","","","","","","","","","","","","","","","","","ballFalling","500","553.4711431702997","282.51","7","fallScene","false","","","","2","",""
"","","","","","html-keyboard-response","64","733579","0.0-16.0-1.1","676ac49d62a07c31a31e85ec","6796e1c0ff24ca17c453c51c","67c710c481ea872b732c99de","passed","","null","","","","","","","","","","","","","","null","yesOrNo","","","","7","","","mid","700","","2","501","300"
"","","","","","html-keyboard-response","65","735580","0.0-16.0-0.2","676ac49d62a07c31a31e85ec","6796e1c0ff24ca17c453c51c","67c710c481ea872b732c99de","passed","","","","","","","","","","","","","","","","","ballFalling","604.4000000000001","596.8711431702998","394.5","10","fallScene","false","","","","3","",""
"","","","","","html-keyboard-response","66","736296","0.0-16.0-1.2","676ac49d62a07c31a31e85ec","6796e1c0ff24ca17c453c51c","67c710c481ea872b732c99de","passed","","541","","","","","","","","","","","","","","f","yesOrNo","","","","10","","","mid","700","","3","536.4288568297004","300"
"","","","","","html-keyboard-response","67","737780","0.0-16.0-0.3","676ac49d62a07c31a31e85ec","6796e1c0ff24ca17c453c51c","67c710c481ea872b732c99de","passed","","","","","","","","","","","","","","","","","ballFalling","604.4000000000001","667.6211431702998","201.78","9","fallScene","false","","","","4","",""
"","","","","","html-keyboard-response","68","738496","0.0-16.0-1.3","676ac49d62a07c31a31e85ec","6796e1c0ff24ca17c453c51c","67c710c481ea872b732c99de","passed","","598","","","","","","","","","","","","","","f","yesOrNo","","","","9","","","lp","700","","4","605.4000000000001","151"
"","","","","","html-keyboard-response","69","739980","0.0-16.0-0.4","676ac49d62a07c31a31e85ec","6796e1c0ff24ca17c453c51c","67c710c481ea872b732c99de","passed","","","","","","","","","","","","","","","","","ballFalling","604.4000000000001","667.6211431702998","201.78","9","fallScene","false","","","","5","",""
"","","","","","html-keyboard-response","70","740696","0.0-16.0-1.4","676ac49d62a07c31a31e85ec","6796e1c0ff24ca17c453c51c","67c710c481ea872b732c99de","passed","","421","","","","","","","","","","","","","","f","yesOrNo","","","","9","","","gt","700","","5","667.6211431702998","201.78"
"","","","","","html-keyboard-response","71","742480","0.0-16.0-0.5","676ac49d62a07c31a31e85ec","6796e1c0ff24ca17c453c51c","67c710c481ea872b732c99de","passed","","","","","","","","","","","","","","","","","ballFalling","322.3","308.07114317029976","253.89","2","fallScene","true","","","","6","",""
"","","","","","html-keyboard-response","72","743196","0.0-16.0-1.5","676ac49d62a07c31a31e85ec","6796e1c0ff24ca17c453c51c","67c710c481ea872b732c99de","passed","","457","","","","","","","","","","","","","","j","yesOrNo","","","","2","","","mid","700","","6","321.3","300"
"","","","","","html-keyboard-response","73","745196","0.0-16.0-0.6","676ac49d62a07c31a31e85ec","6796e1c0ff24ca17c453c51c","67c710c481ea872b732c99de","passed","","","","","","","","","","","","","","","","","ballFalling","604.4000000000001","596.8711431702998","394.5","10","fallScene","false","","","","7","",""
"","","","","","html-keyboard-response","74","745912","0.0-16.0-1.6","676ac49d62a07c31a31e85ec","6796e1c0ff24ca17c453c51c","67c710c481ea872b732c99de","passed","","501","","","","","","","","","","","","","","j","yesOrNo","","","","10","","","gt","700","","7","596.8711431702998","394.5"
"","","","","","html-keyboard-response","75","747913","0.0-16.0-0.7","676ac49d62a07c31a31e85ec","6796e1c0ff24ca17c453c51c","67c710c481ea872b732c99de","passed","","","","","","","","","","","","","","","","","ballFalling","500","510.8711431702997","369.03","8","fallScene","true","","","","8","",""
"","","","","","html-keyboard-response","76","748629","0.0-16.0-1.7","676ac49d62a07c31a31e85ec","6796e1c0ff24ca17c453c51c","67c710c481ea872b732c99de","passed","","481","","","","","","","","","","","","","","j","yesOrNo","","","","8","","","gt","700","","8","510.8711431702997","369.03"
"","","","","","html-keyboard-response","77","750413","0.0-16.0-0.8","676ac49d62a07c31a31e85ec","6796e1c0ff24ca17c453c51c","67c710c481ea872b732c99de","passed","","","","","","","","","","","","","","","","","ballFalling","322.3","308.07114317029976","253.89","2","fallScene","true","","","","9","",""
"","","","","","html-keyboard-response","78","751129","0.0-16.0-1.8","676ac49d62a07c31a31e85ec","6796e1c0ff24ca17c453c51c","67c710c481ea872b732c99de","passed","","535","","","","","","","","","","","","","","f","yesOrNo","","","","2","","","mid","700","","9","321.3","300"
"","","","","","html-keyboard-response","79","752780","0.0-16.0-0.9","676ac49d62a07c31a31e85ec","6796e1c0ff24ca17c453c51c","67c710c481ea872b732c99de","passed","","","","","","","","","","","","","","","","","ballFalling","500","479.92114317029973","330.87","6","fallScene","false","","","","10","",""
"","","","","","html-keyboard-response","80","753495","0.0-16.0-1.9","676ac49d62a07c31a31e85ec","6796e1c0ff24ca17c453c51c","67c710c481ea872b732c99de","passed","","510","","","","","","","","","","","","","","j","yesOrNo","","","","6","","","mid","700","","10","499","300"
"","","","","","html-keyboard-response","81","755046","0.0-16.0-0.10","676ac49d62a07c31a31e85ec","6796e1c0ff24ca17c453c51c","67c710c481ea872b732c99de","passed","","","","","","","","","","","","","","","","","ballFalling","500","453.67114317029973","210.33","5","fallScene","true","","","","11","",""
"","","","","","html-keyboard-response","82","755762","0.0-16.0-1.10","676ac49d62a07c31a31e85ec","6796e1c0ff24ca17c453c51c","67c710c481ea872b732c99de","passed","","610","","","","","","","","","","","","","","f","yesOrNo","","","","5","","","gt","700","","11","453.6711431702998","210.33"
"","","","","","html-keyboard-response","83","757763","0.0-16.0-0.11","676ac49d62a07c31a31e85ec","6796e1c0ff24ca17c453c51c","67c710c481ea872b732c99de","passed","","","","","","","","","","","","","","","","","ballFalling","604.4000000000001","596.8711431702998","394.5","10","fallScene","true","","","","12","",""
"","","","","","html-keyboard-response","84","758479","0.0-16.0-1.11","676ac49d62a07c31a31e85ec","6796e1c0ff24ca17c453c51c","67c710c481ea872b732c99de","passed","","495","","","","","","","","","","","","","","f","yesOrNo","","","","10","","","gt","700","","12","596.8711431702998","394.5"
"","","","","","html-keyboard-response","85","760029","0.0-16.0-0.12","676ac49d62a07c31a31e85ec","6796e1c0ff24ca17c453c51c","67c710c481ea872b732c99de","passed","","","","","","","","","","","","","","","","","ballFalling","322.3","379.3711431702997","245.25","1","fallScene","false","","","","13","",""
"","","","","","html-keyboard-response","86","760745","0.0-16.0-1.12","676ac49d62a07c31a31e85ec","6796e1c0ff24ca17c453c51c","67c710c481ea872b732c99de","passed","","508","","","","","","","","","","","","","","f","yesOrNo","","","","1","","","gt","700","","13","379.3711431702997","245.25"
"","","","","","html-keyboard-response","87","762396","0.0-16.0-0.13","676ac49d62a07c31a31e85ec","6796e1c0ff24ca17c453c51c","67c710c481ea872b732c99de","passed","","","","","","","","","","","","","","","","","ballFalling","500","479.92114317029973","330.87","6","fallScene","false","","","","14","",""
"","","","","","html-keyboard-response","88","763112","0.0-16.0-1.13","676ac49d62a07c31a31e85ec","6796e1c0ff24ca17c453c51c","67c710c481ea872b732c99de","passed","","598","","","","","","","","","","","","","","j","yesOrNo","","","","6","","","lp","700","","14","499","189.92909825697632"
"","","","","","html-keyboard-response","89","764663","0.0-16.0-0.14","676ac49d62a07c31a31e85ec","6796e1c0ff24ca17c453c51c","67c710c481ea872b732c99de","passed","","","","","","","","","","","","","","","","","ballFalling","500","453.67114317029973","210.33","5","fallScene","true","","","","15","",""
"","","","","","html-keyboard-response","90","765379","0.0-16.0-1.14","676ac49d62a07c31a31e85ec","6796e1c0ff24ca17c453c51c","67c710c481ea872b732c99de","passed","","627","","","","","","","","","","","","","","j","yesOrNo","","","","5","","","lp","700","","15","499","151"
"","","","","","html-keyboard-response","91","766931","0.0-16.0-0.15","676ac49d62a07c31a31e85ec","6796e1c0ff24ca17c453c51c","67c710c481ea872b732c99de","passed","","","","","","","","","","","","","","","","","ballFalling","500","453.67114317029973","210.33","5","fallScene","false","","","","16","",""
"","","","","","html-keyboard-response","92","767645","0.0-16.0-1.15","676ac49d62a07c31a31e85ec","6796e1c0ff24ca17c453c51c","67c710c481ea872b732c99de","passed","","null","","","","","","","","","","","","","","null","yesOrNo","","","","5","","","mid","700","","16","499","300"
"","","","","","html-keyboard-response","93","769196","0.0-16.0-0.16","676ac49d62a07c31a31e85ec","6796e1c0ff24ca17c453c51c","67c710c481ea872b732c99de","passed","","","","","","","","","","","","","","","","","ballFalling","604.4000000000001","650.0211431702996","404.58000000000004","11","fallScene","false","","","","17","",""
"","","","","","html-keyboard-response","94","769906","0.0-16.0-1.16","676ac49d62a07c31a31e85ec","6796e1c0ff24ca17c453c51c","67c710c481ea872b732c99de","passed","","638","","","","","","","","","","","","","","j","yesOrNo","","","","11","","","gt","700","","17","650.0211431702996","404.58"
"","","","","","html-keyboard-response","95","771463","0.0-16.0-0.17","676ac49d62a07c31a31e85ec","6796e1c0ff24ca17c453c51c","67c710c481ea872b732c99de","passed","","","","","","","","","","","","","","","","","ballFalling","322.3","379.3711431702997","245.25","1","fallScene","false","","","","18","",""
"","","","","","html-keyboard-response","96","772179","0.0-16.0-1.17","676ac49d62a07c31a31e85ec","6796e1c0ff24ca17c453c51c","67c710c481ea872b732c99de","passed","","434","","","","","","","","","","","","","","f","yesOrNo","","","","1","","","lp","700","","18","323.3","217.74551669457017"
"","","","","","html-keyboard-response","97","773729","0.0-16.0-0.18","676ac49d62a07c31a31e85ec","6796e1c0ff24ca17c453c51c","67c710c481ea872b732c99de","passed","","","","","","","","","","","","","","","","","ballFalling","500","453.67114317029973","210.33","5","fallScene","false","","","","19","",""
"","","","","","html-keyboard-response","98","774444","0.0-16.0-1.18","676ac49d62a07c31a31e85ec","6796e1c0ff24ca17c453c51c","67c710c481ea872b732c99de","passed","","712","","","","","","","","","","","","","","j","yesOrNo","","","","5","","","mid","700","","19","499","300"
"","","","","","html-keyboard-response","99","776229","0.0-16.0-0.19","676ac49d62a07c31a31e85ec","6796e1c0ff24ca17c453c51c","67c710c481ea872b732c99de","passed","","","","","","","","","","","","","","","","","ballFalling","322.3","308.07114317029976","253.89","2","fallScene","true","","","","20","",""
"","","","","","html-keyboard-response","100","776945","0.0-16.0-1.19","676ac49d62a07c31a31e85ec","6796e1c0ff24ca17c453c51c","67c710c481ea872b732c99de","passed","","661","","","","","","","","","","","","","","f","yesOrNo","","","","2","","","gt","700","","20","308.07114317029976","253.89"
"","","","","","html-keyboard-response","101","778946","0.0-16.0-0.20","676ac49d62a07c31a31e85ec","6796e1c0ff24ca17c453c51c","67c710c481ea872b732c99de","passed","","","","","","","","","","","","","","","","","ballFalling","604.4000000000001","596.8711431702998","394.5","10","fallScene","true","","","","21","",""
"","","","","","html-keyboard-response","102","779662","0.0-16.0-1.20","676ac49d62a07c31a31e85ec","6796e1c0ff24ca17c453c51c","67c710c481ea872b732c99de","passed","","null","","","","","","","","","","","","","","null","yesOrNo","","","","10","","","lp","700","","21","603.4000000000001","215.50214355555383"
"","","","","","html-keyboard-response","103","781312","0.0-16.0-0.21","676ac49d62a07c31a31e85ec","6796e1c0ff24ca17c453c51c","67c710c481ea872b732c99de","passed","","","","","","","","","","","","","","","","","ballFalling","500","479.92114317029973","330.87","6","fallScene","true","","","","22","",""
"","","","","","html-keyboard-response","104","782028","0.0-16.0-1.21","676ac49d62a07c31a31e85ec","6796e1c0ff24ca17c453c51c","67c710c481ea872b732c99de","passed","","505","","","","","","","","","","","","","","f","yesOrNo","","","","6","","","mid","700","","22","499","300"
"","","","","","html-keyboard-response","105","784029","0.0-16.0-0.22","676ac49d62a07c31a31e85ec","6796e1c0ff24ca17c453c51c","67c710c481ea872b732c99de","passed","","","","","","","","","","","","","","","","","ballFalling","604.4000000000001","596.8711431702998","394.5","10","fallScene","false","","","","23","",""
"","","","","","html-keyboard-response","106","784745","0.0-16.0-1.22","676ac49d62a07c31a31e85ec","6796e1c0ff24ca17c453c51c","67c710c481ea872b732c99de","passed","","676","","","","","","","","","","","","","","f","yesOrNo","","","","10","","","mid","700","","23","536.4288568297004","300"
"","","","","","html-keyboard-response","107","786746","0.0-16.0-0.23","676ac49d62a07c31a31e85ec","6796e1c0ff24ca17c453c51c","67c710c481ea872b732c99de","passed","","","","","","","","","","","","","","","","","ballFalling","500","510.8711431702997","369.03","8","fallScene","false","","","","24","",""
"","","","","","html-keyboard-response","108","787462","0.0-16.0-1.23","676ac49d62a07c31a31e85ec","6796e1c0ff24ca17c453c51c","67c710c481ea872b732c99de","passed","","585","","","","","","","","","","","","","","f","yesOrNo","","","","8","","","lp","700","","24","501","151"
"","","","","","html-keyboard-response","109","789604","0.0-17.0","676ac49d62a07c31a31e85ec","6796e1c0ff24ca17c453c51c","67c710c481ea872b732c99de","passed","","2141","","","","","","","","","","","","","<p><span style=""font-size:40px;"">BLOCK 2</span></p><p><span style=""font-size:25px;"">You have <b style=""color: #FF644F;""><strong>3 second(s)</strong></b> to respond to the following trials.</span><br></p><p></p> <!-- Blank line -->
                <p id=""blinking-text"" style=""font-weight; animation: blink 2s infinite;"">Press Space to continue</p>
                <style>
                    @keyframes blink {
                        50% {
                            opacity: 0;
                        }
                    }
                </style></p>"," ","","","","","","","","","","","","",""
"","","","","","html-keyboard-response","110","791096","0.0-18.0-0.0","676ac49d62a07c31a31e85ec","6796e1c0ff24ca17c453c51c","67c710c481ea872b732c99de","passed","","","","","","","","","","","","","","","","","ballFalling","604.4000000000001","667.6211431702998","201.78","9","fallScene","false","","","","25","",""
"","","","","","html-keyboard-response","111","794099","0.0-18.0-1.0","676ac49d62a07c31a31e85ec","6796e1c0ff24ca17c453c51c","67c710c481ea872b732c99de","passed","","873","","","","","","","","","","","","","","j","yesOrNo","","","","9","","","mid","3000","","25","605.4000000000001","300"
"","","","","","html-keyboard-response","112","795596","0.0-18.0-0.1","676ac49d62a07c31a31e85ec","6796e1c0ff24ca17c453c51c","67c710c481ea872b732c99de","passed","","","","","","","","","","","","","","","","","ballFalling","604.4000000000001","667.6211431702998","201.78","9","fallScene","true","","","","26","",""
"","","","","","html-keyboard-response","113","798612","0.0-18.0-1.1","676ac49d62a07c31a31e85ec","6796e1c0ff24ca17c453c51c","67c710c481ea872b732c99de","passed","","1974","","","","","","","","","","","","","","j","yesOrNo","","","","9","","","mid","3000","","26","605.4000000000001","300"
"","","","","","html-keyboard-response","114","800096","0.0-18.0-0.2","676ac49d62a07c31a31e85ec","6796e1c0ff24ca17c453c51c","67c710c481ea872b732c99de","passed","","","","","","","","","","","","","","","","","ballFalling","604.4000000000001","667.6211431702998","201.78","9","fallScene","true","","","","27","",""
"","","","","","html-keyboard-response","115","803112","0.0-18.0-1.2","676ac49d62a07c31a31e85ec","6796e1c0ff24ca17c453c51c","67c710c481ea872b732c99de","passed","","835","","","","","","","","","","","","","","f","yesOrNo","","","","9","","","lp","3000","","27","605.4000000000001","151"
"","","","","","html-keyboard-response","116","804662","0.0-18.0-0.3","676ac49d62a07c31a31e85ec","6796e1c0ff24ca17c453c51c","67c710c481ea872b732c99de","passed","","","","","","","","","","","","","","","","","ballFalling","604.4000000000001","650.0211431702996","404.58000000000004","11","fallScene","false","","","","28","",""
"","","","","","html-keyboard-response","117","807665","0.0-18.0-1.3","676ac49d62a07c31a31e85ec","6796e1c0ff24ca17c453c51c","67c710c481ea872b732c99de","passed","","2227","","","","","","","","","","","","","","f","yesOrNo","","","","11","","","gt","3000","","28","650.0211431702996","404.58"
"","","","","","html-keyboard-response","118","809679","0.0-18.0-0.4","676ac49d62a07c31a31e85ec","6796e1c0ff24ca17c453c51c","67c710c481ea872b732c99de","passed","","","","","","","","","","","","","","","","","ballFalling","500","510.8711431702997","369.03","8","fallScene","true","","","","29","",""
"","","","","","html-keyboard-response","119","812695","0.0-18.0-1.4","676ac49d62a07c31a31e85ec","6796e1c0ff24ca17c453c51c","67c710c481ea872b732c99de","passed","","884","","","","","","","","","","","","","","j","yesOrNo","","","","8","","","mid","3000","","29","501","300"
"","","","","","html-keyboard-response","120","814346","0.0-18.0-0.5","676ac49d62a07c31a31e85ec","6796e1c0ff24ca17c453c51c","67c710c481ea872b732c99de","passed","","","","","","","","","","","","","","","","","ballFalling","500","479.92114317029973","330.87","6","fallScene","true","","","","30","",""
"","","","","","html-keyboard-response","121","817361","0.0-18.0-1.5","676ac49d62a07c31a31e85ec","6796e1c0ff24ca17c453c51c","67c710c481ea872b732c99de","passed","","2871","","","","","","","","","","","","","","j","yesOrNo","","","","6","","","mid","3000","","30","499","300"
"","","","","","html-keyboard-response","122","819146","0.0-18.0-0.6","676ac49d62a07c31a31e85ec","6796e1c0ff24ca17c453c51c","67c710c481ea872b732c99de","passed","","","","","","","","","","","","","","","","","ballFalling","322.3","308.07114317029976","253.89","2","fallScene","true","","","","31","",""
"","","","","","html-keyboard-response","123","822154","0.0-18.0-1.6","676ac49d62a07c31a31e85ec","6796e1c0ff24ca17c453c51c","67c710c481ea872b732c99de","passed","","2434","","","","","","","","","","","","","","f","yesOrNo","","","","2","","","mid","3000","","31","321.3","300"
"","","","","","html-keyboard-response","124","823712","0.0-18.0-0.7","676ac49d62a07c31a31e85ec","6796e1c0ff24ca17c453c51c","67c710c481ea872b732c99de","passed","","","","","","","","","","","","","","","","","ballFalling","322.3","379.3711431702997","245.25","1","fallScene","true","","","","32","",""
"","","","","","html-keyboard-response","125","826715","0.0-18.0-1.7","676ac49d62a07c31a31e85ec","6796e1c0ff24ca17c453c51c","67c710c481ea872b732c99de","passed","","1451","","","","","","","","","","","","","","f","yesOrNo","","","","1","","","gt","3000","","32","379.3711431702997","245.25"
"","","","","","html-keyboard-response","126","828212","0.0-18.0-0.8","676ac49d62a07c31a31e85ec","6796e1c0ff24ca17c453c51c","67c710c481ea872b732c99de","passed","","","","","","","","","","","","","","","","","ballFalling","604.4000000000001","667.6211431702998","201.78","9","fallScene","false","","","","33","",""
"","","","","","html-keyboard-response","127","831228","0.0-18.0-1.8","676ac49d62a07c31a31e85ec","6796e1c0ff24ca17c453c51c","67c710c481ea872b732c99de","passed","","1229","","","","","","","","","","","","","","f","yesOrNo","","","","9","","","gt","3000","","33","667.6211431702998","201.78"
"","","","","","html-keyboard-response","128","832795","0.0-18.0-0.9","676ac49d62a07c31a31e85ec","6796e1c0ff24ca17c453c51c","67c710c481ea872b732c99de","passed","","","","","","","","","","","","","","","","","ballFalling","500","553.4711431702997","282.51","7","fallScene","false","","","","34","",""
"","","","","","html-keyboard-response","129","835811","0.0-18.0-1.9","676ac49d62a07c31a31e85ec","6796e1c0ff24ca17c453c51c","67c710c481ea872b732c99de","passed","","1702","","","","","","","","","","","","","","f","yesOrNo","","","","7","","","gt","3000","","34","553.4711431702997","282.51"
"","","","","","html-keyboard-response","130","837812","0.0-18.0-0.10","676ac49d62a07c31a31e85ec","6796e1c0ff24ca17c453c51c","67c710c481ea872b732c99de","passed","","","","","","","","","","","","","","","","","ballFalling","604.4000000000001","596.8711431702998","394.5","10","fallScene","false","","","","35","",""
"","","","","","html-keyboard-response","131","840828","0.0-18.0-1.10","676ac49d62a07c31a31e85ec","6796e1c0ff24ca17c453c51c","67c710c481ea872b732c99de","passed","","1861","","","","","","","","","","","","","","j","yesOrNo","","","","10","","","gt","3000","","35","596.8711431702998","394.5"
"","","","","","html-keyboard-response","132","842395","0.0-18.0-0.11","676ac49d62a07c31a31e85ec","6796e1c0ff24ca17c453c51c","67c710c481ea872b732c99de","passed","","","","","","","","","","","","","","","","","ballFalling","500","553.4711431702997","282.51","7","fallScene","false","","","","36","",""
"","","","","","html-keyboard-response","133","845397","0.0-18.0-1.11","676ac49d62a07c31a31e85ec","6796e1c0ff24ca17c453c51c","67c710c481ea872b732c99de","passed","","1070","","","","","","","","","","","","","","f","yesOrNo","","","","7","","","gt","3000","","36","553.4711431702997","282.51"
"","","","","","html-keyboard-response","134","846962","0.0-18.0-0.12","676ac49d62a07c31a31e85ec","6796e1c0ff24ca17c453c51c","67c710c481ea872b732c99de","passed","","","","","","","","","","","","","","","","","ballFalling","604.4000000000001","650.0211431702996","404.58000000000004","11","fallScene","true","","","","37","",""
"","","","","","html-keyboard-response","135","849978","0.0-18.0-1.12","676ac49d62a07c31a31e85ec","6796e1c0ff24ca17c453c51c","67c710c481ea872b732c99de","passed","","1928","","","","","","","","","","","","","","j","yesOrNo","","","","11","","","mid","3000","","37","605.4000000000001","300"
"","","","","","html-keyboard-response","136","851978","0.0-18.0-0.13","676ac49d62a07c31a31e85ec","6796e1c0ff24ca17c453c51c","67c710c481ea872b732c99de","passed","","","","","","","","","","","","","","","","","ballFalling","604.4000000000001","596.8711431702998","394.5","10","fallScene","false","","","","38","",""
"","","","","","html-keyboard-response","137","854994","0.0-18.0-1.13","676ac49d62a07c31a31e85ec","6796e1c0ff24ca17c453c51c","67c710c481ea872b732c99de","passed","","1902","","","","","","","","","","","","","","f","yesOrNo","","","","10","","","lp","3000","","38","603.4000000000001","215.50214355555383"
"","","","","","html-keyboard-response","138","856545","0.0-18.0-0.14","676ac49d62a07c31a31e85ec","6796e1c0ff24ca17c453c51c","67c710c481ea872b732c99de","passed","","","","","","","","","","","","","","","","","ballFalling","322.3","379.3711431702997","245.25","1","fallScene","false","","","","39","",""
"","","","","","html-keyboard-response","139","859561","0.0-18.0-1.14","676ac49d62a07c31a31e85ec","6796e1c0ff24ca17c453c51c","67c710c481ea872b732c99de","passed","","2753","","","","","","","","","","","","","","f","yesOrNo","","","","1","","","lp","3000","","39","323.3","217.74551669457017"
"","","","","","html-keyboard-response","140","861112","0.0-18.0-0.15","676ac49d62a07c31a31e85ec","6796e1c0ff24ca17c453c51c","67c710c481ea872b732c99de","passed","","","","","","","","","","","","","","","","","ballFalling","322.3","356.42114317029973","357.87","4","fallScene","false","","","","40","",""
"","","","","","html-keyboard-response","141","864127","0.0-18.0-1.15","676ac49d62a07c31a31e85ec","6796e1c0ff24ca17c453c51c","67c710c481ea872b732c99de","passed","","1651","","","","","","","","","","","","","","j","yesOrNo","","","","4","","","gt","3000","","40","356.42114317029973","357.87"
"","","","","","html-keyboard-response","142","866128","0.0-18.0-0.16","676ac49d62a07c31a31e85ec","6796e1c0ff24ca17c453c51c","67c710c481ea872b732c99de","passed","","","","","","","","","","","","","","","","","ballFalling","604.4000000000001","596.8711431702998","394.5","10","fallScene","false","","","","41","",""
"","","","","","html-keyboard-response","143","869144","0.0-18.0-1.16","676ac49d62a07c31a31e85ec","6796e1c0ff24ca17c453c51c","67c710c481ea872b732c99de","passed","","1209","","","","","","","","","","","","","","f","yesOrNo","","","","10","","","mid","3000","","41","536.4288568297004","300"
"","","","","","html-keyboard-response","144","870930","0.0-18.0-0.17","676ac49d62a07c31a31e85ec","6796e1c0ff24ca17c453c51c","67c710c481ea872b732c99de","passed","","","","","","","","","","","","","","","","","ballFalling","322.3","308.07114317029976","253.89","2","fallScene","false","","","","42","",""
"","","","","","html-keyboard-response","145","873944","0.0-18.0-1.17","676ac49d62a07c31a31e85ec","6796e1c0ff24ca17c453c51c","67c710c481ea872b732c99de","passed","","1161","","","","","","","","","","","","","","j","yesOrNo","","","","2","","","mid","3000","","42","321.3","300"
"","","","","","html-keyboard-response","146","875495","0.0-18.0-0.18","676ac49d62a07c31a31e85ec","6796e1c0ff24ca17c453c51c","67c710c481ea872b732c99de","passed","","","","","","","","","","","","","","","","","ballFalling","604.4000000000001","650.0211431702996","404.58000000000004","11","fallScene","false","","","","43","",""
"","","","","","html-keyboard-response","147","878511","0.0-18.0-1.18","676ac49d62a07c31a31e85ec","6796e1c0ff24ca17c453c51c","67c710c481ea872b732c99de","passed","","2268","","","","","","","","","","","","","","f","yesOrNo","","","","11","","","lp","3000","","43","605.4000000000001","372.6340973215488"
"","","","","","html-keyboard-response","148","880511","0.0-18.0-0.19","676ac49d62a07c31a31e85ec","6796e1c0ff24ca17c453c51c","67c710c481ea872b732c99de","passed","","","","","","","","","","","","","","","","","ballFalling","604.4000000000001","596.8711431702998","394.5","10","fallScene","false","","","","44","",""
"","","","","","html-keyboard-response","149","883527","0.0-18.0-1.19","676ac49d62a07c31a31e85ec","6796e1c0ff24ca17c453c51c","67c710c481ea872b732c99de","passed","","null","","","","","","","","","","","","","","null","yesOrNo","","","","10","","","lp","3000","","44","603.4000000000001","215.50214355555383"
"","","","","","html-keyboard-response","150","885078","0.0-18.0-0.20","676ac49d62a07c31a31e85ec","6796e1c0ff24ca17c453c51c","67c710c481ea872b732c99de","passed","","","","","","","","","","","","","","","","","ballFalling","604.4000000000001","575.4211431702997","266.76","12","fallScene","false","","","","45","",""
"","","","","","html-keyboard-response","151","888081","0.0-18.0-1.20","676ac49d62a07c31a31e85ec","6796e1c0ff24ca17c453c51c","67c710c481ea872b732c99de","passed","","1412","","","","","","","","","","","","","","f","yesOrNo","","","","12","","","mid","3000","","45","536.4288568297004","300"
"","","","","","html-keyboard-response","152","889645","0.0-18.0-0.21","676ac49d62a07c31a31e85ec","6796e1c0ff24ca17c453c51c","67c710c481ea872b732c99de","passed","","","","","","","","","","","","","","","","","ballFalling","322.3","356.42114317029973","357.87","4","fallScene","true","","","","46","",""
"","","","","","html-keyboard-response","153","892661","0.0-18.0-1.21","676ac49d62a07c31a31e85ec","6796e1c0ff24ca17c453c51c","67c710c481ea872b732c99de","passed","","956","","","","","","","","","","","","","","j","yesOrNo","","","","4","","","lp","3000","","46","323.3","297.4070551689986"
"","","","","","html-keyboard-response","154","894211","0.0-18.0-0.22","676ac49d62a07c31a31e85ec","6796e1c0ff24ca17c453c51c","67c710c481ea872b732c99de","passed","","","","","","","","","","","","","","","","","ballFalling","322.3","356.42114317029973","357.87","4","fallScene","false","","","","47","",""
"","","","","","html-keyboard-response","155","897227","0.0-18.0-1.22","676ac49d62a07c31a31e85ec","6796e1c0ff24ca17c453c51c","67c710c481ea872b732c99de","passed","","1438","","","","","","","","","","","","","","f","yesOrNo","","","","4","","","mid","3000","","47","390.27114317029975","300"
"","","","","","html-keyboard-response","156","898778","0.0-18.0-0.23","676ac49d62a07c31a31e85ec","6796e1c0ff24ca17c453c51c","67c710c481ea872b732c99de","passed","","","","","","","","","","","","","","","","","ballFalling","604.4000000000001","575.4211431702997","266.76","12","fallScene","false","","","","48","",""
"","","","","","html-keyboard-response","157","901794","0.0-18.0-1.23","676ac49d62a07c31a31e85ec","6796e1c0ff24ca17c453c51c","67c710c481ea872b732c99de","passed","","2288","","","","","","","","","","","","","","f","yesOrNo","","","","12","","","mid","3000","","48","536.4288568297004","300"
"","","","","","html-keyboard-response","158","904731","0.0-19.0","676ac49d62a07c31a31e85ec","6796e1c0ff24ca17c453c51c","67c710c481ea872b732c99de","passed","","2937","","","","","","","","","","","","","<p><span style=""font-size:40px;"">BLOCK 3</span></p><p><span style=""font-size:25px;"">You have <b style=""color: #FF644F;""><strong>0.7 second(s)</strong></b> to respond to the following trials.</span><br></p><p></p> <!-- Blank line -->
                <p id=""blinking-text"" style=""font-weight; animation: blink 2s infinite;"">Press Space to continue</p>
                <style>
                    @keyframes blink {
                        50% {
                            opacity: 0;
                        }
                    }
                </style></p>"," ","","","","","","","","","","","","",""
"","","","","","html-keyboard-response","159","906529","0.0-20.0-0.0","676ac49d62a07c31a31e85ec","6796e1c0ff24ca17c453c51c","67c710c481ea872b732c99de","passed","","","","","","","","","","","","","","","","","ballFalling","322.3","308.07114317029976","253.89","2","fallScene","true","","","","49","",""
"","","","","","html-keyboard-response","160","907244","0.0-20.0-1.0","676ac49d62a07c31a31e85ec","6796e1c0ff24ca17c453c51c","67c710c481ea872b732c99de","passed","","617","","","","","","","","","","","","","","f","yesOrNo","","","","2","","","lp","700","","49","321.3","151"
"","","","","","html-keyboard-response","161","908795","0.0-20.0-0.1","676ac49d62a07c31a31e85ec","6796e1c0ff24ca17c453c51c","67c710c481ea872b732c99de","passed","","","","","","","","","","","","","","","","","ballFalling","322.3","356.42114317029973","357.87","4","fallScene","false","","","","50","",""
"","","","","","html-keyboard-response","162","909510","0.0-20.0-1.1","676ac49d62a07c31a31e85ec","6796e1c0ff24ca17c453c51c","67c710c481ea872b732c99de","passed","","655","","","","","","","","","","","","","","f","yesOrNo","","","","4","","","gt","700","","50","356.42114317029973","357.87"
"","","","","","html-keyboard-response","163","911161","0.0-20.0-0.2","676ac49d62a07c31a31e85ec","6796e1c0ff24ca17c453c51c","67c710c481ea872b732c99de","passed","","","","","","","","","","","","","","","","","ballFalling","500","479.92114317029973","330.87","6","fallScene","true","","","","51","",""
"","","","","","html-keyboard-response","164","911877","0.0-20.0-1.2","676ac49d62a07c31a31e85ec","6796e1c0ff24ca17c453c51c","67c710c481ea872b732c99de","passed","","472","","","","","","","","","","","","","","j","yesOrNo","","","","6","","","gt","700","","51","479.9211431702998","330.87"
"","","","","","html-keyboard-response","165","913428","0.0-20.0-0.3","676ac49d62a07c31a31e85ec","6796e1c0ff24ca17c453c51c","67c710c481ea872b732c99de","passed","","","","","","","","","","","","","","","","","ballFalling","604.4000000000001","650.0211431702996","404.58000000000004","11","fallScene","true","","","","52","",""
"","","","","","html-keyboard-response","166","914144","0.0-20.0-1.3","676ac49d62a07c31a31e85ec","6796e1c0ff24ca17c453c51c","67c710c481ea872b732c99de","passed","","568","","","","","","","","","","","","","","j","yesOrNo","","","","11","","","gt","700","","52","650.0211431702996","404.58"
"","","","","","html-keyboard-response","167","915628","0.0-20.0-0.4","676ac49d62a07c31a31e85ec","6796e1c0ff24ca17c453c51c","67c710c481ea872b732c99de","passed","","","","","","","","","","","","","","","","","ballFalling","604.4000000000001","667.6211431702998","201.78","9","fallScene","false","","","","53","",""
"","","","","","html-keyboard-response","168","916338","0.0-20.0-1.4","676ac49d62a07c31a31e85ec","6796e1c0ff24ca17c453c51c","67c710c481ea872b732c99de","passed","","605","","","","","","","","","","","","","","f","yesOrNo","","","","9","","","mid","700","","53","605.4000000000001","300"
"","","","","","html-keyboard-response","169","917828","0.0-20.0-0.5","676ac49d62a07c31a31e85ec","6796e1c0ff24ca17c453c51c","67c710c481ea872b732c99de","passed","","","","","","","","","","","","","","","","","ballFalling","604.4000000000001","667.6211431702998","201.78","9","fallScene","true","","","","54","",""
"","","","","","html-keyboard-response","170","918531","0.0-20.0-1.5","676ac49d62a07c31a31e85ec","6796e1c0ff24ca17c453c51c","67c710c481ea872b732c99de","passed","","598","","","","","","","","","","","","","","f","yesOrNo","","","","9","","","mid","700","","54","605.4000000000001","300"
"","","","","","html-keyboard-response","171","920111","0.0-20.0-0.6","676ac49d62a07c31a31e85ec","6796e1c0ff24ca17c453c51c","67c710c481ea872b732c99de","passed","","","","","","","","","","","","","","","","","ballFalling","500","553.4711431702997","282.51","7","fallScene","false","","","","55","",""
"","","","","","html-keyboard-response","172","920827","0.0-20.0-1.6","676ac49d62a07c31a31e85ec","6796e1c0ff24ca17c453c51c","67c710c481ea872b732c99de","passed","","602","","","","","","","","","","","","","","j","yesOrNo","","","","7","","","mid","700","","55","501","300"
"","","","","","html-keyboard-response","173","922311","0.0-20.0-0.7","676ac49d62a07c31a31e85ec","6796e1c0ff24ca17c453c51c","67c710c481ea872b732c99de","passed","","","","","","","","","","","","","","","","","ballFalling","604.4000000000001","667.6211431702998","201.78","9","fallScene","false","","","","56","",""
"","","","","","html-keyboard-response","174","923027","0.0-20.0-1.7","676ac49d62a07c31a31e85ec","6796e1c0ff24ca17c453c51c","67c710c481ea872b732c99de","passed","","578","","","","","","","","","","","","","","f","yesOrNo","","","","9","","","lp","700","","56","605.4000000000001","151"
"","","","","","html-keyboard-response","175","924811","0.0-20.0-0.8","676ac49d62a07c31a31e85ec","6796e1c0ff24ca17c453c51c","67c710c481ea872b732c99de","passed","","","","","","","","","","","","","","","","","ballFalling","322.3","308.07114317029976","253.89","2","fallScene","true","","","","57","",""
"","","","","","html-keyboard-response","176","925527","0.0-20.0-1.8","676ac49d62a07c31a31e85ec","6796e1c0ff24ca17c453c51c","67c710c481ea872b732c99de","passed","","646","","","","","","","","","","","","","","f","yesOrNo","","","","2","","","lp","700","","57","321.3","151"
"","","","","","html-keyboard-response","177","927078","0.0-20.0-0.9","676ac49d62a07c31a31e85ec","6796e1c0ff24ca17c453c51c","67c710c481ea872b732c99de","passed","","","","","","","","","","","","","","","","","ballFalling","604.4000000000001","575.4211431702997","266.76","12","fallScene","false","","","","58","",""
"","","","","","html-keyboard-response","178","927780","0.0-20.0-1.9","676ac49d62a07c31a31e85ec","6796e1c0ff24ca17c453c51c","67c710c481ea872b732c99de","passed","","null","","","","","","","","","","","","","","null","yesOrNo","","","","12","","","mid","700","","58","536.4288568297004","300"
"","","","","","html-keyboard-response","179","929344","0.0-20.0-0.10","676ac49d62a07c31a31e85ec","6796e1c0ff24ca17c453c51c","67c710c481ea872b732c99de","passed","","","","","","","","","","","","","","","","","ballFalling","322.3","296.07114317029976","371.46","3","fallScene","true","","","","59","",""
"","","","","","html-keyboard-response","180","930060","0.0-20.0-1.10","676ac49d62a07c31a31e85ec","6796e1c0ff24ca17c453c51c","67c710c481ea872b732c99de","passed","","569","","","","","","","","","","","","","","j","yesOrNo","","","","3","","","gt","700","","59","296.07114317029976","371.46"
"","","","","","html-keyboard-response","181","931611","0.0-20.0-0.11","676ac49d62a07c31a31e85ec","6796e1c0ff24ca17c453c51c","67c710c481ea872b732c99de","passed","","","","","","","","","","","","","","","","","ballFalling","322.3","296.07114317029976","371.46","3","fallScene","false","","","","60","",""
"","","","","","html-keyboard-response","182","932327","0.0-20.0-1.11","676ac49d62a07c31a31e85ec","6796e1c0ff24ca17c453c51c","67c710c481ea872b732c99de","passed","","631","","","","","","","","","","","","","","j","yesOrNo","","","","3","","","gt","700","","60","296.07114317029976","371.46"
"","","","","","html-keyboard-response","183","933878","0.0-20.0-0.12","676ac49d62a07c31a31e85ec","6796e1c0ff24ca17c453c51c","67c710c481ea872b732c99de","passed","","","","","","","","","","","","","","","","","ballFalling","322.3","296.07114317029976","371.46","3","fallScene","false","","","","61","",""
"","","","","","html-keyboard-response","184","934593","0.0-20.0-1.12","676ac49d62a07c31a31e85ec","6796e1c0ff24ca17c453c51c","67c710c481ea872b732c99de","passed","","644","","","","","","","","","","","","","","j","yesOrNo","","","","3","","","mid","700","","61","321.3","300"
"","","","","","html-keyboard-response","185","936594","0.0-20.0-0.13","676ac49d62a07c31a31e85ec","6796e1c0ff24ca17c453c51c","67c710c481ea872b732c99de","passed","","","","","","","","","","","","","","","","","ballFalling","500","510.8711431702997","369.03","8","fallScene","false","","","","62","",""
"","","","","","html-keyboard-response","186","937306","0.0-20.0-1.13","676ac49d62a07c31a31e85ec","6796e1c0ff24ca17c453c51c","67c710c481ea872b732c99de","passed","","648","","","","","","","","","","","","","","j","yesOrNo","","","","8","","","gt","700","","62","510.8711431702997","369.03"
"","","","","","html-keyboard-response","187","939311","0.0-20.0-0.14","676ac49d62a07c31a31e85ec","6796e1c0ff24ca17c453c51c","67c710c481ea872b732c99de","passed","","","","","","","","","","","","","","","","","ballFalling","500","510.8711431702997","369.03","8","fallScene","false","","","","63","",""
"","","","","","html-keyboard-response","188","940027","0.0-20.0-1.14","676ac49d62a07c31a31e85ec","6796e1c0ff24ca17c453c51c","67c710c481ea872b732c99de","passed","","523","","","","","","","","","","","","","","j","yesOrNo","","","","8","","","mid","700","","63","501","300"
"","","","","","html-keyboard-response","189","941578","0.0-20.0-0.15","676ac49d62a07c31a31e85ec","6796e1c0ff24ca17c453c51c","67c710c481ea872b732c99de","passed","","","","","","","","","","","","","","","","","ballFalling","604.4000000000001","575.4211431702997","266.76","12","fallScene","true","","","","64","",""
"","","","","","html-keyboard-response","190","942293","0.0-20.0-1.15","676ac49d62a07c31a31e85ec","6796e1c0ff24ca17c453c51c","67c710c481ea872b732c99de","passed","","544","","","","","","","","","","","","","","f","yesOrNo","","","","12","","","lp","700","","64","603.4000000000001","151"
"","","","","","html-keyboard-response","191","944294","0.0-20.0-0.16","676ac49d62a07c31a31e85ec","6796e1c0ff24ca17c453c51c","67c710c481ea872b732c99de","passed","","","","","","","","","","","","","","","","","ballFalling","604.4000000000001","596.8711431702998","394.5","10","fallScene","false","","","","65","",""
"","","","","","html-keyboard-response","192","945010","0.0-20.0-1.16","676ac49d62a07c31a31e85ec","6796e1c0ff24ca17c453c51c","67c710c481ea872b732c99de","passed","","563","","","","","","","","","","","","","","j","yesOrNo","","","","10","","","lp","700","","65","603.4000000000001","215.50214355555383"
"","","","","","html-keyboard-response","193","946561","0.0-20.0-0.17","676ac49d62a07c31a31e85ec","6796e1c0ff24ca17c453c51c","67c710c481ea872b732c99de","passed","","","","","","","","","","","","","","","","","ballFalling","604.4000000000001","575.4211431702997","266.76","12","fallScene","false","","","","66","",""
"","","","","","html-keyboard-response","194","947277","0.0-20.0-1.17","676ac49d62a07c31a31e85ec","6796e1c0ff24ca17c453c51c","67c710c481ea872b732c99de","passed","","553","","","","","","","","","","","","","","j","yesOrNo","","","","12","","","gt","700","","66","575.4211431702997","266.76"
"","","","","","html-keyboard-response","195","948828","0.0-20.0-0.18","676ac49d62a07c31a31e85ec","6796e1c0ff24ca17c453c51c","67c710c481ea872b732c99de","passed","","","","","","","","","","","","","","","","","ballFalling","604.4000000000001","575.4211431702997","266.76","12","fallScene","false","","","","67","",""
"","","","","","html-keyboard-response","196","949530","0.0-20.0-1.18","676ac49d62a07c31a31e85ec","6796e1c0ff24ca17c453c51c","67c710c481ea872b732c99de","passed","","462","","","","","","","","","","","","","","j","yesOrNo","","","","12","","","gt","700","","67","575.4211431702997","266.76"
"","","","","","html-keyboard-response","197","951094","0.0-20.0-0.19","676ac49d62a07c31a31e85ec","6796e1c0ff24ca17c453c51c","67c710c481ea872b732c99de","passed","","","","","","","","","","","","","","","","","ballFalling","500","453.67114317029973","210.33","5","fallScene","false","","","","68","",""
"","","","","","html-keyboard-response","198","951810","0.0-20.0-1.19","676ac49d62a07c31a31e85ec","6796e1c0ff24ca17c453c51c","67c710c481ea872b732c99de","passed","","517","","","","","","","","","","","","","","j","yesOrNo","","","","5","","","gt","700","","68","453.6711431702998","210.33"
"","","","","","html-keyboard-response","199","953594","0.0-20.0-0.20","676ac49d62a07c31a31e85ec","6796e1c0ff24ca17c453c51c","67c710c481ea872b732c99de","passed","","","","","","","","","","","","","","","","","ballFalling","322.3","308.07114317029976","253.89","2","fallScene","false","","","","69","",""
"","","","","","html-keyboard-response","200","954310","0.0-20.0-1.20","676ac49d62a07c31a31e85ec","6796e1c0ff24ca17c453c51c","67c710c481ea872b732c99de","passed","","552","","","","","","","","","","","","","","j","yesOrNo","","","","2","","","gt","700","","69","308.07114317029976","253.89"
"","","","","","html-keyboard-response","201","955861","0.0-20.0-0.21","676ac49d62a07c31a31e85ec","6796e1c0ff24ca17c453c51c","67c710c481ea872b732c99de","passed","","","","","","","","","","","","","","","","","ballFalling","322.3","296.07114317029976","371.46","3","fallScene","false","","","","70","",""
"","","","","","html-keyboard-response","202","956577","0.0-20.0-1.21","676ac49d62a07c31a31e85ec","6796e1c0ff24ca17c453c51c","67c710c481ea872b732c99de","passed","","551","","","","","","","","","","","","","","j","yesOrNo","","","","3","","","lp","700","","70","321.3","287.3327096511259"
"","","","","","html-keyboard-response","203","958127","0.0-20.0-0.22","676ac49d62a07c31a31e85ec","6796e1c0ff24ca17c453c51c","67c710c481ea872b732c99de","passed","","","","","","","","","","","","","","","","","ballFalling","604.4000000000001","650.0211431702996","404.58000000000004","11","fallScene","true","","","","71","",""
"","","","","","html-keyboard-response","204","958843","0.0-20.0-1.22","676ac49d62a07c31a31e85ec","6796e1c0ff24ca17c453c51c","67c710c481ea872b732c99de","passed","","530","","","","","","","","","","","","","","j","yesOrNo","","","","11","","","mid","700","","71","605.4000000000001","300"
"","","","","","html-keyboard-response","205","960394","0.0-20.0-0.23","676ac49d62a07c31a31e85ec","6796e1c0ff24ca17c453c51c","67c710c481ea872b732c99de","passed","","","","","","","","","","","","","","","","","ballFalling","322.3","379.3711431702997","245.25","1","fallScene","false","","","","72","",""
"","","","","","html-keyboard-response","206","961098","0.0-20.0-1.23","676ac49d62a07c31a31e85ec","6796e1c0ff24ca17c453c51c","67c710c481ea872b732c99de","passed","","591","","","","","","","","","","","","","","f","yesOrNo","","","","1","","","lp","700","","72","323.3","217.74551669457017"
"","","","","","html-keyboard-response","207","964116","0.0-21.0","676ac49d62a07c31a31e85ec","6796e1c0ff24ca17c453c51c","67c710c481ea872b732c99de","passed","","3017","","","","","","","","","","","","","<p><span style=""font-size:40px;"">BLOCK 4</span></p><p><span style=""font-size:25px;"">You have <b style=""color: #FF644F;""><strong>3 second(s)</strong></b> to respond to the following trials.</span><br></p><p></p> <!-- Blank line -->
                <p id=""blinking-text"" style=""font-weight; animation: blink 2s infinite;"">Press Space to continue</p>
                <style>
                    @keyframes blink {
                        50% {
                            opacity: 0;
                        }
                    }
                </style></p>"," ","","","","","","","","","","","","",""
"","","","","","html-keyboard-response","208","965694","0.0-22.0-0.0","676ac49d62a07c31a31e85ec","6796e1c0ff24ca17c453c51c","67c710c481ea872b732c99de","passed","","","","","","","","","","","","","","","","","ballFalling","500","553.4711431702997","282.51","7","fallScene","false","","","","73","",""
"","","","","","html-keyboard-response","209","968710","0.0-22.0-1.0","676ac49d62a07c31a31e85ec","6796e1c0ff24ca17c453c51c","67c710c481ea872b732c99de","passed","","1884","","","","","","","","","","","","","","f","yesOrNo","","","","7","","","lp","3000","","73","501","227.2843295913261"
"","","","","","html-keyboard-response","210","970494","0.0-22.0-0.1","676ac49d62a07c31a31e85ec","6796e1c0ff24ca17c453c51c","67c710c481ea872b732c99de","passed","","","","","","","","","","","","","","","","","ballFalling","322.3","308.07114317029976","253.89","2","fallScene","false","","","","74","",""
"","","","","","html-keyboard-response","211","973510","0.0-22.0-1.1","676ac49d62a07c31a31e85ec","6796e1c0ff24ca17c453c51c","67c710c481ea872b732c99de","passed","","1171","","","","","","","","","","","","","","j","yesOrNo","","","","2","","","gt","3000","","74","308.07114317029976","253.89"
"","","","","","html-keyboard-response","212","975060","0.0-22.0-0.2","676ac49d62a07c31a31e85ec","6796e1c0ff24ca17c453c51c","67c710c481ea872b732c99de","passed","","","","","","","","","","","","","","","","","ballFalling","322.3","379.3711431702997","245.25","1","fallScene","true","","","","75","",""
"","","","","","html-keyboard-response","213","978076","0.0-22.0-1.2","676ac49d62a07c31a31e85ec","6796e1c0ff24ca17c453c51c","67c710c481ea872b732c99de","passed","","2461","","","","","","","","","","","","","","j","yesOrNo","","","","1","","","mid","3000","","75","390.27114317029975","300"
"","","","","","html-keyboard-response","214","979860","0.0-22.0-0.3","676ac49d62a07c31a31e85ec","6796e1c0ff24ca17c453c51c","67c710c481ea872b732c99de","passed","","","","","","","","","","","","","","","","","ballFalling","322.3","308.07114317029976","253.89","2","fallScene","true","","","","76","",""
"","","","","","html-keyboard-response","215","982863","0.0-22.0-1.3","676ac49d62a07c31a31e85ec","6796e1c0ff24ca17c453c51c","67c710c481ea872b732c99de","passed","","1422","","","","","","","","","","","","","","j","yesOrNo","","","","2","","","gt","3000","","76","308.07114317029976","253.89"
"","","","","","html-keyboard-response","216","984444","0.0-22.0-0.4","676ac49d62a07c31a31e85ec","6796e1c0ff24ca17c453c51c","67c710c481ea872b732c99de","passed","","","","","","","","","","","","","","","","","ballFalling","500","553.4711431702997","282.51","7","fallScene","true","","","","77","",""
"","","","","","html-keyboard-response","217","987460","0.0-22.0-1.4","676ac49d62a07c31a31e85ec","6796e1c0ff24ca17c453c51c","67c710c481ea872b732c99de","passed","","1087","","","","","","","","","","","","","","j","yesOrNo","","","","7","","","mid","3000","","77","501","300"
"","","","","","html-keyboard-response","218","989010","0.0-22.0-0.5","676ac49d62a07c31a31e85ec","6796e1c0ff24ca17c453c51c","67c710c481ea872b732c99de","passed","","","","","","","","","","","","","","","","","ballFalling","604.4000000000001","650.0211431702996","404.58000000000004","11","fallScene","false","","","","78","",""
"","","","","","html-keyboard-response","219","992026","0.0-22.0-1.5","676ac49d62a07c31a31e85ec","6796e1c0ff24ca17c453c51c","67c710c481ea872b732c99de","passed","","2248","","","","","","","","","","","","","","f","yesOrNo","","","","11","","","mid","3000","","78","605.4000000000001","300"
"","","","","","html-keyboard-response","220","993677","0.0-22.0-0.6","676ac49d62a07c31a31e85ec","6796e1c0ff24ca17c453c51c","67c710c481ea872b732c99de","passed","","","","","","","","","","","","","","","","","ballFalling","500","479.92114317029973","330.87","6","fallScene","true","","","","79","",""
"","","","","","html-keyboard-response","221","996693","0.0-22.0-1.6","676ac49d62a07c31a31e85ec","6796e1c0ff24ca17c453c51c","67c710c481ea872b732c99de","passed","","1197","","","","","","","","","","","","","","j","yesOrNo","","","","6","","","gt","3000","","79","479.9211431702998","330.87"
"","","","","","html-keyboard-response","222","998244","0.0-22.0-0.7","676ac49d62a07c31a31e85ec","6796e1c0ff24ca17c453c51c","67c710c481ea872b732c99de","passed","","","","","","","","","","","","","","","","","ballFalling","322.3","296.07114317029976","371.46","3","fallScene","false","","","","80","",""
"","","","","","html-keyboard-response","223","1001259","0.0-22.0-1.7","676ac49d62a07c31a31e85ec","6796e1c0ff24ca17c453c51c","67c710c481ea872b732c99de","passed","","2006","","","","","","","","","","","","","","f","yesOrNo","","","","3","","","mid","3000","","80","321.3","300"
"","","","","","html-keyboard-response","224","1002810","0.0-22.0-0.8","676ac49d62a07c31a31e85ec","6796e1c0ff24ca17c453c51c","67c710c481ea872b732c99de","passed","","","","","","","","","","","","","","","","","ballFalling","500","453.67114317029973","210.33","5","fallScene","true","","","","81","",""
"","","","","","html-keyboard-response","225","1005826","0.0-22.0-1.8","676ac49d62a07c31a31e85ec","6796e1c0ff24ca17c453c51c","67c710c481ea872b732c99de","passed","","1527","","","","","","","","","","","","","","j","yesOrNo","","","","5","","","gt","3000","","81","453.6711431702998","210.33"
"","","","","","html-keyboard-response","226","1007827","0.0-22.0-0.9","676ac49d62a07c31a31e85ec","6796e1c0ff24ca17c453c51c","67c710c481ea872b732c99de","passed","","","","","","","","","","","","","","","","","ballFalling","604.4000000000001","596.8711431702998","394.5","10","fallScene","true","","","","82","",""
"","","","","","html-keyboard-response","227","1010843","0.0-22.0-1.9","676ac49d62a07c31a31e85ec","6796e1c0ff24ca17c453c51c","67c710c481ea872b732c99de","passed","","2342","","","","","","","","","","","","","","j","yesOrNo","","","","10","","","gt","3000","","82","596.8711431702998","394.5"
"","","","","","html-keyboard-response","228","1012393","0.0-22.0-0.10","676ac49d62a07c31a31e85ec","6796e1c0ff24ca17c453c51c","67c710c481ea872b732c99de","passed","","","","","","","","","","","","","","","","","ballFalling","604.4000000000001","650.0211431702996","404.58000000000004","11","fallScene","false","","","","83","",""
"","","","","","html-keyboard-response","229","1015409","0.0-22.0-1.10","676ac49d62a07c31a31e85ec","6796e1c0ff24ca17c453c51c","67c710c481ea872b732c99de","passed","","1569","","","","","","","","","","","","","","j","yesOrNo","","","","11","","","lp","3000","","83","605.4000000000001","372.6340973215488"
"","","","","","html-keyboard-response","230","1017410","0.0-22.0-0.11","676ac49d62a07c31a31e85ec","6796e1c0ff24ca17c453c51c","67c710c481ea872b732c99de","passed","","","","","","","","","","","","","","","","","ballFalling","500","510.8711431702997","369.03","8","fallScene","false","","","","84","",""
"","","","","","html-keyboard-response","231","1020426","0.0-22.0-1.11","676ac49d62a07c31a31e85ec","6796e1c0ff24ca17c453c51c","67c710c481ea872b732c99de","passed","","903","","","","","","","","","","","","","","f","yesOrNo","","","","8","","","lp","3000","","84","501","151"
"","","","","","html-keyboard-response","232","1021977","0.0-22.0-0.12","676ac49d62a07c31a31e85ec","6796e1c0ff24ca17c453c51c","67c710c481ea872b732c99de","passed","","","","","","","","","","","","","","","","","ballFalling","322.3","379.3711431702997","245.25","1","fallScene","false","","","","85","",""
"","","","","","html-keyboard-response","233","1024993","0.0-22.0-1.12","676ac49d62a07c31a31e85ec","6796e1c0ff24ca17c453c51c","67c710c481ea872b732c99de","passed","","1864","","","","","","","","","","","","","","f","yesOrNo","","","","1","","","mid","3000","","85","390.27114317029975","300"
"","","","","","html-keyboard-response","234","1026643","0.0-22.0-0.13","676ac49d62a07c31a31e85ec","6796e1c0ff24ca17c453c51c","67c710c481ea872b732c99de","passed","","","","","","","","","","","","","","","","","ballFalling","500","479.92114317029973","330.87","6","fallScene","false","","","","86","",""
"","","","","","html-keyboard-response","235","1029659","0.0-22.0-1.13","676ac49d62a07c31a31e85ec","6796e1c0ff24ca17c453c51c","67c710c481ea872b732c99de","passed","","2326","","","","","","","","","","","","","","j","yesOrNo","","","","6","","","lp","3000","","86","499","189.92909825697632"
"","","","","","html-keyboard-response","236","1031210","0.0-22.0-0.14","676ac49d62a07c31a31e85ec","6796e1c0ff24ca17c453c51c","67c710c481ea872b732c99de","passed","","","","","","","","","","","","","","","","","ballFalling","500","453.67114317029973","210.33","5","fallScene","false","","","","87","",""
"","","","","","html-keyboard-response","237","1034226","0.0-22.0-1.14","676ac49d62a07c31a31e85ec","6796e1c0ff24ca17c453c51c","67c710c481ea872b732c99de","passed","","1175","","","","","","","","","","","","","","j","yesOrNo","","","","5","","","mid","3000","","87","499","300"
"","","","","","html-keyboard-response","238","1036227","0.0-22.0-0.15","676ac49d62a07c31a31e85ec","6796e1c0ff24ca17c453c51c","67c710c481ea872b732c99de","passed","","","","","","","","","","","","","","","","","ballFalling","500","510.8711431702997","369.03","8","fallScene","true","","","","88","",""
"","","","","","html-keyboard-response","239","1039242","0.0-22.0-1.15","676ac49d62a07c31a31e85ec","6796e1c0ff24ca17c453c51c","67c710c481ea872b732c99de","passed","","1007","","","","","","","","","","","","","","j","yesOrNo","","","","8","","","mid","3000","","88","501","300"
"","","","","","html-keyboard-response","240","1041243","0.0-22.0-0.16","676ac49d62a07c31a31e85ec","6796e1c0ff24ca17c453c51c","67c710c481ea872b732c99de","passed","","","","","","","","","","","","","","","","","ballFalling","604.4000000000001","596.8711431702998","394.5","10","fallScene","true","","","","89","",""
"","","","","","html-keyboard-response","241","1044259","0.0-22.0-1.16","676ac49d62a07c31a31e85ec","6796e1c0ff24ca17c453c51c","67c710c481ea872b732c99de","passed","","1199","","","","","","","","","","","","","","f","yesOrNo","","","","10","","","mid","3000","","89","536.4288568297004","300"
"","","","","","html-keyboard-response","242","1045810","0.0-22.0-0.17","676ac49d62a07c31a31e85ec","6796e1c0ff24ca17c453c51c","67c710c481ea872b732c99de","passed","","","","","","","","","","","","","","","","","ballFalling","322.3","356.42114317029973","357.87","4","fallScene","true","","","","90","",""
"","","","","","html-keyboard-response","243","1048826","0.0-22.0-1.17","676ac49d62a07c31a31e85ec","6796e1c0ff24ca17c453c51c","67c710c481ea872b732c99de","passed","","818","","","","","","","","","","","","","","j","yesOrNo","","","","4","","","gt","3000","","90","356.42114317029973","357.87"
"","","","","","html-keyboard-response","244","1050376","0.0-22.0-0.18","676ac49d62a07c31a31e85ec","6796e1c0ff24ca17c453c51c","67c710c481ea872b732c99de","passed","","","","","","","","","","","","","","","","","ballFalling","500","453.67114317029973","210.33","5","fallScene","false","","","","91","",""
"","","","","","html-keyboard-response","245","1053392","0.0-22.0-1.18","676ac49d62a07c31a31e85ec","6796e1c0ff24ca17c453c51c","67c710c481ea872b732c99de","passed","","745","","","","","","","","","","","","","","f","yesOrNo","","","","5","","","lp","3000","","91","499","151"
"","","","","","html-keyboard-response","246","1054876","0.0-22.0-0.19","676ac49d62a07c31a31e85ec","6796e1c0ff24ca17c453c51c","67c710c481ea872b732c99de","passed","","","","","","","","","","","","","","","","","ballFalling","604.4000000000001","667.6211431702998","201.78","9","fallScene","true","","","","92","",""
"","","","","","html-keyboard-response","247","1057892","0.0-22.0-1.19","676ac49d62a07c31a31e85ec","6796e1c0ff24ca17c453c51c","67c710c481ea872b732c99de","passed","","1029","","","","","","","","","","","","","","f","yesOrNo","","","","9","","","lp","3000","","92","605.4000000000001","151"
"","","","","","html-keyboard-response","248","1059443","0.0-22.0-0.20","676ac49d62a07c31a31e85ec","6796e1c0ff24ca17c453c51c","67c710c481ea872b732c99de","passed","","","","","","","","","","","","","","","","","ballFalling","322.3","379.3711431702997","245.25","1","fallScene","false","","","","93","",""
"","","","","","html-keyboard-response","249","1062459","0.0-22.0-1.20","676ac49d62a07c31a31e85ec","6796e1c0ff24ca17c453c51c","67c710c481ea872b732c99de","passed","","2174","","","","","","","","","","","","","","f","yesOrNo","","","","1","","","gt","3000","","93","379.3711431702997","245.25"
"","","","","","html-keyboard-response","250","1064009","0.0-22.0-0.21","676ac49d62a07c31a31e85ec","6796e1c0ff24ca17c453c51c","67c710c481ea872b732c99de","passed","","","","","","","","","","","","","","","","","ballFalling","604.4000000000001","650.0211431702996","404.58000000000004","11","fallScene","true","","","","94","",""
"","","","","","html-keyboard-response","251","1067025","0.0-22.0-1.21","676ac49d62a07c31a31e85ec","6796e1c0ff24ca17c453c51c","67c710c481ea872b732c99de","passed","","904","","","","","","","","","","","","","","j","yesOrNo","","","","11","","","gt","3000","","94","650.0211431702996","404.58"
"","","","","","html-keyboard-response","252","1068576","0.0-22.0-0.22","676ac49d62a07c31a31e85ec","6796e1c0ff24ca17c453c51c","67c710c481ea872b732c99de","passed","","","","","","","","","","","","","","","","","ballFalling","604.4000000000001","575.4211431702997","266.76","12","fallScene","false","","","","95","",""
"","","","","","html-keyboard-response","253","1071592","0.0-22.0-1.22","676ac49d62a07c31a31e85ec","6796e1c0ff24ca17c453c51c","67c710c481ea872b732c99de","passed","","905","","","","","","","","","","","","","","f","yesOrNo","","","","12","","","lp","3000","","95","603.4000000000001","151"
"","","","","","html-keyboard-response","254","1073593","0.0-22.0-0.23","676ac49d62a07c31a31e85ec","6796e1c0ff24ca17c453c51c","67c710c481ea872b732c99de","passed","","","","","","","","","","","","","","","","","ballFalling","500","510.8711431702997","369.03","8","fallScene","false","","","","96","",""
"","","","","","html-keyboard-response","255","1076609","0.0-22.0-1.23","676ac49d62a07c31a31e85ec","6796e1c0ff24ca17c453c51c","67c710c481ea872b732c99de","passed","","992","","","","","","","","","","","","","","f","yesOrNo","","","","8","","","lp","3000","","96","501","151"
"","","","","","html-keyboard-response","256","1079795","0.0-23.0","676ac49d62a07c31a31e85ec","6796e1c0ff24ca17c453c51c","67c710c481ea872b732c99de","passed","","3186","","","","","","","","","","","","","<p><span style=""font-size:40px;"">BLOCK 5</span></p><p><span style=""font-size:25px;"">You have <b style=""color: #FF644F;""><strong>3 second(s)</strong></b> to respond to the following trials.</span><br></p><p></p> <!-- Blank line -->
                <p id=""blinking-text"" style=""font-weight; animation: blink 2s infinite;"">Press Space to continue</p>
                <style>
                    @keyframes blink {
                        50% {
                            opacity: 0;
                        }
                    }
                </style></p>"," ","","","","","","","","","","","","",""
"","","","","","html-keyboard-response","257","1081593","0.0-24.0-0.0","676ac49d62a07c31a31e85ec","6796e1c0ff24ca17c453c51c","67c710c481ea872b732c99de","passed","","","","","","","","","","","","","","","","","ballFalling","322.3","308.07114317029976","253.89","2","fallScene","false","","","","97","",""
"","","","","","html-keyboard-response","258","1084609","0.0-24.0-1.0","676ac49d62a07c31a31e85ec","6796e1c0ff24ca17c453c51c","67c710c481ea872b732c99de","passed","","865","","","","","","","","","","","","","","f","yesOrNo","","","","2","","","lp","3000","","97","321.3","151"
"","","","","","html-keyboard-response","259","1086159","0.0-24.0-0.1","676ac49d62a07c31a31e85ec","6796e1c0ff24ca17c453c51c","67c710c481ea872b732c99de","passed","","","","","","","","","","","","","","","","","ballFalling","322.3","296.07114317029976","371.46","3","fallScene","false","","","","98","",""
"","","","","","html-keyboard-response","260","1089175","0.0-24.0-1.1","676ac49d62a07c31a31e85ec","6796e1c0ff24ca17c453c51c","67c710c481ea872b732c99de","passed","","1122","","","","","","","","","","","","","","j","yesOrNo","","","","3","","","gt","3000","","98","296.07114317029976","371.46"
"","","","","","html-keyboard-response","261","1090726","0.0-24.0-0.2","676ac49d62a07c31a31e85ec","6796e1c0ff24ca17c453c51c","67c710c481ea872b732c99de","passed","","","","","","","","","","","","","","","","","ballFalling","322.3","296.07114317029976","371.46","3","fallScene","true","","","","99","",""
"","","","","","html-keyboard-response","262","1093742","0.0-24.0-1.2","676ac49d62a07c31a31e85ec","6796e1c0ff24ca17c453c51c","67c710c481ea872b732c99de","passed","","1691","","","","","","","","","","","","","","j","yesOrNo","","","","3","","","lp","3000","","99","321.3","287.3327096511259"
"","","","","","html-keyboard-response","263","1095292","0.0-24.0-0.3","676ac49d62a07c31a31e85ec","6796e1c0ff24ca17c453c51c","67c710c481ea872b732c99de","passed","","","","","","","","","","","","","","","","","ballFalling","322.3","356.42114317029973","357.87","4","fallScene","false","","","","100","",""
"","","","","","html-keyboard-response","264","1098308","0.0-24.0-1.3","676ac49d62a07c31a31e85ec","6796e1c0ff24ca17c453c51c","67c710c481ea872b732c99de","passed","","1285","","","","","","","","","","","","","","f","yesOrNo","","","","4","","","mid","3000","","100","390.27114317029975","300"
"","","","","","html-keyboard-response","265","1099876","0.0-24.0-0.4","676ac49d62a07c31a31e85ec","6796e1c0ff24ca17c453c51c","67c710c481ea872b732c99de","passed","","","","","","","","","","","","","","","","","ballFalling","500","553.4711431702997","282.51","7","fallScene","false","","","","101","",""
"","","","","","html-keyboard-response","266","1102892","0.0-24.0-1.4","676ac49d62a07c31a31e85ec","6796e1c0ff24ca17c453c51c","67c710c481ea872b732c99de","passed","","2062","","","","","","","","","","","","","","f","yesOrNo","","","","7","","","lp","3000","","101","501","227.2843295913261"
"","","","","","html-keyboard-response","267","1104442","0.0-24.0-0.5","676ac49d62a07c31a31e85ec","6796e1c0ff24ca17c453c51c","67c710c481ea872b732c99de","passed","","","","","","","","","","","","","","","","","ballFalling","500","453.67114317029973","210.33","5","fallScene","false","","","","102","",""
"","","","","","html-keyboard-response","268","1107458","0.0-24.0-1.5","676ac49d62a07c31a31e85ec","6796e1c0ff24ca17c453c51c","67c710c481ea872b732c99de","passed","","991","","","","","","","","","","","","","","f","yesOrNo","","","","5","","","lp","3000","","102","499","151"
"","","","","","html-keyboard-response","269","1109009","0.0-24.0-0.6","676ac49d62a07c31a31e85ec","6796e1c0ff24ca17c453c51c","67c710c481ea872b732c99de","passed","","","","","","","","","","","","","","","","","ballFalling","604.4000000000001","575.4211431702997","266.76","12","fallScene","true","","","","103","",""
"","","","","","html-keyboard-response","270","1112025","0.0-24.0-1.6","676ac49d62a07c31a31e85ec","6796e1c0ff24ca17c453c51c","67c710c481ea872b732c99de","passed","","776","","","","","","","","","","","","","","j","yesOrNo","","","","12","","","gt","3000","","103","575.4211431702997","266.76"
"","","","","","html-keyboard-response","271","1113576","0.0-24.0-0.7","676ac49d62a07c31a31e85ec","6796e1c0ff24ca17c453c51c","67c710c481ea872b732c99de","passed","","","","","","","","","","","","","","","","","ballFalling","322.3","296.07114317029976","371.46","3","fallScene","false","","","","104","",""
"","","","","","html-keyboard-response","272","1116578","0.0-24.0-1.7","676ac49d62a07c31a31e85ec","6796e1c0ff24ca17c453c51c","67c710c481ea872b732c99de","passed","","1578","","","","","","","","","","","","","","j","yesOrNo","","","","3","","","mid","3000","","104","321.3","300"
"","","","","","html-keyboard-response","273","1118592","0.0-24.0-0.8","676ac49d62a07c31a31e85ec","6796e1c0ff24ca17c453c51c","67c710c481ea872b732c99de","passed","","","","","","","","","","","","","","","","","ballFalling","500","510.8711431702997","369.03","8","fallScene","false","","","","105","",""
"","","","","","html-keyboard-response","274","1121608","0.0-24.0-1.8","676ac49d62a07c31a31e85ec","6796e1c0ff24ca17c453c51c","67c710c481ea872b732c99de","passed","","1521","","","","","","","","","","","","","","j","yesOrNo","","","","8","","","gt","3000","","105","510.8711431702997","369.03"
"","","","","","html-keyboard-response","275","1123159","0.0-24.0-0.9","676ac49d62a07c31a31e85ec","6796e1c0ff24ca17c453c51c","67c710c481ea872b732c99de","passed","","","","","","","","","","","","","","","","","ballFalling","500","453.67114317029973","210.33","5","fallScene","false","","","","106","",""
"","","","","","html-keyboard-response","276","1126175","0.0-24.0-1.9","676ac49d62a07c31a31e85ec","6796e1c0ff24ca17c453c51c","67c710c481ea872b732c99de","passed","","1194","","","","","","","","","","","","","","f","yesOrNo","","","","5","","","gt","3000","","106","453.6711431702998","210.33"
"","","","","","html-keyboard-response","277","1127725","0.0-24.0-0.10","676ac49d62a07c31a31e85ec","6796e1c0ff24ca17c453c51c","67c710c481ea872b732c99de","passed","","","","","","","","","","","","","","","","","ballFalling","322.3","296.07114317029976","371.46","3","fallScene","false","","","","107","",""
"","","","","","html-keyboard-response","278","1130741","0.0-24.0-1.10","676ac49d62a07c31a31e85ec","6796e1c0ff24ca17c453c51c","67c710c481ea872b732c99de","passed","","948","","","","","","","","","","","","","","j","yesOrNo","","","","3","","","gt","3000","","107","296.07114317029976","371.46"
"","","","","","html-keyboard-response","279","1132392","0.0-24.0-0.11","676ac49d62a07c31a31e85ec","6796e1c0ff24ca17c453c51c","67c710c481ea872b732c99de","passed","","","","","","","","","","","","","","","","","ballFalling","500","479.92114317029973","330.87","6","fallScene","false","","","","108","",""
"","","","","","html-keyboard-response","280","1135408","0.0-24.0-1.11","676ac49d62a07c31a31e85ec","6796e1c0ff24ca17c453c51c","67c710c481ea872b732c99de","passed","","1082","","","","","","","","","","","","","","f","yesOrNo","","","","6","","","lp","3000","","108","499","189.92909825697632"
"","","","","","html-keyboard-response","281","1136959","0.0-24.0-0.12","676ac49d62a07c31a31e85ec","6796e1c0ff24ca17c453c51c","67c710c481ea872b732c99de","passed","","","","","","","","","","","","","","","","","ballFalling","500","453.67114317029973","210.33","5","fallScene","true","","","","109","",""
"","","","","","html-keyboard-response","282","1139975","0.0-24.0-1.12","676ac49d62a07c31a31e85ec","6796e1c0ff24ca17c453c51c","67c710c481ea872b732c99de","passed","","1251","","","","","","","","","","","","","","j","yesOrNo","","","","5","","","mid","3000","","109","499","300"
"","","","","","html-keyboard-response","283","1141525","0.0-24.0-0.13","676ac49d62a07c31a31e85ec","6796e1c0ff24ca17c453c51c","67c710c481ea872b732c99de","passed","","","","","","","","","","","","","","","","","ballFalling","604.4000000000001","575.4211431702997","266.76","12","fallScene","false","","","","110","",""
"","","","","","html-keyboard-response","284","1144528","0.0-24.0-1.13","676ac49d62a07c31a31e85ec","6796e1c0ff24ca17c453c51c","67c710c481ea872b732c99de","passed","","1108","","","","","","","","","","","","","","f","yesOrNo","","","","12","","","lp","3000","","110","603.4000000000001","151"
"","","","","","html-keyboard-response","285","1146092","0.0-24.0-0.14","676ac49d62a07c31a31e85ec","6796e1c0ff24ca17c453c51c","67c710c481ea872b732c99de","passed","","","","","","","","","","","","","","","","","ballFalling","322.3","379.3711431702997","245.25","1","fallScene","false","","","","111","",""
"","","","","","html-keyboard-response","286","1149095","0.0-24.0-1.14","676ac49d62a07c31a31e85ec","6796e1c0ff24ca17c453c51c","67c710c481ea872b732c99de","passed","","1509","","","","","","","","","","","","","","j","yesOrNo","","","","1","","","lp","3000","","111","323.3","217.74551669457017"
"","","","","","html-keyboard-response","287","1150592","0.0-24.0-0.15","676ac49d62a07c31a31e85ec","6796e1c0ff24ca17c453c51c","67c710c481ea872b732c99de","passed","","","","","","","","","","","","","","","","","ballFalling","604.4000000000001","667.6211431702998","201.78","9","fallScene","false","","","","112","",""
"","","","","","html-keyboard-response","288","1153608","0.0-24.0-1.15","676ac49d62a07c31a31e85ec","6796e1c0ff24ca17c453c51c","67c710c481ea872b732c99de","passed","","1251","","","","","","","","","","","","","","f","yesOrNo","","","","9","","","gt","3000","","112","667.6211431702998","201.78"
"","","","","","html-keyboard-response","289","1155159","0.0-24.0-0.16","676ac49d62a07c31a31e85ec","6796e1c0ff24ca17c453c51c","67c710c481ea872b732c99de","passed","","","","","","","","","","","","","","","","","ballFalling","322.3","296.07114317029976","371.46","3","fallScene","true","","","","113","",""
"","","","","","html-keyboard-response","290","1158174","0.0-24.0-1.16","676ac49d62a07c31a31e85ec","6796e1c0ff24ca17c453c51c","67c710c481ea872b732c99de","passed","","971","","","","","","","","","","","","","","j","yesOrNo","","","","3","","","lp","3000","","113","321.3","287.3327096511259"
"","","","","","html-keyboard-response","291","1159958","0.0-24.0-0.17","676ac49d62a07c31a31e85ec","6796e1c0ff24ca17c453c51c","67c710c481ea872b732c99de","passed","","","","","","","","","","","","","","","","","ballFalling","322.3","308.07114317029976","253.89","2","fallScene","true","","","","114","",""
"","","","","","html-keyboard-response","292","1162974","0.0-24.0-1.17","676ac49d62a07c31a31e85ec","6796e1c0ff24ca17c453c51c","67c710c481ea872b732c99de","passed","","868","","","","","","","","","","","","","","f","yesOrNo","","","","2","","","lp","3000","","114","321.3","151"
"","","","","","html-keyboard-response","293","1164625","0.0-24.0-0.18","676ac49d62a07c31a31e85ec","6796e1c0ff24ca17c453c51c","67c710c481ea872b732c99de","passed","","","","","","","","","","","","","","","","","ballFalling","500","479.92114317029973","330.87","6","fallScene","true","","","","115","",""
"","","","","","html-keyboard-response","294","1167641","0.0-24.0-1.18","676ac49d62a07c31a31e85ec","6796e1c0ff24ca17c453c51c","67c710c481ea872b732c99de","passed","","1056","","","","","","","","","","","","","","j","yesOrNo","","","","6","","","gt","3000","","115","479.9211431702998","330.87"
"","","","","","html-keyboard-response","295","1169208","0.0-24.0-0.19","676ac49d62a07c31a31e85ec","6796e1c0ff24ca17c453c51c","67c710c481ea872b732c99de","passed","","","","","","","","","","","","","","","","","ballFalling","500","553.4711431702997","282.51","7","fallScene","true","","","","116","",""
"","","","","","html-keyboard-response","296","1172224","0.0-24.0-1.19","676ac49d62a07c31a31e85ec","6796e1c0ff24ca17c453c51c","67c710c481ea872b732c99de","passed","","1089","","","","","","","","","","","","","","j","yesOrNo","","","","7","","","mid","3000","","116","501","300"
"","","","","","html-keyboard-response","297","1173775","0.0-24.0-0.20","676ac49d62a07c31a31e85ec","6796e1c0ff24ca17c453c51c","67c710c481ea872b732c99de","passed","","","","","","","","","","","","","","","","","ballFalling","604.4000000000001","575.4211431702997","266.76","12","fallScene","false","","","","117","",""
"","","","","","html-keyboard-response","298","1176791","0.0-24.0-1.20","676ac49d62a07c31a31e85ec","6796e1c0ff24ca17c453c51c","67c710c481ea872b732c99de","passed","","1051","","","","","","","","","","","","","","j","yesOrNo","","","","12","","","gt","3000","","117","575.4211431702997","266.76"
"","","","","","html-keyboard-response","299","1178442","0.0-24.0-0.21","676ac49d62a07c31a31e85ec","6796e1c0ff24ca17c453c51c","67c710c481ea872b732c99de","passed","","","","","","","","","","","","","","","","","ballFalling","500","479.92114317029973","330.87","6","fallScene","false","","","","118","",""
"","","","","","html-keyboard-response","300","1181458","0.0-24.0-1.21","676ac49d62a07c31a31e85ec","6796e1c0ff24ca17c453c51c","67c710c481ea872b732c99de","passed","","888","","","","","","","","","","","","","","j","yesOrNo","","","","6","","","mid","3000","","118","499","300"
"","","","","","html-keyboard-response","301","1183458","0.0-24.0-0.22","676ac49d62a07c31a31e85ec","6796e1c0ff24ca17c453c51c","67c710c481ea872b732c99de","passed","","","","","","","","","","","","","","","","","ballFalling","500","510.8711431702997","369.03","8","fallScene","true","","","","119","",""
"","","","","","html-keyboard-response","302","1186474","0.0-24.0-1.22","676ac49d62a07c31a31e85ec","6796e1c0ff24ca17c453c51c","67c710c481ea872b732c99de","passed","","1023","","","","","","","","","","","","","","j","yesOrNo","","","","8","","","gt","3000","","119","510.8711431702997","369.03"
"","","","","","html-keyboard-response","303","1188025","0.0-24.0-0.23","676ac49d62a07c31a31e85ec","6796e1c0ff24ca17c453c51c","67c710c481ea872b732c99de","passed","","","","","","","","","","","","","","","","","ballFalling","322.3","356.42114317029973","357.87","4","fallScene","false","","","","120","",""
"","","","","","html-keyboard-response","304","1191041","0.0-24.0-1.23","676ac49d62a07c31a31e85ec","6796e1c0ff24ca17c453c51c","67c710c481ea872b732c99de","passed","","2351","","","","","","","","","","","","","","f","yesOrNo","","","","4","","","lp","3000","","120","323.3","297.4070551689986"
"","","","","","html-keyboard-response","305","1193884","0.0-25.0","676ac49d62a07c31a31e85ec","6796e1c0ff24ca17c453c51c","67c710c481ea872b732c99de","passed","","2842","","","","","","","","","","","","","<p><span style=""font-size:40px;"">BLOCK 6</span></p><p><span style=""font-size:25px;"">You have <b style=""color: #FF644F;""><strong>0.7 second(s)</strong></b> to respond to the following trials.</span><br></p><p></p> <!-- Blank line -->
                <p id=""blinking-text"" style=""font-weight; animation: blink 2s infinite;"">Press Space to continue</p>
                <style>
                    @keyframes blink {
                        50% {
                            opacity: 0;
                        }
                    }
                </style></p>"," ","","","","","","","","","","","","",""
"","","","","","html-keyboard-response","306","1195441","0.0-26.0-0.0","676ac49d62a07c31a31e85ec","6796e1c0ff24ca17c453c51c","67c710c481ea872b732c99de","passed","","","","","","","","","","","","","","","","","ballFalling","604.4000000000001","650.0211431702996","404.58000000000004","11","fallScene","false","","","","121","",""
