"success","timeout","failed_images","failed_audio","failed_video","trial_type","trial_index","time_elapsed","internal_node_id","subject_id","study_id","session_id","practiceTestResult","view_history","rt","width","height","webaudio","browser","browser_version","mobile","os","fullscreen","vsync_rate","webcam","microphone","url","stimulus","response","task","ball_X","obstacle_groundTruth_x","obstacle_groundTruth_y","stimulus_idx","trial_name","flipped","choice","timeLimit","question_order","comprehensionCheck","currentTrial","obstacle_choice_x","obstacle_choice_y"
"true","false","[]","[]","[]","preload","0","196","0.0-0.0","672976d49260ec8c490d70f6","6790928bebf0b969fc839b02","67929d22457fc8cbfa645ce1","passed","","","","","","","","","","","","","","","","","","","","","","","","","","","","","",""
"","","","","","instructions","1","7547","0.0-1.0","672976d49260ec8c490d70f6","6790928bebf0b969fc839b02","67929d22457fc8cbfa645ce1","passed","[{""page_index"":0,""viewing_time"":7350}]","7350","","","","","","","","","","","","","","","","","","","","","","","","","","","",""
"","","","","","browser-check","2","8541","0.0-2.0","672976d49260ec8c490d70f6","6790928bebf0b969fc839b02","67929d22457fc8cbfa645ce1","passed","","","2359","1231","true","chrome","132.0.0","false","Windows 10","true","60.57","false","true","","","","","","","","","","","","","","","","",""
"","","","","","external-html","3","54667","0.0-3.0","672976d49260ec8c490d70f6","6790928bebf0b969fc839b02","67929d22457fc8cbfa645ce1","passed","","45870","","","","","","","","","","","","consent.html","","","","","","","","","","","","","","","",""
"true","","","","","fullscreen","4","67707","0.0-4.0","672976d49260ec8c490d70f6","6790928bebf0b969fc839b02","67929d22457fc8cbfa645ce1","passed","","12735","","","","","","","","","","","","","","","","","","","","","","","","","","","",""
"","","","","","browser-check","5","68706","0.0-5.0","672976d49260ec8c490d70f6","6790928bebf0b969fc839b02","67929d22457fc8cbfa645ce1","passed","","","2560","1388","true","chrome","132.0.0","false","Windows 10","true","60.1","false","true","","","","","","","","","","","","","","","","",""
"","","","","","html-keyboard-response","6","74624","0.0-6.0","672976d49260ec8c490d70f6","6790928bebf0b969fc839b02","67929d22457fc8cbfa645ce1","passed","","5918","","","","","","","","","","","","","<p><b>This experiment requires keyboard input.</b></p> 
        <p><b>To ensure your response will be recorded successfully, please press 'Space' to continue.</b></p>
        <p>If you can't proceed, you won't be able to complete this study.</p>
        <p></p> <!-- Blank line -->
        <p id=""blinking-text"" style=""font-weight; animation: blink 2s infinite;"">Press Space to continue</p>
        <style>
            @keyframes blink {
                50% {
                    opacity: 0;
                }
            }
        </style>"," ","","","","","","","","","","","","","",""
"","","","","","html-keyboard-response","7","79501","0.0-7.0","672976d49260ec8c490d70f6","6790928bebf0b969fc839b02","67929d22457fc8cbfa645ce1","passed","","4876","","","","","","","","","","","","","<p><b>This experiment requires keyboard input.</b></p> 
        <p><b>To ensure your response will be recorded successfully, please press the 'f' key to continue.</b></p>
        <p>If you can't proceed, you won't be able to complete this study.</p>
        <p></p> <!-- Blank line -->
        <p id=""blinking-text"" style=""font-weight; animation: blink 2s infinite;"">Press f to continue</p>
        <style>
            @keyframes blink {
                50% {
                    opacity: 0;
                }
            }
        </style>","f","","","","","","","","","","","","","",""
"","","","","","html-keyboard-response","8","81588","0.0-8.0","672976d49260ec8c490d70f6","6790928bebf0b969fc839b02","67929d22457fc8cbfa645ce1","passed","","2085","","","","","","","","","","","","","<p><b>This experiment requires keyboard input.</b></p> 
        <p><b>To ensure your response will be recorded successfully, please press the 'j' key to continue.</b></p>
        <p>If you can't proceed, you won't be able to complete this study.</p>
        <p></p> <!-- Blank line -->
        <p id=""blinking-text"" style=""font-weight; animation: blink 2s infinite;"">Press j to continue</p>
        <style>
            @keyframes blink {
                50% {
                    opacity: 0;
                }
            }
        </style>","j","","","","","","","","","","","","","",""
"","","","","","browser-check","9","82601","0.0-9.0","672976d49260ec8c490d70f6","6790928bebf0b969fc839b02","67929d22457fc8cbfa645ce1","passed","","","2560","1388","true","chrome","132.0.0","false","Windows 10","true","60.02","false","true","","","","","","","","","","","","","","","","",""
"","","","","","survey-text","10","119443","0.0-10.0","672976d49260ec8c490d70f6","6790928bebf0b969fc839b02","67929d22457fc8cbfa645ce1","passed","","36841","","","","","","","","","","","","","","{""prolificID"":""672976d49260ec8c490d70f6""}","","","","","","","","","","","","","",""
"","","","","","instructions","11","208147","0.0-11.0-0.0-0.0","672976d49260ec8c490d70f6","6790928bebf0b969fc839b02","67929d22457fc8cbfa645ce1","passed","[{""page_index"":0,""viewing_time"":40183},{""page_index"":1,""viewing_time"":21024},{""page_index"":2,""viewing_time"":16024},{""page_index"":3,""viewing_time"":11472}]","88703","","","","","","","","","","","","","","","","","","","","","","","","","","","",""
"","","","","","html-keyboard-response","12","229501","0.0-11.0-0.0-1.0","672976d49260ec8c490d70f6","6790928bebf0b969fc839b02","67929d22457fc8cbfa645ce1","passed","","20847","","","","","","","","","","","","","<br>Remember! After a ball falls, the screen will disappear, and you'll decide if the proposed position is where the hidden triangle was. <br>You will now practice this by watching a few videos and making decisions.<p>To respond:<br style=""margin-bottom: 5px; text-indent: -20px; padding-left: 20px;"">- Press <b style=""color: #12AD2B;"">J for Yes</b>, if you think the triangle is in the correct position.<br style=""margin-top: 0; text-indent: -20px; padding-left: 20px;"">- Press <b style=""color: orange;"">F for No</b>, if you think the triangle is not in the correct position.</p><p>In this practice round, there is no time limit. Focus on getting comfortable with the task first.<br>Press either J or F to begin your practice trials.</p><img src = ""YesOrNo_instruction.png"" style=""width: 65%;""></img>","j","","","","","","","","","","","","","",""
"","","","","","html-keyboard-response","13","231608","0.0-11.0-0.0-2.0-0.0","672976d49260ec8c490d70f6","6790928bebf0b969fc839b02","67929d22457fc8cbfa645ce1","passed","","","","","","","","","","","","","","","","","ballFalling_prac","660","666","350","3","fallScene","false","","","","","","",""
"","","","","","html-keyboard-response","14","233826","0.0-11.0-0.0-2.0-1.0","672976d49260ec8c490d70f6","6790928bebf0b969fc839b02","67929d22457fc8cbfa645ce1","passed","","2215","","","","","","","","","","","","","","f","yesOrNo_prac_noTimed","","","","3","","","wrong direction","NA","","","","",""
"","","","","","html-keyboard-response","15","235379","0.0-11.0-0.0-2.0-0.1","672976d49260ec8c490d70f6","6790928bebf0b969fc839b02","67929d22457fc8cbfa645ce1","passed","","","","","","","","","","","","","","","","","ballFalling_prac","416","464","296","1","fallScene","false","","","","","","",""
"","","","","","html-keyboard-response","16","236994","0.0-11.0-0.0-2.0-1.1","672976d49260ec8c490d70f6","6790928bebf0b969fc839b02","67929d22457fc8cbfa645ce1","passed","","1612","","","","","","","","","","","","","","j","yesOrNo_prac_noTimed","","","","1","","","gt","NA","","","","",""
"","","","","","html-keyboard-response","17","238569","0.0-11.0-0.0-2.0-0.2","672976d49260ec8c490d70f6","6790928bebf0b969fc839b02","67929d22457fc8cbfa645ce1","passed","","","","","","","","","","","","","","","","","ballFalling_prac","441","414","302","5","fallScene","true","","","","","","",""
"","","","","","html-keyboard-response","18","239677","0.0-11.0-0.0-2.0-1.2","672976d49260ec8c490d70f6","6790928bebf0b969fc839b02","67929d22457fc8cbfa645ce1","passed","","1107","","","","","","","","","","","","","","j","yesOrNo_prac_noTimed","","","","5","","","close gt","NA","","","","",""
"","","","","","instructions","19","280715","0.0-11.0-0.0-3.0","672976d49260ec8c490d70f6","6790928bebf0b969fc839b02","67929d22457fc8cbfa645ce1","passed","[{""page_index"":0,""viewing_time"":21284},{""page_index"":1,""viewing_time"":19752}]","41036","","","","","","","","","","","","","","","","","","","","","","","","","","","",""
"","","","","","html-button-response","20","291819","0.0-11.0-0.0-4.0","672976d49260ec8c490d70f6","6790928bebf0b969fc839b02","67929d22457fc8cbfa645ce1","passed","","10587","","","","","","","","","","","","","<p>To make sure you understood the task, we just have a <b>brief quiz</b> here.</p><p>If you need to review the instructions, click 'Previous'.</p><p>It's important to understand the task to do the study, so you have to pass the quiz to move to the study.</p>","0","","","","","","","","","","","","","",""
"","","","","","instructions","21","311771","0.0-11.0-0.1-0.1","672976d49260ec8c490d70f6","6790928bebf0b969fc839b02","67929d22457fc8cbfa645ce1","passed","[{""page_index"":0,""viewing_time"":13135},{""page_index"":1,""viewing_time"":2288},{""page_index"":2,""viewing_time"":2353},{""page_index"":3,""viewing_time"":2176}]","19951","","","","","","","","","","","","","","","","","","","","","","","","","","","",""
"","","","","","html-keyboard-response","22","315066","0.0-11.0-0.1-1.1","672976d49260ec8c490d70f6","6790928bebf0b969fc839b02","67929d22457fc8cbfa645ce1","passed","","2794","","","","","","","","","","","","","<br>Remember! After a ball falls, the screen will disappear, and you'll decide if the proposed position is where the hidden triangle was. <br>You will now practice this by watching a few videos and making decisions.<p>To respond:<br style=""margin-bottom: 5px; text-indent: -20px; padding-left: 20px;"">- Press <b style=""color: #12AD2B;"">J for Yes</b>, if you think the triangle is in the correct position.<br style=""margin-top: 0; text-indent: -20px; padding-left: 20px;"">- Press <b style=""color: orange;"">F for No</b>, if you think the triangle is not in the correct position.</p><p>In this practice round, there is no time limit. Focus on getting comfortable with the task first.<br>Press either J or F to begin your practice trials.</p><img src = ""YesOrNo_instruction.png"" style=""width: 65%;""></img>","j","","","","","","","","","","","","","",""
"","","","","","html-keyboard-response","23","317163","0.0-11.0-0.1-2.1-0.3","672976d49260ec8c490d70f6","6790928bebf0b969fc839b02","67929d22457fc8cbfa645ce1","passed","","","","","","","","","","","","","","","","","ballFalling_prac","660","666","350","3","fallScene","false","","","","","","",""
"","","","","","html-keyboard-response","24","320219","0.0-11.0-0.1-2.1-1.3","672976d49260ec8c490d70f6","6790928bebf0b969fc839b02","67929d22457fc8cbfa645ce1","passed","","3052","","","","","","","","","","","","","","f","yesOrNo_prac_noTimed","","","","3","","","wrong direction","NA","","","","",""
"","","","","","html-keyboard-response","25","321791","0.0-11.0-0.1-2.1-0.4","672976d49260ec8c490d70f6","6790928bebf0b969fc839b02","67929d22457fc8cbfa645ce1","passed","","","","","","","","","","","","","","","","","ballFalling_prac","416","464","296","1","fallScene","false","","","","","","",""
"","","","","","html-keyboard-response","26","323387","0.0-11.0-0.1-2.1-1.4","672976d49260ec8c490d70f6","6790928bebf0b969fc839b02","67929d22457fc8cbfa645ce1","passed","","1594","","","","","","","","","","","","","","j","yesOrNo_prac_noTimed","","","","1","","","gt","NA","","","","",""
"","","","","","html-keyboard-response","27","324970","0.0-11.0-0.1-2.1-0.5","672976d49260ec8c490d70f6","6790928bebf0b969fc839b02","67929d22457fc8cbfa645ce1","passed","","","","","","","","","","","","","","","","","ballFalling_prac","441","414","302","5","fallScene","true","","","","","","",""
"","","","","","html-keyboard-response","28","326404","0.0-11.0-0.1-2.1-1.5","672976d49260ec8c490d70f6","6790928bebf0b969fc839b02","67929d22457fc8cbfa645ce1","passed","","1433","","","","","","","","","","","","","","j","yesOrNo_prac_noTimed","","","","5","","","close gt","NA","","","","",""
"","","","","","instructions","29","334419","0.0-11.0-0.1-3.1","672976d49260ec8c490d70f6","6790928bebf0b969fc839b02","67929d22457fc8cbfa645ce1","passed","[{""page_index"":0,""viewing_time"":2366},{""page_index"":1,""viewing_time"":5648}]","8014","","","","","","","","","","","","","","","","","","","","","","","","","","","",""
"","","","","","html-button-response","30","336963","0.0-11.0-0.1-4.1","672976d49260ec8c490d70f6","6790928bebf0b969fc839b02","67929d22457fc8cbfa645ce1","passed","","2030","","","","","","","","","","","","","<p>To make sure you understood the task, we just have a <b>brief quiz</b> here.</p><p>If you need to review the instructions, click 'Previous'.</p><p>It's important to understand the task to do the study, so you have to pass the quiz to move to the study.</p>","1","","","","","","","","","","","","","",""
"","","","","","survey-multi-choice","31","361075","0.0-11.0-1.0-0.0","672976d49260ec8c490d70f6","6790928bebf0b969fc839b02","67929d22457fc8cbfa645ce1","passed","","24112","","","","","","","","","","","","","","{""generalProcedure"":""Watch a video of a ball falling, some of it behind a gray screen. After each video, decide if the triangle is at the spot where the ball hit the triangle behind the screen. There is time limit for the response.""}","","","","","","","","","","[0]","","","",""
"","","","","","survey-multi-choice","32","381267","0.0-11.0-1.0-1.0","672976d49260ec8c490d70f6","6790928bebf0b969fc839b02","67929d22457fc8cbfa645ce1","passed","","20191","","","","","","","","","","","","","","{""checkBallHitObstacle"":""Yes.""}","","","","","","","","","","[0]","","","",""
"","","","","","survey-multi-choice","33","386699","0.0-11.0-1.0-2.0","672976d49260ec8c490d70f6","6790928bebf0b969fc839b02","67929d22457fc8cbfa645ce1","passed","","5431","","","","","","","","","","","","","","{""checkTriangleVisibility"":""No, the triangle is hidden behind the gray screen.""}","","","","","","","","","","[0]","","","",""
"","","","","","survey-multi-choice","34","392467","0.0-11.0-1.0-3.0","672976d49260ec8c490d70f6","6790928bebf0b969fc839b02","67929d22457fc8cbfa645ce1","passed","","5768","","","","","","","","","","","","","","{""checkTimedResponse"":""Your response will not be recorded, and the trial will move to the next one.""}","","","","","","","","","","[0]","","","",""
"","","","","","survey-multi-choice","35","423491","0.0-11.0-1.0-4.0","672976d49260ec8c490d70f6","6790928bebf0b969fc839b02","67929d22457fc8cbfa645ce1","passed","","31024","","","","","","","","","","","","","","{""checkTimeBlockNotice"":""Before every individual trial.""}","","","","","","","","","","[0]","","","",""
"","","","","","survey-multi-choice","36","433723","0.0-11.0-1.0-5.0","672976d49260ec8c490d70f6","6790928bebf0b969fc839b02","67929d22457fc8cbfa645ce1","passed","","10231","","","","","","","","","","","","","","{""checkTimeBlockSameness"":""I am not sure.""}","","","","","","","","","","[0]","","","",""
"","","","","","survey-multi-choice","37","448891","0.0-11.0-1.0-6.0","672976d49260ec8c490d70f6","6790928bebf0b969fc839b02","67929d22457fc8cbfa645ce1","passed","","15168","","","","","","","","","","","","","","{""checkTrianglePrecision"":""No. The proposed purple triangle is not in the correct position because it doesn't match the location of the white triangle exactly.""}","","","","","","","","","","[0]","","","",""
"","","","","","html-button-response","38","452387","0.0-11.0-2.0-0.0","672976d49260ec8c490d70f6","6790928bebf0b969fc839b02","67929d22457fc8cbfa645ce1","passed","","3495","","","","","","","","","","","","","<p>Oops! You did not pass the quiz.</p><p>You will now repeat the instructions and practice.</p>","0","","","","","","","","","","","failed","","",""
"","","","","","instructions","39","509371","0.0-11.1-0.2-0.2","672976d49260ec8c490d70f6","6790928bebf0b969fc839b02","67929d22457fc8cbfa645ce1","passed","[{""page_index"":0,""viewing_time"":21759},{""page_index"":1,""viewing_time"":11312},{""page_index"":0,""viewing_time"":7240},{""page_index"":1,""viewing_time"":11576},{""page_index"":2,""viewing_time"":2065},{""page_index"":3,""viewing_time"":3032}]","56984","","","","","","","","","","","","","","","","","","","","","","","","","","","",""
"","","","","","html-keyboard-response","40","519595","0.0-11.1-0.2-1.2","672976d49260ec8c490d70f6","6790928bebf0b969fc839b02","67929d22457fc8cbfa645ce1","passed","","9722","","","","","","","","","","","","","<br>Remember! After a ball falls, the screen will disappear, and you'll decide if the proposed position is where the hidden triangle was. <br>You will now practice this by watching a few videos and making decisions.<p>To respond:<br style=""margin-bottom: 5px; text-indent: -20px; padding-left: 20px;"">- Press <b style=""color: #12AD2B;"">J for Yes</b>, if you think the triangle is in the correct position.<br style=""margin-top: 0; text-indent: -20px; padding-left: 20px;"">- Press <b style=""color: orange;"">F for No</b>, if you think the triangle is not in the correct position.</p><p>In this practice round, there is no time limit. Focus on getting comfortable with the task first.<br>Press either J or F to begin your practice trials.</p><img src = ""YesOrNo_instruction.png"" style=""width: 65%;""></img>","j","","","","","","","","","","","","","",""
"","","","","","html-keyboard-response","41","521684","0.0-11.1-0.2-2.2-0.6","672976d49260ec8c490d70f6","6790928bebf0b969fc839b02","67929d22457fc8cbfa645ce1","passed","","","","","","","","","","","","","","","","","ballFalling_prac","660","666","350","3","fallScene","false","","","","","","",""
"","","","","","html-keyboard-response","42","526715","0.0-11.1-0.2-2.2-1.6","672976d49260ec8c490d70f6","6790928bebf0b969fc839b02","67929d22457fc8cbfa645ce1","passed","","5030","","","","","","","","","","","","","","f","yesOrNo_prac_noTimed","","","","3","","","wrong direction","NA","","","","",""
"","","","","","html-keyboard-response","43","528289","0.0-11.1-0.2-2.2-0.7","672976d49260ec8c490d70f6","6790928bebf0b969fc839b02","67929d22457fc8cbfa645ce1","passed","","","","","","","","","","","","","","","","","ballFalling_prac","441","414","302","5","fallScene","true","","","","","","",""
"","","","","","html-keyboard-response","44","529739","0.0-11.1-0.2-2.2-1.7","672976d49260ec8c490d70f6","6790928bebf0b969fc839b02","67929d22457fc8cbfa645ce1","passed","","1449","","","","","","","","","","","","","","j","yesOrNo_prac_noTimed","","","","5","","","close gt","NA","","","","",""
"","","","","","html-keyboard-response","45","531304","0.0-11.1-0.2-2.2-0.8","672976d49260ec8c490d70f6","6790928bebf0b969fc839b02","67929d22457fc8cbfa645ce1","passed","","","","","","","","","","","","","","","","","ballFalling_prac","416","464","296","1","fallScene","false","","","","","","",""
"","","","","","html-keyboard-response","46","534091","0.0-11.1-0.2-2.2-1.8","672976d49260ec8c490d70f6","6790928bebf0b969fc839b02","67929d22457fc8cbfa645ce1","passed","","2786","","","","","","","","","","","","","","j","yesOrNo_prac_noTimed","","","","1","","","gt","NA","","","","",""
"","","","","","instructions","47","614955","0.0-11.1-0.2-3.2","672976d49260ec8c490d70f6","6790928bebf0b969fc839b02","67929d22457fc8cbfa645ce1","passed","[{""page_index"":0,""viewing_time"":44664},{""page_index"":1,""viewing_time"":6920},{""page_index"":0,""viewing_time"":27784},{""page_index"":1,""viewing_time"":1496}]","80864","","","","","","","","","","","","","","","","","","","","","","","","","","","",""
"","","","","","html-button-response","48","618579","0.0-11.1-0.2-4.2","672976d49260ec8c490d70f6","6790928bebf0b969fc839b02","67929d22457fc8cbfa645ce1","passed","","3117","","","","","","","","","","","","","<p>To make sure you understood the task, we just have a <b>brief quiz</b> here.</p><p>If you need to review the instructions, click 'Previous'.</p><p>It's important to understand the task to do the study, so you have to pass the quiz to move to the study.</p>","1","","","","","","","","","","","","","",""
"","","","","","survey-multi-choice","49","621563","0.0-11.1-1.1-0.1","672976d49260ec8c490d70f6","6790928bebf0b969fc839b02","67929d22457fc8cbfa645ce1","passed","","2984","","","","","","","","","","","","","","{""generalProcedure"":""Watch a video of a ball falling, some of it behind a gray screen. After each video, decide if the triangle is at the spot where the ball hit the triangle behind the screen. There is time limit for the response.""}","","","","","","","","","","[0]","","","",""
"","","","","","survey-multi-choice","50","625467","0.0-11.1-1.1-1.1","672976d49260ec8c490d70f6","6790928bebf0b969fc839b02","67929d22457fc8cbfa645ce1","passed","","3903","","","","","","","","","","","","","","{""checkBallHitObstacle"":""Yes.""}","","","","","","","","","","[0]","","","",""
"","","","","","survey-multi-choice","51","628963","0.0-11.1-1.1-2.1","672976d49260ec8c490d70f6","6790928bebf0b969fc839b02","67929d22457fc8cbfa645ce1","passed","","3496","","","","","","","","","","","","","","{""checkTriangleVisibility"":""No, the triangle is hidden behind the gray screen.""}","","","","","","","","","","[0]","","","",""
"","","","","","survey-multi-choice","52","632115","0.0-11.1-1.1-3.1","672976d49260ec8c490d70f6","6790928bebf0b969fc839b02","67929d22457fc8cbfa645ce1","passed","","3151","","","","","","","","","","","","","","{""checkTimedResponse"":""Your response will not be recorded, and the trial will move to the next one.""}","","","","","","","","","","[0]","","","",""
"","","","","","survey-multi-choice","53","658459","0.0-11.1-1.1-4.1","672976d49260ec8c490d70f6","6790928bebf0b969fc839b02","67929d22457fc8cbfa645ce1","passed","","26343","","","","","","","","","","","","","","{""checkTimeBlockNotice"":""At the beginning of each block.""}","","","","","","","","","","[0]","","","",""
"","","","","","survey-multi-choice","54","667611","0.0-11.1-1.1-5.1","672976d49260ec8c490d70f6","6790928bebf0b969fc839b02","67929d22457fc8cbfa645ce1","passed","","9152","","","","","","","","","","","","","","{""checkTimeBlockSameness"":""Yes, the time limit is the same for all trials within a block.""}","","","","","","","","","","[0]","","","",""
"","","","","","survey-multi-choice","55","670707","0.0-11.1-1.1-6.1","672976d49260ec8c490d70f6","6790928bebf0b969fc839b02","67929d22457fc8cbfa645ce1","passed","","3095","","","","","","","","","","","","","","{""checkTrianglePrecision"":""No. The proposed purple triangle is not in the correct position because it doesn't match the location of the white triangle exactly.""}","","","","","","","","","","[0]","","","",""
"","","","","","instructions","56","721059","0.0-12.0","672976d49260ec8c490d70f6","6790928bebf0b969fc839b02","67929d22457fc8cbfa645ce1","passed","[{""page_index"":0,""viewing_time"":8976},{""page_index"":1,""viewing_time"":24912},{""page_index"":2,""viewing_time"":10536},{""page_index"":3,""viewing_time"":5928}]","50352","","","","","","","","","","","","","","","","","","","","","","","","","","","",""
"","","","","","instructions","57","728219","0.0-13.0-0.0","672976d49260ec8c490d70f6","6790928bebf0b969fc839b02","67929d22457fc8cbfa645ce1","passed","[{""page_index"":0,""viewing_time"":7160}]","7160","","","","","","","","","","","","","","","","","","","","","","","","","","","",""
"","","","","","html-keyboard-response","58","734724","0.0-13.0-1.0","672976d49260ec8c490d70f6","6790928bebf0b969fc839b02","67929d22457fc8cbfa645ce1","passed","","6504","","","","","","","","","","","","","<p><span style=""font-size:40px;"">Practice BLOCK 1</span></p><p><span style=""font-size:25px;"">You have <b style=""color: #FF644F;""><strong>3 second(s)</strong></b> to respond to the following trials.</span><br></p><p id=""blinking-text"" style=""font-weight; animation: blink 2s infinite;"">Press Space to continue</p><style>
                    @keyframes blink {
                        50% {
                            opacity: 0;
                        }
                    }
                </style>"," ","","","","","","","","","","","","","",""
"","","","","","html-keyboard-response","59","736279","0.0-13.0-2.0-0.0","672976d49260ec8c490d70f6","6790928bebf0b969fc839b02","67929d22457fc8cbfa645ce1","passed","","","","","","","","","","","","","","","","","ballFalling_prac","416","464","296","1","fallScene","false","","","","","","",""
"","","","","","html-keyboard-response","60","739285","0.0-13.0-2.0-1.0","672976d49260ec8c490d70f6","6790928bebf0b969fc839b02","67929d22457fc8cbfa645ce1","passed","","1648","","","","","","","","","","","","","","j","yesOrNo_prac","","","","1","","","far gt","3000","","","","",""
"","","","","","html-keyboard-response","61","740851","0.0-13.0-2.0-0.1","672976d49260ec8c490d70f6","6790928bebf0b969fc839b02","67929d22457fc8cbfa645ce1","passed","","","","","","","","","","","","","","","","","ballFalling_prac","584","536","296","1","fallScene","true","","","","","","",""
"","","","","","html-keyboard-response","62","743853","0.0-13.0-2.0-1.1","672976d49260ec8c490d70f6","6790928bebf0b969fc839b02","67929d22457fc8cbfa645ce1","passed","","2639","","","","","","","","","","","","","","j","yesOrNo_prac","","","","1","","","close gt","3000","","","","",""
"","","","","","html-keyboard-response","63","745437","0.0-13.0-2.0-0.2","672976d49260ec8c490d70f6","6790928bebf0b969fc839b02","67929d22457fc8cbfa645ce1","passed","","","","","","","","","","","","","","","","","ballFalling_prac","660","610","263","4","fallScene","false","","","","","","",""
"","","","","","html-keyboard-response","64","748439","0.0-13.0-2.0-1.2","672976d49260ec8c490d70f6","6790928bebf0b969fc839b02","67929d22457fc8cbfa645ce1","passed","","1973","","","","","","","","","","","","","","j","yesOrNo_prac","","","","4","","","gt","3000","","","","",""
"","","","","","html-keyboard-response","65","751395","0.0-13.0-3.0","672976d49260ec8c490d70f6","6790928bebf0b969fc839b02","67929d22457fc8cbfa645ce1","passed","","2955","","","","","","","","","","","","","<p><span style=""font-size:40px;"">Practice BLOCK 2</span></p><p><span style=""font-size:25px;"">You have <b style=""color: #FF644F;""><strong>1 second(s)</strong></b> to respond to the following trials.</span><br></p><p id=""blinking-text"" style=""font-weight; animation: blink 2s infinite;"">Press Space to continue</p><style>
                    @keyframes blink {
                        50% {
                            opacity: 0;
                        }
                    }
                </style>"," ","","","","","","","","","","","","","",""
"","","","","","html-keyboard-response","66","753511","0.0-13.0-4.0-0.0","672976d49260ec8c490d70f6","6790928bebf0b969fc839b02","67929d22457fc8cbfa645ce1","passed","","","","","","","","","","","","","","","","","ballFalling_prac","340","334","350","3","fallScene","true","","","","","","",""
"","","","","","html-keyboard-response","67","754513","0.0-13.0-4.0-1.0","672976d49260ec8c490d70f6","6790928bebf0b969fc839b02","67929d22457fc8cbfa645ce1","passed","","null","","","","","","","","","","","","","","null","yesOrNo_prac","","","","3","","","close gt","1000","","","","",""
"","","","","","html-keyboard-response","68","756096","0.0-13.0-4.0-0.1","672976d49260ec8c490d70f6","6790928bebf0b969fc839b02","67929d22457fc8cbfa645ce1","passed","","","","","","","","","","","","","","","","","ballFalling_prac","660","610","263","4","fallScene","false","","","","","","",""
"","","","","","html-keyboard-response","69","757097","0.0-13.0-4.0-1.1","672976d49260ec8c490d70f6","6790928bebf0b969fc839b02","67929d22457fc8cbfa645ce1","passed","","626","","","","","","","","","","","","","","j","yesOrNo_prac","","","","4","","","far gt","1000","","","","",""
"","","","","","html-keyboard-response","70","758665","0.0-13.0-4.0-0.2","672976d49260ec8c490d70f6","6790928bebf0b969fc839b02","67929d22457fc8cbfa645ce1","passed","","","","","","","","","","","","","","","","","ballFalling_prac","441","500","317","6","fallScene","true","","","","","","",""
"","","","","","html-keyboard-response","71","759666","0.0-13.0-4.0-1.2","672976d49260ec8c490d70f6","6790928bebf0b969fc839b02","67929d22457fc8cbfa645ce1","passed","","761","","","","","","","","","","","","","","j","yesOrNo_prac","","","","6","","","gt","1000","","","","",""
"","","","","","instructions","72","774187","0.0-13.0-5.0","672976d49260ec8c490d70f6","6790928bebf0b969fc839b02","67929d22457fc8cbfa645ce1","passed","[{""page_index"":0,""viewing_time"":14520}]","14520","","","","","","","","","","","","","","","","","","","","","","","","","","","",""
"","","","","","html-keyboard-response","73","777027","0.0-13.0-6.0","672976d49260ec8c490d70f6","6790928bebf0b969fc839b02","67929d22457fc8cbfa645ce1","passed","","2839","","","","","","","","","","","","","<p><span style=""font-size:40px;"">Practice Test BLOCK 1</span></p><p><span style=""font-size:25px;"">You have <b style=""color: #FF644F;""><strong>1 second(s)</strong></b> to respond to the following trials.</span><br></p><p id=""blinking-text"" style=""font-weight; animation: blink 2s infinite;"">Press Space to continue</p><style>
                    @keyframes blink {
                        50% {
                            opacity: 0;
                        }
                    }
                </style>"," ","","","","","","","","","","","","","",""
"","","","","","html-keyboard-response","74","778581","0.0-13.0-7.0-0.0","672976d49260ec8c490d70f6","6790928bebf0b969fc839b02","67929d22457fc8cbfa645ce1","passed","","","","","","","","","","","","","","","","","ballFalling_prac","441","500","317","6","fallScene","true","","","","","","",""
"","","","","","html-keyboard-response","75","779583","0.0-13.0-7.0-1.0","672976d49260ec8c490d70f6","6790928bebf0b969fc839b02","67929d22457fc8cbfa645ce1","passed","","892","","","","","","","","","","","","","","j","yesOrNo_prac","","","","6","","","close gt","1000","","","","",""
"","","","","","html-keyboard-response","76","781167","0.0-13.0-7.0-0.1","672976d49260ec8c490d70f6","6790928bebf0b969fc839b02","67929d22457fc8cbfa645ce1","passed","","","","","","","","","","","","","","","","","ballFalling_prac","559","586","302","5","fallScene","false","","","","","","",""
"","","","","","html-keyboard-response","77","782169","0.0-13.0-7.0-1.1","672976d49260ec8c490d70f6","6790928bebf0b969fc839b02","67929d22457fc8cbfa645ce1","passed","","930","","","","","","","","","","","","","","j","yesOrNo_prac","","","","5","","","gt","1000","","","","",""
"","","","","","html-keyboard-response","78","783752","0.0-13.0-7.0-0.2","672976d49260ec8c490d70f6","6790928bebf0b969fc839b02","67929d22457fc8cbfa645ce1","passed","","","","","","","","","","","","","","","","","ballFalling_prac","340","390","263","4","fallScene","true","","","","","","",""
"","","","","","html-keyboard-response","79","784754","0.0-13.0-7.0-1.2","672976d49260ec8c490d70f6","6790928bebf0b969fc839b02","67929d22457fc8cbfa645ce1","passed","","745","","","","","","","","","","","","","","j","yesOrNo_prac","","","","4","","","far gt","1000","","","","",""
"","","","","","html-keyboard-response","80","788595","0.0-13.0-8.0","672976d49260ec8c490d70f6","6790928bebf0b969fc839b02","67929d22457fc8cbfa645ce1","passed","","3841","","","","","","","","","","","","","<p><span style=""font-size:40px;"">Practice Test BLOCK 2</span></p><p><span style=""font-size:25px;"">You have <b style=""color: #FF644F;""><strong>3 second(s)</strong></b> to respond to the following trials.</span><br></p><p id=""blinking-text"" style=""font-weight; animation: blink 2s infinite;"">Press Space to continue</p><style>
                    @keyframes blink {
                        50% {
                            opacity: 0;
                        }
                    }
                </style>"," ","","","","","","","","","","","","","",""
"","","","","","html-keyboard-response","81","790174","0.0-13.0-9.0-0.0","672976d49260ec8c490d70f6","6790928bebf0b969fc839b02","67929d22457fc8cbfa645ce1","passed","","","","","","","","","","","","","","","","","ballFalling_prac","559","586","302","5","fallScene","false","","","","","","",""
"","","","","","html-keyboard-response","82","793177","0.0-13.0-9.0-1.0","672976d49260ec8c490d70f6","6790928bebf0b969fc839b02","67929d22457fc8cbfa645ce1","passed","","947","","","","","","","","","","","","","","f","yesOrNo_prac","","","","5","","","far gt","3000","","","","",""
"","","","","","html-keyboard-response","83","794745","0.0-13.0-9.0-0.1","672976d49260ec8c490d70f6","6790928bebf0b969fc839b02","67929d22457fc8cbfa645ce1","passed","","","","","","","","","","","","","","","","","ballFalling_prac","340","390","263","4","fallScene","true","","","","","","",""
"","","","","","html-keyboard-response","84","797756","0.0-13.0-9.0-1.1","672976d49260ec8c490d70f6","6790928bebf0b969fc839b02","67929d22457fc8cbfa645ce1","passed","","1046","","","","","","","","","","","","","","j","yesOrNo_prac","","","","4","","","close gt","3000","","","","",""
"","","","","","html-keyboard-response","85","799332","0.0-13.0-9.0-0.2","672976d49260ec8c490d70f6","6790928bebf0b969fc839b02","67929d22457fc8cbfa645ce1","passed","","","","","","","","","","","","","","","","","ballFalling_prac","416","365","249","2","fallScene","false","","","","","","",""
"","","","","","html-keyboard-response","86","802334","0.0-13.0-9.0-1.2","672976d49260ec8c490d70f6","6790928bebf0b969fc839b02","67929d22457fc8cbfa645ce1","passed","","1197","","","","","","","","","","","","","","j","yesOrNo_prac","","","","2","","","gt","3000","","","","",""
"","","","","","instructions","87","813099","0.0-14.0","672976d49260ec8c490d70f6","6790928bebf0b969fc839b02","67929d22457fc8cbfa645ce1","passed","[{""page_index"":0,""viewing_time"":10764}]","10764","","","","","","","","","","","","","","","","","","","","","","","","","","","",""
"","","","","","html-keyboard-response","88","815187","0.0-15.0","672976d49260ec8c490d70f6","6790928bebf0b969fc839b02","67929d22457fc8cbfa645ce1","passed","","2088","","","","","","","","","","","","","<p><span style=""font-size:40px;"">BLOCK 1</span></p><p><span style=""font-size:25px;"">You have <b style=""color: #FF644F;""><strong>1 second(s)</strong></b> to respond to the following trials.</span><br></p><p></p> <!-- Blank line -->
                <p id=""blinking-text"" style=""font-weight; animation: blink 2s infinite;"">Press Space to continue</p>
                <style>
                    @keyframes blink {
                        50% {
                            opacity: 0;
                        }
                    }
                </style></p>"," ","","","","","","","","","","","","","",""
"","","","","","html-keyboard-response","89","816760","0.0-16.0-0.0","672976d49260ec8c490d70f6","6790928bebf0b969fc839b02","67929d22457fc8cbfa645ce1","passed","","","","","","","","","","","","","","","","","ballFalling","604.4000000000001","575.4211431702997","266.76","12","fallScene","false","","","","","1","",""
"","","","","","html-keyboard-response","90","817765","0.0-16.0-1.0","672976d49260ec8c490d70f6","6790928bebf0b969fc839b02","67929d22457fc8cbfa645ce1","passed","","784","","","","","","","","","","","","","","j","yesOrNo","","","","12","","","gt","1000","","","1","575.4211431702997","266.76"
"","","","","","html-keyboard-response","91","819782","0.0-16.0-0.1","672976d49260ec8c490d70f6","6790928bebf0b969fc839b02","67929d22457fc8cbfa645ce1","passed","","","","","","","","","","","","","","","","","ballFalling","604.4000000000001","596.8711431702998","394.5","10","fallScene","true","","","","","2","",""
"","","","","","html-keyboard-response","92","820784","0.0-16.0-1.1","672976d49260ec8c490d70f6","6790928bebf0b969fc839b02","67929d22457fc8cbfa645ce1","passed","","908","","","","","","","","","","","","","","j","yesOrNo","","","","10","","","lp","1000","","","2","603.4000000000001","215.50214355555383"
"","","","","","html-keyboard-response","93","822352","0.0-16.0-0.2","672976d49260ec8c490d70f6","6790928bebf0b969fc839b02","67929d22457fc8cbfa645ce1","passed","","","","","","","","","","","","","","","","","ballFalling","604.4000000000001","650.0211431702996","404.58000000000004","11","fallScene","false","","","","","3","",""
"","","","","","html-keyboard-response","94","823353","0.0-16.0-1.2","672976d49260ec8c490d70f6","6790928bebf0b969fc839b02","67929d22457fc8cbfa645ce1","passed","","746","","","","","","","","","","","","","","f","yesOrNo","","","","11","","","mid","1000","","","3","605.4000000000001","300"
"","","","","","html-keyboard-response","95","825153","0.0-16.0-0.3","672976d49260ec8c490d70f6","6790928bebf0b969fc839b02","67929d22457fc8cbfa645ce1","passed","","","","","","","","","","","","","","","","","ballFalling","322.3","308.07114317029976","253.89","2","fallScene","true","","","","","4","",""
"","","","","","html-keyboard-response","96","826155","0.0-16.0-1.3","672976d49260ec8c490d70f6","6790928bebf0b969fc839b02","67929d22457fc8cbfa645ce1","passed","","992","","","","","","","","","","","","","","j","yesOrNo","","","","2","","","gt","1000","","","4","308.07114317029976","253.89"
"","","","","","html-keyboard-response","97","827722","0.0-16.0-0.4","672976d49260ec8c490d70f6","6790928bebf0b969fc839b02","67929d22457fc8cbfa645ce1","passed","","","","","","","","","","","","","","","","","ballFalling","604.4000000000001","575.4211431702997","266.76","12","fallScene","false","","","","","5","",""
"","","","","","html-keyboard-response","98","828725","0.0-16.0-1.4","672976d49260ec8c490d70f6","6790928bebf0b969fc839b02","67929d22457fc8cbfa645ce1","passed","","854","","","","","","","","","","","","","","f","yesOrNo","","","","12","","","mid","1000","","","5","536.4288568297004","300"
"","","","","","html-keyboard-response","99","830741","0.0-16.0-0.5","672976d49260ec8c490d70f6","6790928bebf0b969fc839b02","67929d22457fc8cbfa645ce1","passed","","","","","","","","","","","","","","","","","ballFalling","604.4000000000001","596.8711431702998","394.5","10","fallScene","true","","","","","6","",""
"","","","","","html-keyboard-response","100","831743","0.0-16.0-1.5","672976d49260ec8c490d70f6","6790928bebf0b969fc839b02","67929d22457fc8cbfa645ce1","passed","","null","","","","","","","","","","","","","","null","yesOrNo","","","","10","","","lp","1000","","","6","603.4000000000001","215.50214355555383"
"","","","","","html-keyboard-response","101","833544","0.0-16.0-0.6","672976d49260ec8c490d70f6","6790928bebf0b969fc839b02","67929d22457fc8cbfa645ce1","passed","","","","","","","","","","","","","","","","","ballFalling","322.3","308.07114317029976","253.89","2","fallScene","true","","","","","7","",""
"","","","","","html-keyboard-response","102","834546","0.0-16.0-1.6","672976d49260ec8c490d70f6","6790928bebf0b969fc839b02","67929d22457fc8cbfa645ce1","passed","","938","","","","","","","","","","","","","","f","yesOrNo","","","","2","","","mid","1000","","","7","321.3","300"
"","","","","","html-keyboard-response","103","836112","0.0-16.0-0.7","672976d49260ec8c490d70f6","6790928bebf0b969fc839b02","67929d22457fc8cbfa645ce1","passed","","","","","","","","","","","","","","","","","ballFalling","500","453.67114317029973","210.33","5","fallScene","true","","","","","8","",""
"","","","","","html-keyboard-response","104","837114","0.0-16.0-1.7","672976d49260ec8c490d70f6","6790928bebf0b969fc839b02","67929d22457fc8cbfa645ce1","passed","","913","","","","","","","","","","","","","","j","yesOrNo","","","","5","","","mid","1000","","","8","499","300"
"","","","","","html-keyboard-response","105","838681","0.0-16.0-0.8","672976d49260ec8c490d70f6","6790928bebf0b969fc839b02","67929d22457fc8cbfa645ce1","passed","","","","","","","","","","","","","","","","","ballFalling","322.3","356.42114317029973","357.87","4","fallScene","false","","","","","9","",""
"","","","","","html-keyboard-response","106","839683","0.0-16.0-1.8","672976d49260ec8c490d70f6","6790928bebf0b969fc839b02","67929d22457fc8cbfa645ce1","passed","","824","","","","","","","","","","","","","","j","yesOrNo","","","","4","","","mid","1000","","","9","390.27114317029975","300"
"","","","","","html-keyboard-response","107","841484","0.0-16.0-0.9","672976d49260ec8c490d70f6","6790928bebf0b969fc839b02","67929d22457fc8cbfa645ce1","passed","","","","","","","","","","","","","","","","","ballFalling","322.3","308.07114317029976","253.89","2","fallScene","false","","","","","10","",""
"","","","","","html-keyboard-response","108","842486","0.0-16.0-1.9","672976d49260ec8c490d70f6","6790928bebf0b969fc839b02","67929d22457fc8cbfa645ce1","passed","","933","","","","","","","","","","","","","","f","yesOrNo","","","","2","","","lp","1000","","","10","321.3","151"
"","","","","","html-keyboard-response","109","844053","0.0-16.0-0.10","672976d49260ec8c490d70f6","6790928bebf0b969fc839b02","67929d22457fc8cbfa645ce1","passed","","","","","","","","","","","","","","","","","ballFalling","322.3","379.3711431702997","245.25","1","fallScene","true","","","","","11","",""
"","","","","","html-keyboard-response","110","845054","0.0-16.0-1.10","672976d49260ec8c490d70f6","6790928bebf0b969fc839b02","67929d22457fc8cbfa645ce1","passed","","861","","","","","","","","","","","","","","j","yesOrNo","","","","1","","","lp","1000","","","11","323.3","217.74551669457017"
"","","","","","html-keyboard-response","111","847084","0.0-16.0-0.11","672976d49260ec8c490d70f6","6790928bebf0b969fc839b02","67929d22457fc8cbfa645ce1","passed","","","","","","","","","","","","","","","","","ballFalling","500","510.8711431702997","369.03","8","fallScene","false","","","","","12","",""
"","","","","","html-keyboard-response","112","848090","0.0-16.0-1.11","672976d49260ec8c490d70f6","6790928bebf0b969fc839b02","67929d22457fc8cbfa645ce1","passed","","997","","","","","","","","","","","","","","j","yesOrNo","","","","8","","","gt","1000","","","12","510.8711431702997","369.03"
"","","","","","html-keyboard-response","113","850108","0.0-16.0-0.12","672976d49260ec8c490d70f6","6790928bebf0b969fc839b02","67929d22457fc8cbfa645ce1","passed","","","","","","","","","","","","","","","","","ballFalling","604.4000000000001","596.8711431702998","394.5","10","fallScene","true","","","","","13","",""
"","","","","","html-keyboard-response","114","851109","0.0-16.0-1.12","672976d49260ec8c490d70f6","6790928bebf0b969fc839b02","67929d22457fc8cbfa645ce1","passed","","null","","","","","","","","","","","","","","null","yesOrNo","","","","10","","","gt","1000","","","13","596.8711431702998","394.5"
"","","","","","html-keyboard-response","115","852776","0.0-16.0-0.13","672976d49260ec8c490d70f6","6790928bebf0b969fc839b02","67929d22457fc8cbfa645ce1","passed","","","","","","","","","","","","","","","","","ballFalling","500","479.92114317029973","330.87","6","fallScene","true","","","","","14","",""
"","","","","","html-keyboard-response","116","853778","0.0-16.0-1.13","672976d49260ec8c490d70f6","6790928bebf0b969fc839b02","67929d22457fc8cbfa645ce1","passed","","9","","","","","","","","","","","","","","f","yesOrNo","","","","6","","","lp","1000","","","14","499","189.92909825697632"
"","","","","","html-keyboard-response","117","855279","0.0-16.0-0.14","672976d49260ec8c490d70f6","6790928bebf0b969fc839b02","67929d22457fc8cbfa645ce1","passed","","","","","","","","","","","","","","","","","ballFalling","604.4000000000001","667.6211431702998","201.78","9","fallScene","false","","","","","15","",""
"","","","","","html-keyboard-response","118","856280","0.0-16.0-1.14","672976d49260ec8c490d70f6","6790928bebf0b969fc839b02","67929d22457fc8cbfa645ce1","passed","","819","","","","","","","","","","","","","","f","yesOrNo","","","","9","","","mid","1000","","","15","605.4000000000001","300"
"","","","","","html-keyboard-response","119","857848","0.0-16.0-0.15","672976d49260ec8c490d70f6","6790928bebf0b969fc839b02","67929d22457fc8cbfa645ce1","passed","","","","","","","","","","","","","","","","","ballFalling","322.3","356.42114317029973","357.87","4","fallScene","true","","","","","16","",""
"","","","","","html-keyboard-response","120","858849","0.0-16.0-1.15","672976d49260ec8c490d70f6","6790928bebf0b969fc839b02","67929d22457fc8cbfa645ce1","passed","","722","","","","","","","","","","","","","","j","yesOrNo","","","","4","","","gt","1000","","","16","356.42114317029973","357.87"
"","","","","","html-keyboard-response","121","860416","0.0-16.0-0.16","672976d49260ec8c490d70f6","6790928bebf0b969fc839b02","67929d22457fc8cbfa645ce1","passed","","","","","","","","","","","","","","","","","ballFalling","322.3","296.07114317029976","371.46","3","fallScene","true","","","","","17","",""
"","","","","","html-keyboard-response","122","861434","0.0-16.0-1.16","672976d49260ec8c490d70f6","6790928bebf0b969fc839b02","67929d22457fc8cbfa645ce1","passed","","936","","","","","","","","","","","","","","j","yesOrNo","","","","3","","","lp","1000","","","17","321.3","287.3327096511259"
"","","","","","html-keyboard-response","123","863002","0.0-16.0-0.17","672976d49260ec8c490d70f6","6790928bebf0b969fc839b02","67929d22457fc8cbfa645ce1","passed","","","","","","","","","","","","","","","","","ballFalling","500","553.4711431702997","282.51","7","fallScene","false","","","","","18","",""
"","","","","","html-keyboard-response","124","864003","0.0-16.0-1.17","672976d49260ec8c490d70f6","6790928bebf0b969fc839b02","67929d22457fc8cbfa645ce1","passed","","null","","","","","","","","","","","","","","null","yesOrNo","","","","7","","","gt","1000","","","18","553.4711431702997","282.51"
"","","","","","html-keyboard-response","125","866021","0.0-16.0-0.18","672976d49260ec8c490d70f6","6790928bebf0b969fc839b02","67929d22457fc8cbfa645ce1","passed","","","","","","","","","","","","","","","","","ballFalling","500","510.8711431702997","369.03","8","fallScene","true","","","","","19","",""
"","","","","","html-keyboard-response","126","867022","0.0-16.0-1.18","672976d49260ec8c490d70f6","6790928bebf0b969fc839b02","67929d22457fc8cbfa645ce1","passed","","653","","","","","","","","","","","","","","f","yesOrNo","","","","8","","","lp","1000","","","19","501","151"
"","","","","","html-keyboard-response","127","868606","0.0-16.0-0.19","672976d49260ec8c490d70f6","6790928bebf0b969fc839b02","67929d22457fc8cbfa645ce1","passed","","","","","","","","","","","","","","","","","ballFalling","500","553.4711431702997","282.51","7","fallScene","true","","","","","20","",""
"","","","","","html-keyboard-response","128","869608","0.0-16.0-1.19","672976d49260ec8c490d70f6","6790928bebf0b969fc839b02","67929d22457fc8cbfa645ce1","passed","","836","","","","","","","","","","","","","","j","yesOrNo","","","","7","","","mid","1000","","","20","501","300"
"","","","","","html-keyboard-response","129","871409","0.0-16.0-0.20","672976d49260ec8c490d70f6","6790928bebf0b969fc839b02","67929d22457fc8cbfa645ce1","passed","","","","","","","","","","","","","","","","","ballFalling","322.3","308.07114317029976","253.89","2","fallScene","false","","","","","21","",""
"","","","","","html-keyboard-response","130","872414","0.0-16.0-1.20","672976d49260ec8c490d70f6","6790928bebf0b969fc839b02","67929d22457fc8cbfa645ce1","passed","","null","","","","","","","","","","","","","","null","yesOrNo","","","","2","","","mid","1000","","","21","321.3","300"
"","","","","","html-keyboard-response","131","874211","0.0-16.0-0.21","672976d49260ec8c490d70f6","6790928bebf0b969fc839b02","67929d22457fc8cbfa645ce1","passed","","","","","","","","","","","","","","","","","ballFalling","322.3","308.07114317029976","253.89","2","fallScene","false","","","","","22","",""
"","","","","","html-keyboard-response","132","875213","0.0-16.0-1.21","672976d49260ec8c490d70f6","6790928bebf0b969fc839b02","67929d22457fc8cbfa645ce1","passed","","647","","","","","","","","","","","","","","j","yesOrNo","","","","2","","","gt","1000","","","22","308.07114317029976","253.89"
"","","","","","html-keyboard-response","133","876881","0.0-16.0-0.22","672976d49260ec8c490d70f6","6790928bebf0b969fc839b02","67929d22457fc8cbfa645ce1","passed","","","","","","","","","","","","","","","","","ballFalling","500","479.92114317029973","330.87","6","fallScene","false","","","","","23","",""
"","","","","","html-keyboard-response","134","877887","0.0-16.0-1.22","672976d49260ec8c490d70f6","6790928bebf0b969fc839b02","67929d22457fc8cbfa645ce1","passed","","887","","","","","","","","","","","","","","j","yesOrNo","","","","6","","","gt","1000","","","23","479.9211431702998","330.87"
"","","","","","html-keyboard-response","135","879900","0.0-16.0-0.23","672976d49260ec8c490d70f6","6790928bebf0b969fc839b02","67929d22457fc8cbfa645ce1","passed","","","","","","","","","","","","","","","","","ballFalling","500","510.8711431702997","369.03","8","fallScene","true","","","","","24","",""
"","","","","","html-keyboard-response","136","880901","0.0-16.0-1.23","672976d49260ec8c490d70f6","6790928bebf0b969fc839b02","67929d22457fc8cbfa645ce1","passed","","806","","","","","","","","","","","","","","j","yesOrNo","","","","8","","","gt","1000","","","24","510.8711431702997","369.03"
"","","","","","html-keyboard-response","137","883915","0.0-17.0","672976d49260ec8c490d70f6","6790928bebf0b969fc839b02","67929d22457fc8cbfa645ce1","passed","","3013","","","","","","","","","","","","","<p><span style=""font-size:40px;"">BLOCK 2</span></p><p><span style=""font-size:25px;"">You have <b style=""color: #FF644F;""><strong>3 second(s)</strong></b> to respond to the following trials.</span><br></p><p></p> <!-- Blank line -->
                <p id=""blinking-text"" style=""font-weight; animation: blink 2s infinite;"">Press Space to continue</p>
                <style>
                    @keyframes blink {
                        50% {
                            opacity: 0;
                        }
                    }
                </style></p>"," ","","","","","","","","","","","","","",""
"","","","","","html-keyboard-response","138","885471","0.0-18.0-0.0","672976d49260ec8c490d70f6","6790928bebf0b969fc839b02","67929d22457fc8cbfa645ce1","passed","","","","","","","","","","","","","","","","","ballFalling","322.3","356.42114317029973","357.87","4","fallScene","false","","","","","25","",""
"","","","","","html-keyboard-response","139","888473","0.0-18.0-1.0","672976d49260ec8c490d70f6","6790928bebf0b969fc839b02","67929d22457fc8cbfa645ce1","passed","","1066","","","","","","","","","","","","","","j","yesOrNo","","","","4","","","lp","3000","","","25","323.3","297.4070551689986"
"","","","","","html-keyboard-response","140","890041","0.0-18.0-0.1","672976d49260ec8c490d70f6","6790928bebf0b969fc839b02","67929d22457fc8cbfa645ce1","passed","","","","","","","","","","","","","","","","","ballFalling","322.3","379.3711431702997","245.25","1","fallScene","true","","","","","26","",""
"","","","","","html-keyboard-response","141","893042","0.0-18.0-1.1","672976d49260ec8c490d70f6","6790928bebf0b969fc839b02","67929d22457fc8cbfa645ce1","passed","","1193","","","","","","","","","","","","","","f","yesOrNo","","","","1","","","lp","3000","","","26","323.3","217.74551669457017"
"","","","","","html-keyboard-response","142","894828","0.0-18.0-0.2","672976d49260ec8c490d70f6","6790928bebf0b969fc839b02","67929d22457fc8cbfa645ce1","passed","","","","","","","","","","","","","","","","","ballFalling","322.3","308.07114317029976","253.89","2","fallScene","true","","","","","27","",""
"","","","","","html-keyboard-response","143","897831","0.0-18.0-1.2","672976d49260ec8c490d70f6","6790928bebf0b969fc839b02","67929d22457fc8cbfa645ce1","passed","","1006","","","","","","","","","","","","","","j","yesOrNo","","","","2","","","mid","3000","","","27","321.3","300"
"","","","","","html-keyboard-response","144","899382","0.0-18.0-0.3","672976d49260ec8c490d70f6","6790928bebf0b969fc839b02","67929d22457fc8cbfa645ce1","passed","","","","","","","","","","","","","","","","","ballFalling","322.3","296.07114317029976","371.46","3","fallScene","false","","","","","28","",""
"","","","","","html-keyboard-response","145","902386","0.0-18.0-1.3","672976d49260ec8c490d70f6","6790928bebf0b969fc839b02","67929d22457fc8cbfa645ce1","passed","","1689","","","","","","","","","","","","","","f","yesOrNo","","","","3","","","lp","3000","","","28","321.3","287.3327096511259"
"","","","","","html-keyboard-response","146","903953","0.0-18.0-0.4","672976d49260ec8c490d70f6","6790928bebf0b969fc839b02","67929d22457fc8cbfa645ce1","passed","","","","","","","","","","","","","","","","","ballFalling","500","453.67114317029973","210.33","5","fallScene","false","","","","","29","",""
"","","","","","html-keyboard-response","147","906955","0.0-18.0-1.4","672976d49260ec8c490d70f6","6790928bebf0b969fc839b02","67929d22457fc8cbfa645ce1","passed","","1234","","","","","","","","","","","","","","j","yesOrNo","","","","5","","","mid","3000","","","29","499","300"
"","","","","","html-keyboard-response","148","908507","0.0-18.0-0.5","672976d49260ec8c490d70f6","6790928bebf0b969fc839b02","67929d22457fc8cbfa645ce1","passed","","","","","","","","","","","","","","","","","ballFalling","604.4000000000001","650.0211431702996","404.58000000000004","11","fallScene","false","","","","","30","",""
"","","","","","html-keyboard-response","149","911509","0.0-18.0-1.5","672976d49260ec8c490d70f6","6790928bebf0b969fc839b02","67929d22457fc8cbfa645ce1","passed","","1568","","","","","","","","","","","","","","f","yesOrNo","","","","11","","","lp","3000","","","30","605.4000000000001","372.6340973215488"
"","","","","","html-keyboard-response","150","913510","0.0-18.0-0.6","672976d49260ec8c490d70f6","6790928bebf0b969fc839b02","67929d22457fc8cbfa645ce1","passed","","","","","","","","","","","","","","","","","ballFalling","500","510.8711431702997","369.03","8","fallScene","true","","","","","31","",""
"","","","","","html-keyboard-response","151","916513","0.0-18.0-1.6","672976d49260ec8c490d70f6","6790928bebf0b969fc839b02","67929d22457fc8cbfa645ce1","passed","","2179","","","","","","","","","","","","","","f","yesOrNo","","","","8","","","lp","3000","","","31","501","151"
"","","","","","html-keyboard-response","152","917998","0.0-18.0-0.7","672976d49260ec8c490d70f6","6790928bebf0b969fc839b02","67929d22457fc8cbfa645ce1","passed","","","","","","","","","","","","","","","","","ballFalling","604.4000000000001","667.6211431702998","201.78","9","fallScene","true","","","","","32","",""
"","","","","","html-keyboard-response","153","921000","0.0-18.0-1.7","672976d49260ec8c490d70f6","6790928bebf0b969fc839b02","67929d22457fc8cbfa645ce1","passed","","2148","","","","","","","","","","","","","","f","yesOrNo","","","","9","","","mid","3000","","","32","605.4000000000001","300"
"","","","","","html-keyboard-response","154","923002","0.0-18.0-0.8","672976d49260ec8c490d70f6","6790928bebf0b969fc839b02","67929d22457fc8cbfa645ce1","passed","","","","","","","","","","","","","","","","","ballFalling","604.4000000000001","596.8711431702998","394.5","10","fallScene","false","","","","","33","",""
"","","","","","html-keyboard-response","155","926004","0.0-18.0-1.8","672976d49260ec8c490d70f6","6790928bebf0b969fc839b02","67929d22457fc8cbfa645ce1","passed","","1527","","","","","","","","","","","","","","f","yesOrNo","","","","10","","","gt","3000","","","33","596.8711431702998","394.5"
"","","","","","html-keyboard-response","156","927573","0.0-18.0-0.9","672976d49260ec8c490d70f6","6790928bebf0b969fc839b02","67929d22457fc8cbfa645ce1","passed","","","","","","","","","","","","","","","","","ballFalling","500","553.4711431702997","282.51","7","fallScene","false","","","","","34","",""
"","","","","","html-keyboard-response","157","930575","0.0-18.0-1.9","672976d49260ec8c490d70f6","6790928bebf0b969fc839b02","67929d22457fc8cbfa645ce1","passed","","2261","","","","","","","","","","","","","","j","yesOrNo","","","","7","","","gt","3000","","","34","553.4711431702997","282.51"
"","","","","","html-keyboard-response","158","932226","0.0-18.0-0.10","672976d49260ec8c490d70f6","6790928bebf0b969fc839b02","67929d22457fc8cbfa645ce1","passed","","","","","","","","","","","","","","","","","ballFalling","500","479.92114317029973","330.87","6","fallScene","true","","","","","35","",""
"","","","","","html-keyboard-response","159","935228","0.0-18.0-1.10","672976d49260ec8c490d70f6","6790928bebf0b969fc839b02","67929d22457fc8cbfa645ce1","passed","","1391","","","","","","","","","","","","","","f","yesOrNo","","","","6","","","lp","3000","","","35","499","189.92909825697632"
"","","","","","html-keyboard-response","160","937013","0.0-18.0-0.11","672976d49260ec8c490d70f6","6790928bebf0b969fc839b02","67929d22457fc8cbfa645ce1","passed","","","","","","","","","","","","","","","","","ballFalling","322.3","308.07114317029976","253.89","2","fallScene","false","","","","","36","",""
"","","","","","html-keyboard-response","161","940016","0.0-18.0-1.11","672976d49260ec8c490d70f6","6790928bebf0b969fc839b02","67929d22457fc8cbfa645ce1","passed","","1076","","","","","","","","","","","","","","f","yesOrNo","","","","2","","","mid","3000","","","36","321.3","300"
"","","","","","html-keyboard-response","162","941567","0.0-18.0-0.12","672976d49260ec8c490d70f6","6790928bebf0b969fc839b02","67929d22457fc8cbfa645ce1","passed","","","","","","","","","","","","","","","","","ballFalling","500","453.67114317029973","210.33","5","fallScene","false","","","","","37","",""
"","","","","","html-keyboard-response","163","944570","0.0-18.0-1.12","672976d49260ec8c490d70f6","6790928bebf0b969fc839b02","67929d22457fc8cbfa645ce1","passed","","1724","","","","","","","","","","","","","","f","yesOrNo","","","","5","","","lp","3000","","","37","499","151"
"","","","","","html-keyboard-response","164","946581","0.0-18.0-0.13","672976d49260ec8c490d70f6","6790928bebf0b969fc839b02","67929d22457fc8cbfa645ce1","passed","","","","","","","","","","","","","","","","","ballFalling","604.4000000000001","596.8711431702998","394.5","10","fallScene","false","","","","","38","",""
"","","","","","html-keyboard-response","165","949587","0.0-18.0-1.13","672976d49260ec8c490d70f6","6790928bebf0b969fc839b02","67929d22457fc8cbfa645ce1","passed","","2397","","","","","","","","","","","","","","f","yesOrNo","","","","10","","","lp","3000","","","38","603.4000000000001","215.50214355555383"
"","","","","","html-keyboard-response","166","951142","0.0-18.0-0.14","672976d49260ec8c490d70f6","6790928bebf0b969fc839b02","67929d22457fc8cbfa645ce1","passed","","","","","","","","","","","","","","","","","ballFalling","604.4000000000001","650.0211431702996","404.58000000000004","11","fallScene","false","","","","","39","",""
"","","","","","html-keyboard-response","167","954144","0.0-18.0-1.14","672976d49260ec8c490d70f6","6790928bebf0b969fc839b02","67929d22457fc8cbfa645ce1","passed","","1403","","","","","","","","","","","","","","j","yesOrNo","","","","11","","","lp","3000","","","39","605.4000000000001","372.6340973215488"
"","","","","","html-keyboard-response","168","956146","0.0-18.0-0.15","672976d49260ec8c490d70f6","6790928bebf0b969fc839b02","67929d22457fc8cbfa645ce1","passed","","","","","","","","","","","","","","","","","ballFalling","500","510.8711431702997","369.03","8","fallScene","false","","","","","40","",""
"","","","","","html-keyboard-response","169","959148","0.0-18.0-1.15","672976d49260ec8c490d70f6","6790928bebf0b969fc839b02","67929d22457fc8cbfa645ce1","passed","","1847","","","","","","","","","","","","","","f","yesOrNo","","","","8","","","gt","3000","","","40","510.8711431702997","369.03"
"","","","","","html-keyboard-response","170","960633","0.0-18.0-0.16","672976d49260ec8c490d70f6","6790928bebf0b969fc839b02","67929d22457fc8cbfa645ce1","passed","","","","","","","","","","","","","","","","","ballFalling","604.4000000000001","667.6211431702998","201.78","9","fallScene","false","","","","","41","",""
"","","","","","html-keyboard-response","171","963636","0.0-18.0-1.16","672976d49260ec8c490d70f6","6790928bebf0b969fc839b02","67929d22457fc8cbfa645ce1","passed","","1465","","","","","","","","","","","","","","f","yesOrNo","","","","9","","","lp","3000","","","41","605.4000000000001","151"
"","","","","","html-keyboard-response","172","965120","0.0-18.0-0.17","672976d49260ec8c490d70f6","6790928bebf0b969fc839b02","67929d22457fc8cbfa645ce1","passed","","","","","","","","","","","","","","","","","ballFalling","604.4000000000001","667.6211431702998","201.78","9","fallScene","false","","","","","42","",""
"","","","","","html-keyboard-response","173","968123","0.0-18.0-1.17","672976d49260ec8c490d70f6","6790928bebf0b969fc839b02","67929d22457fc8cbfa645ce1","passed","","1850","","","","","","","","","","","","","","j","yesOrNo","","","","9","","","gt","3000","","","42","667.6211431702998","201.78"
"","","","","","html-keyboard-response","174","969674","0.0-18.0-0.18","672976d49260ec8c490d70f6","6790928bebf0b969fc839b02","67929d22457fc8cbfa645ce1","passed","","","","","","","","","","","","","","","","","ballFalling","322.3","296.07114317029976","371.46","3","fallScene","true","","","","","43","",""
"","","","","","html-keyboard-response","175","972676","0.0-18.0-1.18","672976d49260ec8c490d70f6","6790928bebf0b969fc839b02","67929d22457fc8cbfa645ce1","passed","","2024","","","","","","","","","","","","","","j","yesOrNo","","","","3","","","mid","3000","","","43","321.3","300"
"","","","","","html-keyboard-response","176","974462","0.0-18.0-0.19","672976d49260ec8c490d70f6","6790928bebf0b969fc839b02","67929d22457fc8cbfa645ce1","passed","","","","","","","","","","","","","","","","","ballFalling","322.3","308.07114317029976","253.89","2","fallScene","false","","","","","44","",""
"","","","","","html-keyboard-response","177","977464","0.0-18.0-1.19","672976d49260ec8c490d70f6","6790928bebf0b969fc839b02","67929d22457fc8cbfa645ce1","passed","","1612","","","","","","","","","","","","","","j","yesOrNo","","","","2","","","lp","3000","","","44","321.3","151"
"","","","","","html-keyboard-response","178","979034","0.0-18.0-0.20","672976d49260ec8c490d70f6","6790928bebf0b969fc839b02","67929d22457fc8cbfa645ce1","passed","","","","","","","","","","","","","","","","","ballFalling","500","553.4711431702997","282.51","7","fallScene","false","","","","","45","",""
"","","","","","html-keyboard-response","179","982042","0.0-18.0-1.20","672976d49260ec8c490d70f6","6790928bebf0b969fc839b02","67929d22457fc8cbfa645ce1","passed","","1230","","","","","","","","","","","","","","f","yesOrNo","","","","7","","","gt","3000","","","45","553.4711431702997","282.51"
"","","","","","html-keyboard-response","180","983619","0.0-18.0-0.21","672976d49260ec8c490d70f6","6790928bebf0b969fc839b02","67929d22457fc8cbfa645ce1","passed","","","","","","","","","","","","","","","","","ballFalling","500","553.4711431702997","282.51","7","fallScene","true","","","","","46","",""
"","","","","","html-keyboard-response","181","986621","0.0-18.0-1.21","672976d49260ec8c490d70f6","6790928bebf0b969fc839b02","67929d22457fc8cbfa645ce1","passed","","1439","","","","","","","","","","","","","","j","yesOrNo","","","","7","","","lp","3000","","","46","501","227.2843295913261"
"","","","","","html-keyboard-response","182","988173","0.0-18.0-0.22","672976d49260ec8c490d70f6","6790928bebf0b969fc839b02","67929d22457fc8cbfa645ce1","passed","","","","","","","","","","","","","","","","","ballFalling","604.4000000000001","575.4211431702997","266.76","12","fallScene","false","","","","","47","",""
"","","","","","html-keyboard-response","183","991175","0.0-18.0-1.22","672976d49260ec8c490d70f6","6790928bebf0b969fc839b02","67929d22457fc8cbfa645ce1","passed","","1188","","","","","","","","","","","","","","f","yesOrNo","","","","12","","","mid","3000","","","47","536.4288568297004","300"
"","","","","","html-keyboard-response","184","993177","0.0-18.0-0.23","672976d49260ec8c490d70f6","6790928bebf0b969fc839b02","67929d22457fc8cbfa645ce1","passed","","","","","","","","","","","","","","","","","ballFalling","500","510.8711431702997","369.03","8","fallScene","false","","","","","48","",""
"","","","","","html-keyboard-response","185","996179","0.0-18.0-1.23","672976d49260ec8c490d70f6","6790928bebf0b969fc839b02","67929d22457fc8cbfa645ce1","passed","","1832","","","","","","","","","","","","","","j","yesOrNo","","","","8","","","lp","3000","","","48","501","151"
"","","","","","html-keyboard-response","186","1002884","0.0-19.0","672976d49260ec8c490d70f6","6790928bebf0b969fc839b02","67929d22457fc8cbfa645ce1","passed","","6704","","","","","","","","","","","","","<p><span style=""font-size:40px;"">BLOCK 3</span></p><p><span style=""font-size:25px;"">You have <b style=""color: #FF644F;""><strong>3 second(s)</strong></b> to respond to the following trials.</span><br></p><p></p> <!-- Blank line -->
                <p id=""blinking-text"" style=""font-weight; animation: blink 2s infinite;"">Press Space to continue</p>
                <style>
                    @keyframes blink {
                        50% {
                            opacity: 0;
                        }
                    }
                </style></p>"," ","","","","","","","","","","","","","",""
"","","","","","html-keyboard-response","187","1004887","0.0-20.0-0.0","672976d49260ec8c490d70f6","6790928bebf0b969fc839b02","67929d22457fc8cbfa645ce1","passed","","","","","","","","","","","","","","","","","ballFalling","500","510.8711431702997","369.03","8","fallScene","true","","","","","49","",""
"","","","","","html-keyboard-response","188","1007889","0.0-20.0-1.0","672976d49260ec8c490d70f6","6790928bebf0b969fc839b02","67929d22457fc8cbfa645ce1","passed","","1531","","","","","","","","","","","","","","f","yesOrNo","","","","8","","","mid","3000","","","49","501","300"
"","","","","","html-keyboard-response","189","1009458","0.0-20.0-0.1","672976d49260ec8c490d70f6","6790928bebf0b969fc839b02","67929d22457fc8cbfa645ce1","passed","","","","","","","","","","","","","","","","","ballFalling","500","553.4711431702997","282.51","7","fallScene","true","","","","","50","",""
"","","","","","html-keyboard-response","190","1012460","0.0-20.0-1.1","672976d49260ec8c490d70f6","6790928bebf0b969fc839b02","67929d22457fc8cbfa645ce1","passed","","1240","","","","","","","","","","","","","","j","yesOrNo","","","","7","","","mid","3000","","","50","501","300"
"","","","","","html-keyboard-response","191","1014011","0.0-20.0-0.2","672976d49260ec8c490d70f6","6790928bebf0b969fc839b02","67929d22457fc8cbfa645ce1","passed","","","","","","","","","","","","","","","","","ballFalling","604.4000000000001","650.0211431702996","404.58000000000004","11","fallScene","true","","","","","51","",""
"","","","","","html-keyboard-response","192","1017013","0.0-20.0-1.2","672976d49260ec8c490d70f6","6790928bebf0b969fc839b02","67929d22457fc8cbfa645ce1","passed","","1310","","","","","","","","","","","","","","f","yesOrNo","","","","11","","","mid","3000","","","51","605.4000000000001","300"
"","","","","","html-keyboard-response","193","1018565","0.0-20.0-0.3","672976d49260ec8c490d70f6","6790928bebf0b969fc839b02","67929d22457fc8cbfa645ce1","passed","","","","","","","","","","","","","","","","","ballFalling","500","453.67114317029973","210.33","5","fallScene","true","","","","","52","",""
"","","","","","html-keyboard-response","194","1021567","0.0-20.0-1.3","672976d49260ec8c490d70f6","6790928bebf0b969fc839b02","67929d22457fc8cbfa645ce1","passed","","1373","","","","","","","","","","","","","","f","yesOrNo","","","","5","","","mid","3000","","","52","499","300"
"","","","","","html-keyboard-response","195","1023569","0.0-20.0-0.4","672976d49260ec8c490d70f6","6790928bebf0b969fc839b02","67929d22457fc8cbfa645ce1","passed","","","","","","","","","","","","","","","","","ballFalling","604.4000000000001","596.8711431702998","394.5","10","fallScene","false","","","","","53","",""
"","","","","","html-keyboard-response","196","1026571","0.0-20.0-1.4","672976d49260ec8c490d70f6","6790928bebf0b969fc839b02","67929d22457fc8cbfa645ce1","passed","","832","","","","","","","","","","","","","","f","yesOrNo","","","","10","","","mid","3000","","","53","536.4288568297004","300"
"","","","","","html-keyboard-response","197","1028123","0.0-20.0-0.5","672976d49260ec8c490d70f6","6790928bebf0b969fc839b02","67929d22457fc8cbfa645ce1","passed","","","","","","","","","","","","","","","","","ballFalling","322.3","296.07114317029976","371.46","3","fallScene","false","","","","","54","",""
"","","","","","html-keyboard-response","198","1031126","0.0-20.0-1.5","672976d49260ec8c490d70f6","6790928bebf0b969fc839b02","67929d22457fc8cbfa645ce1","passed","","1888","","","","","","","","","","","","","","j","yesOrNo","","","","3","","","lp","3000","","","54","321.3","287.3327096511259"
"","","","","","html-keyboard-response","199","1033143","0.0-20.0-0.6","672976d49260ec8c490d70f6","6790928bebf0b969fc839b02","67929d22457fc8cbfa645ce1","passed","","","","","","","","","","","","","","","","","ballFalling","604.4000000000001","596.8711431702998","394.5","10","fallScene","true","","","","","55","",""
"","","","","","html-keyboard-response","200","1036146","0.0-20.0-1.6","672976d49260ec8c490d70f6","6790928bebf0b969fc839b02","67929d22457fc8cbfa645ce1","passed","","1923","","","","","","","","","","","","","","f","yesOrNo","","","","10","","","lp","3000","","","55","603.4000000000001","215.50214355555383"
"","","","","","html-keyboard-response","201","1037631","0.0-20.0-0.7","672976d49260ec8c490d70f6","6790928bebf0b969fc839b02","67929d22457fc8cbfa645ce1","passed","","","","","","","","","","","","","","","","","ballFalling","604.4000000000001","667.6211431702998","201.78","9","fallScene","false","","","","","56","",""
"","","","","","html-keyboard-response","202","1040633","0.0-20.0-1.7","672976d49260ec8c490d70f6","6790928bebf0b969fc839b02","67929d22457fc8cbfa645ce1","passed","","1859","","","","","","","","","","","","","","f","yesOrNo","","","","9","","","lp","3000","","","56","605.4000000000001","151"
"","","","","","html-keyboard-response","203","1042185","0.0-20.0-0.8","672976d49260ec8c490d70f6","6790928bebf0b969fc839b02","67929d22457fc8cbfa645ce1","passed","","","","","","","","","","","","","","","","","ballFalling","322.3","356.42114317029973","357.87","4","fallScene","false","","","","","57","",""
"","","","","","html-keyboard-response","204","1045187","0.0-20.0-1.8","672976d49260ec8c490d70f6","6790928bebf0b969fc839b02","67929d22457fc8cbfa645ce1","passed","","1288","","","","","","","","","","","","","","j","yesOrNo","","","","4","","","lp","3000","","","57","323.3","297.4070551689986"
"","","","","","html-keyboard-response","205","1046738","0.0-20.0-0.9","672976d49260ec8c490d70f6","6790928bebf0b969fc839b02","67929d22457fc8cbfa645ce1","passed","","","","","","","","","","","","","","","","","ballFalling","322.3","379.3711431702997","245.25","1","fallScene","false","","","","","58","",""
"","","","","","html-keyboard-response","206","1049741","0.0-20.0-1.9","672976d49260ec8c490d70f6","6790928bebf0b969fc839b02","67929d22457fc8cbfa645ce1","passed","","936","","","","","","","","","","","","","","f","yesOrNo","","","","1","","","mid","3000","","","58","390.27114317029975","300"
"","","","","","html-keyboard-response","207","1051293","0.0-20.0-0.10","672976d49260ec8c490d70f6","6790928bebf0b969fc839b02","67929d22457fc8cbfa645ce1","passed","","","","","","","","","","","","","","","","","ballFalling","604.4000000000001","575.4211431702997","266.76","12","fallScene","false","","","","","59","",""
"","","","","","html-keyboard-response","208","1054295","0.0-20.0-1.10","672976d49260ec8c490d70f6","6790928bebf0b969fc839b02","67929d22457fc8cbfa645ce1","passed","","1005","","","","","","","","","","","","","","f","yesOrNo","","","","12","","","mid","3000","","","59","536.4288568297004","300"
"","","","","","html-keyboard-response","209","1055946","0.0-20.0-0.11","672976d49260ec8c490d70f6","6790928bebf0b969fc839b02","67929d22457fc8cbfa645ce1","passed","","","","","","","","","","","","","","","","","ballFalling","500","479.92114317029973","330.87","6","fallScene","false","","","","","60","",""
"","","","","","html-keyboard-response","210","1058948","0.0-20.0-1.11","672976d49260ec8c490d70f6","6790928bebf0b969fc839b02","67929d22457fc8cbfa645ce1","passed","","1216","","","","","","","","","","","","","","j","yesOrNo","","","","6","","","lp","3000","","","60","499","189.92909825697632"
"","","","","","html-keyboard-response","211","1060500","0.0-20.0-0.12","672976d49260ec8c490d70f6","6790928bebf0b969fc839b02","67929d22457fc8cbfa645ce1","passed","","","","","","","","","","","","","","","","","ballFalling","322.3","356.42114317029973","357.87","4","fallScene","false","","","","","61","",""
"","","","","","html-keyboard-response","212","1063502","0.0-20.0-1.12","672976d49260ec8c490d70f6","6790928bebf0b969fc839b02","67929d22457fc8cbfa645ce1","passed","","877","","","","","","","","","","","","","","f","yesOrNo","","","","4","","","mid","3000","","","61","390.27114317029975","300"
"","","","","","html-keyboard-response","213","1065054","0.0-20.0-0.13","672976d49260ec8c490d70f6","6790928bebf0b969fc839b02","67929d22457fc8cbfa645ce1","passed","","","","","","","","","","","","","","","","","ballFalling","604.4000000000001","575.4211431702997","266.76","12","fallScene","false","","","","","62","",""
"","","","","","html-keyboard-response","214","1068056","0.0-20.0-1.13","672976d49260ec8c490d70f6","6790928bebf0b969fc839b02","67929d22457fc8cbfa645ce1","passed","","1756","","","","","","","","","","","","","","f","yesOrNo","","","","12","","","gt","3000","","","62","575.4211431702997","266.76"
"","","","","","html-keyboard-response","215","1069608","0.0-20.0-0.14","672976d49260ec8c490d70f6","6790928bebf0b969fc839b02","67929d22457fc8cbfa645ce1","passed","","","","","","","","","","","","","","","","","ballFalling","604.4000000000001","650.0211431702996","404.58000000000004","11","fallScene","false","","","","","63","",""
"","","","","","html-keyboard-response","216","1072610","0.0-20.0-1.14","672976d49260ec8c490d70f6","6790928bebf0b969fc839b02","67929d22457fc8cbfa645ce1","passed","","1194","","","","","","","","","","","","","","j","yesOrNo","","","","11","","","mid","3000","","","63","605.4000000000001","300"
"","","","","","html-keyboard-response","217","1074161","0.0-20.0-0.15","672976d49260ec8c490d70f6","6790928bebf0b969fc839b02","67929d22457fc8cbfa645ce1","passed","","","","","","","","","","","","","","","","","ballFalling","604.4000000000001","575.4211431702997","266.76","12","fallScene","true","","","","","64","",""
"","","","","","html-keyboard-response","218","1077164","0.0-20.0-1.15","672976d49260ec8c490d70f6","6790928bebf0b969fc839b02","67929d22457fc8cbfa645ce1","passed","","1495","","","","","","","","","","","","","","f","yesOrNo","","","","12","","","gt","3000","","","64","575.4211431702997","266.76"
"","","","","","html-keyboard-response","219","1079182","0.0-20.0-0.16","672976d49260ec8c490d70f6","6790928bebf0b969fc839b02","67929d22457fc8cbfa645ce1","passed","","","","","","","","","","","","","","","","","ballFalling","500","510.8711431702997","369.03","8","fallScene","true","","","","","65","",""
"","","","","","html-keyboard-response","220","1082185","0.0-20.0-1.16","672976d49260ec8c490d70f6","6790928bebf0b969fc839b02","67929d22457fc8cbfa645ce1","passed","","1627","","","","","","","","","","","","","","f","yesOrNo","","","","8","","","mid","3000","","","65","501","300"
"","","","","","html-keyboard-response","221","1083736","0.0-20.0-0.17","672976d49260ec8c490d70f6","6790928bebf0b969fc839b02","67929d22457fc8cbfa645ce1","passed","","","","","","","","","","","","","","","","","ballFalling","322.3","356.42114317029973","357.87","4","fallScene","true","","","","","66","",""
"","","","","","html-keyboard-response","222","1086740","0.0-20.0-1.17","672976d49260ec8c490d70f6","6790928bebf0b969fc839b02","67929d22457fc8cbfa645ce1","passed","","760","","","","","","","","","","","","","","f","yesOrNo","","","","4","","","mid","3000","","","66","390.27114317029975","300"
"","","","","","html-keyboard-response","223","1088540","0.0-20.0-0.18","672976d49260ec8c490d70f6","6790928bebf0b969fc839b02","67929d22457fc8cbfa645ce1","passed","","","","","","","","","","","","","","","","","ballFalling","322.3","308.07114317029976","253.89","2","fallScene","true","","","","","67","",""
"","","","","","html-keyboard-response","224","1091542","0.0-20.0-1.18","672976d49260ec8c490d70f6","6790928bebf0b969fc839b02","67929d22457fc8cbfa645ce1","passed","","1782","","","","","","","","","","","","","","j","yesOrNo","","","","2","","","lp","3000","","","67","321.3","151"
"","","","","","html-keyboard-response","225","1093094","0.0-20.0-0.19","672976d49260ec8c490d70f6","6790928bebf0b969fc839b02","67929d22457fc8cbfa645ce1","passed","","","","","","","","","","","","","","","","","ballFalling","604.4000000000001","575.4211431702997","266.76","12","fallScene","false","","","","","68","",""
"","","","","","html-keyboard-response","226","1096097","0.0-20.0-1.19","672976d49260ec8c490d70f6","6790928bebf0b969fc839b02","67929d22457fc8cbfa645ce1","passed","","1851","","","","","","","","","","","","","","f","yesOrNo","","","","12","","","lp","3000","","","68","603.4000000000001","151"
"","","","","","html-keyboard-response","227","1098114","0.0-20.0-0.20","672976d49260ec8c490d70f6","6790928bebf0b969fc839b02","67929d22457fc8cbfa645ce1","passed","","","","","","","","","","","","","","","","","ballFalling","604.4000000000001","596.8711431702998","394.5","10","fallScene","true","","","","","69","",""
"","","","","","html-keyboard-response","228","1101117","0.0-20.0-1.20","672976d49260ec8c490d70f6","6790928bebf0b969fc839b02","67929d22457fc8cbfa645ce1","passed","","1247","","","","","","","","","","","","","","f","yesOrNo","","","","10","","","gt","3000","","","69","596.8711431702998","394.5"
"","","","","","html-keyboard-response","229","1102768","0.0-20.0-0.21","672976d49260ec8c490d70f6","6790928bebf0b969fc839b02","67929d22457fc8cbfa645ce1","passed","","","","","","","","","","","","","","","","","ballFalling","500","479.92114317029973","330.87","6","fallScene","true","","","","","70","",""
"","","","","","html-keyboard-response","230","1105771","0.0-20.0-1.21","672976d49260ec8c490d70f6","6790928bebf0b969fc839b02","67929d22457fc8cbfa645ce1","passed","","778","","","","","","","","","","","","","","f","yesOrNo","","","","6","","","gt","3000","","","70","479.9211431702998","330.87"
"","","","","","html-keyboard-response","231","1107322","0.0-20.0-0.22","672976d49260ec8c490d70f6","6790928bebf0b969fc839b02","67929d22457fc8cbfa645ce1","passed","","","","","","","","","","","","","","","","","ballFalling","322.3","379.3711431702997","245.25","1","fallScene","true","","","","","71","",""
"","","","","","html-keyboard-response","232","1110324","0.0-20.0-1.22","672976d49260ec8c490d70f6","6790928bebf0b969fc839b02","67929d22457fc8cbfa645ce1","passed","","864","","","","","","","","","","","","","","f","yesOrNo","","","","1","","","gt","3000","","","71","379.3711431702997","245.25"
"","","","","","html-keyboard-response","233","1112327","0.0-20.0-0.23","672976d49260ec8c490d70f6","6790928bebf0b969fc839b02","67929d22457fc8cbfa645ce1","passed","","","","","","","","","","","","","","","","","ballFalling","500","510.8711431702997","369.03","8","fallScene","true","","","","","72","",""
"","","","","","html-keyboard-response","234","1115329","0.0-20.0-1.23","672976d49260ec8c490d70f6","6790928bebf0b969fc839b02","67929d22457fc8cbfa645ce1","passed","","1347","","","","","","","","","","","","","","f","yesOrNo","","","","8","","","gt","3000","","","72","510.8711431702997","369.03"
"","","","","","html-keyboard-response","235","1116916","0.0-21.0","672976d49260ec8c490d70f6","6790928bebf0b969fc839b02","67929d22457fc8cbfa645ce1","passed","","1587","","","","","","","","","","","","","<p><span style=""font-size:40px;"">BLOCK 4</span></p><p><span style=""font-size:25px;"">You have <b style=""color: #FF644F;""><strong>1 second(s)</strong></b> to respond to the following trials.</span><br></p><p></p> <!-- Blank line -->
                <p id=""blinking-text"" style=""font-weight; animation: blink 2s infinite;"">Press Space to continue</p>
                <style>
                    @keyframes blink {
                        50% {
                            opacity: 0;
                        }
                    }
                </style></p>"," ","","","","","","","","","","","","","",""
"","","","","","html-keyboard-response","236","1118415","0.0-22.0-0.0","672976d49260ec8c490d70f6","6790928bebf0b969fc839b02","67929d22457fc8cbfa645ce1","passed","","","","","","","","","","","","","","","","","ballFalling","604.4000000000001","667.6211431702998","201.78","9","fallScene","true","","","","","73","",""
"","","","","","html-keyboard-response","237","1119417","0.0-22.0-1.0","672976d49260ec8c490d70f6","6790928bebf0b969fc839b02","67929d22457fc8cbfa645ce1","passed","","907","","","","","","","","","","","","","","f","yesOrNo","","","","9","","","lp","1000","","","73","605.4000000000001","151"
"","","","","","html-keyboard-response","238","1120985","0.0-22.0-0.1","672976d49260ec8c490d70f6","6790928bebf0b969fc839b02","67929d22457fc8cbfa645ce1","passed","","","","","","","","","","","","","","","","","ballFalling","604.4000000000001","650.0211431702996","404.58000000000004","11","fallScene","false","","","","","74","",""
"","","","","","html-keyboard-response","239","1121989","0.0-22.0-1.1","672976d49260ec8c490d70f6","6790928bebf0b969fc839b02","67929d22457fc8cbfa645ce1","passed","","895","","","","","","","","","","","","","","f","yesOrNo","","","","11","","","gt","1000","","","74","650.0211431702996","404.58"
"","","","","","html-keyboard-response","240","1124004","0.0-22.0-0.2","672976d49260ec8c490d70f6","6790928bebf0b969fc839b02","67929d22457fc8cbfa645ce1","passed","","","","","","","","","","","","","","","","","ballFalling","604.4000000000001","596.8711431702998","394.5","10","fallScene","true","","","","","75","",""
"","","","","","html-keyboard-response","241","1125009","0.0-22.0-1.2","672976d49260ec8c490d70f6","6790928bebf0b969fc839b02","67929d22457fc8cbfa645ce1","passed","","null","","","","","","","","","","","","","","null","yesOrNo","","","","10","","","gt","1000","","","75","596.8711431702998","394.5"
"","","","","","html-keyboard-response","242","1126577","0.0-22.0-0.3","672976d49260ec8c490d70f6","6790928bebf0b969fc839b02","67929d22457fc8cbfa645ce1","passed","","","","","","","","","","","","","","","","","ballFalling","322.3","379.3711431702997","245.25","1","fallScene","true","","","","","76","",""
"","","","","","html-keyboard-response","243","1127586","0.0-22.0-1.3","672976d49260ec8c490d70f6","6790928bebf0b969fc839b02","67929d22457fc8cbfa645ce1","passed","","null","","","","","","","","","","","","","","null","yesOrNo","","","","1","","","gt","1000","","","76","379.3711431702997","245.25"
"","","","","","html-keyboard-response","244","1129141","0.0-22.0-0.4","672976d49260ec8c490d70f6","6790928bebf0b969fc839b02","67929d22457fc8cbfa645ce1","passed","","","","","","","","","","","","","","","","","ballFalling","604.4000000000001","650.0211431702996","404.58000000000004","11","fallScene","true","","","","","77","",""
"","","","","","html-keyboard-response","245","1130144","0.0-22.0-1.4","672976d49260ec8c490d70f6","6790928bebf0b969fc839b02","67929d22457fc8cbfa645ce1","passed","","743","","","","","","","","","","","","","","j","yesOrNo","","","","11","","","lp","1000","","","77","605.4000000000001","372.6340973215488"
"","","","","","html-keyboard-response","246","1131810","0.0-22.0-0.5","672976d49260ec8c490d70f6","6790928bebf0b969fc839b02","67929d22457fc8cbfa645ce1","passed","","","","","","","","","","","","","","","","","ballFalling","500","479.92114317029973","330.87","6","fallScene","false","","","","","78","",""
"","","","","","html-keyboard-response","247","1132818","0.0-22.0-1.5","672976d49260ec8c490d70f6","6790928bebf0b969fc839b02","67929d22457fc8cbfa645ce1","passed","","870","","","","","","","","","","","","","","j","yesOrNo","","","","6","","","mid","1000","","","78","499","300"
"","","","","","html-keyboard-response","248","1134378","0.0-22.0-0.6","672976d49260ec8c490d70f6","6790928bebf0b969fc839b02","67929d22457fc8cbfa645ce1","passed","","","","","","","","","","","","","","","","","ballFalling","604.4000000000001","575.4211431702997","266.76","12","fallScene","false","","","","","79","",""
"","","","","","html-keyboard-response","249","1135381","0.0-22.0-1.6","672976d49260ec8c490d70f6","6790928bebf0b969fc839b02","67929d22457fc8cbfa645ce1","passed","","752","","","","","","","","","","","","","","f","yesOrNo","","","","12","","","mid","1000","","","79","536.4288568297004","300"
"","","","","","html-keyboard-response","250","1136947","0.0-22.0-0.7","672976d49260ec8c490d70f6","6790928bebf0b969fc839b02","67929d22457fc8cbfa645ce1","passed","","","","","","","","","","","","","","","","","ballFalling","604.4000000000001","575.4211431702997","266.76","12","fallScene","true","","","","","80","",""
"","","","","","html-keyboard-response","251","1137948","0.0-22.0-1.7","672976d49260ec8c490d70f6","6790928bebf0b969fc839b02","67929d22457fc8cbfa645ce1","passed","","823","","","","","","","","","","","","","","f","yesOrNo","","","","12","","","lp","1000","","","80","603.4000000000001","151"
"","","","","","html-keyboard-response","252","1139516","0.0-22.0-0.8","672976d49260ec8c490d70f6","6790928bebf0b969fc839b02","67929d22457fc8cbfa645ce1","passed","","","","","","","","","","","","","","","","","ballFalling","322.3","356.42114317029973","357.87","4","fallScene","true","","","","","81","",""
"","","","","","html-keyboard-response","253","1140521","0.0-22.0-1.8","672976d49260ec8c490d70f6","6790928bebf0b969fc839b02","67929d22457fc8cbfa645ce1","passed","","597","","","","","","","","","","","","","","j","yesOrNo","","","","4","","","lp","1000","","","81","323.3","297.4070551689986"
"","","","","","html-keyboard-response","254","1142186","0.0-22.0-0.9","672976d49260ec8c490d70f6","6790928bebf0b969fc839b02","67929d22457fc8cbfa645ce1","passed","","","","","","","","","","","","","","","","","ballFalling","500","479.92114317029973","330.87","6","fallScene","true","","","","","82","",""
"","","","","","html-keyboard-response","255","1143193","0.0-22.0-1.9","672976d49260ec8c490d70f6","6790928bebf0b969fc839b02","67929d22457fc8cbfa645ce1","passed","","815","","","","","","","","","","","","","","j","yesOrNo","","","","6","","","mid","1000","","","82","499","300"
"","","","","","html-keyboard-response","256","1144775","0.0-22.0-0.10","672976d49260ec8c490d70f6","6790928bebf0b969fc839b02","67929d22457fc8cbfa645ce1","passed","","","","","","","","","","","","","","","","","ballFalling","500","553.4711431702997","282.51","7","fallScene","false","","","","","83","",""
"","","","","","html-keyboard-response","257","1145784","0.0-22.0-1.10","672976d49260ec8c490d70f6","6790928bebf0b969fc839b02","67929d22457fc8cbfa645ce1","passed","","795","","","","","","","","","","","","","","f","yesOrNo","","","","7","","","lp","1000","","","83","501","227.2843295913261"
"","","","","","html-keyboard-response","258","1147272","0.0-22.0-0.11","672976d49260ec8c490d70f6","6790928bebf0b969fc839b02","67929d22457fc8cbfa645ce1","passed","","","","","","","","","","","","","","","","","ballFalling","604.4000000000001","667.6211431702998","201.78","9","fallScene","false","","","","","84","",""
"","","","","","html-keyboard-response","259","1148274","0.0-22.0-1.11","672976d49260ec8c490d70f6","6790928bebf0b969fc839b02","67929d22457fc8cbfa645ce1","passed","","945","","","","","","","","","","","","","","f","yesOrNo","","","","9","","","gt","1000","","","84","667.6211431702998","201.78"
"","","","","","html-keyboard-response","260","1149841","0.0-22.0-0.12","672976d49260ec8c490d70f6","6790928bebf0b969fc839b02","67929d22457fc8cbfa645ce1","passed","","","","","","","","","","","","","","","","","ballFalling","500","453.67114317029973","210.33","5","fallScene","true","","","","","85","",""
"","","","","","html-keyboard-response","261","1150848","0.0-22.0-1.12","672976d49260ec8c490d70f6","6790928bebf0b969fc839b02","67929d22457fc8cbfa645ce1","passed","","825","","","","","","","","","","","","","","f","yesOrNo","","","","5","","","gt","1000","","","85","453.6711431702998","210.33"
"","","","","","html-keyboard-response","262","1152410","0.0-22.0-0.13","672976d49260ec8c490d70f6","6790928bebf0b969fc839b02","67929d22457fc8cbfa645ce1","passed","","","","","","","","","","","","","","","","","ballFalling","322.3","356.42114317029973","357.87","4","fallScene","true","","","","","86","",""
"","","","","","html-keyboard-response","263","1153414","0.0-22.0-1.13","672976d49260ec8c490d70f6","6790928bebf0b969fc839b02","67929d22457fc8cbfa645ce1","passed","","854","","","","","","","","","","","","","","f","yesOrNo","","","","4","","","mid","1000","","","86","390.27114317029975","300"
"","","","","","html-keyboard-response","264","1155429","0.0-22.0-0.14","672976d49260ec8c490d70f6","6790928bebf0b969fc839b02","67929d22457fc8cbfa645ce1","passed","","","","","","","","","","","","","","","","","ballFalling","604.4000000000001","596.8711431702998","394.5","10","fallScene","false","","","","","87","",""
"","","","","","html-keyboard-response","265","1156433","0.0-22.0-1.14","672976d49260ec8c490d70f6","6790928bebf0b969fc839b02","67929d22457fc8cbfa645ce1","passed","","643","","","","","","","","","","","","","","f","yesOrNo","","","","10","","","mid","1000","","","87","536.4288568297004","300"
"","","","","","html-keyboard-response","266","1157998","0.0-22.0-0.15","672976d49260ec8c490d70f6","6790928bebf0b969fc839b02","67929d22457fc8cbfa645ce1","passed","","","","","","","","","","","","","","","","","ballFalling","500","453.67114317029973","210.33","5","fallScene","false","","","","","88","",""
"","","","","","html-keyboard-response","267","1159009","0.0-22.0-1.15","672976d49260ec8c490d70f6","6790928bebf0b969fc839b02","67929d22457fc8cbfa645ce1","passed","","730","","","","","","","","","","","","","","j","yesOrNo","","","","5","","","mid","1000","","","88","499","300"
"","","","","","html-keyboard-response","268","1160500","0.0-22.0-0.16","672976d49260ec8c490d70f6","6790928bebf0b969fc839b02","67929d22457fc8cbfa645ce1","passed","","","","","","","","","","","","","","","","","ballFalling","604.4000000000001","667.6211431702998","201.78","9","fallScene","false","","","","","89","",""
"","","","","","html-keyboard-response","269","1161515","0.0-22.0-1.16","672976d49260ec8c490d70f6","6790928bebf0b969fc839b02","67929d22457fc8cbfa645ce1","passed","","710","","","","","","","","","","","","","","f","yesOrNo","","","","9","","","gt","1000","","","89","667.6211431702998","201.78"
"","","","","","html-keyboard-response","270","1163069","0.0-22.0-0.17","672976d49260ec8c490d70f6","6790928bebf0b969fc839b02","67929d22457fc8cbfa645ce1","passed","","","","","","","","","","","","","","","","","ballFalling","500","453.67114317029973","210.33","5","fallScene","true","","","","","90","",""
"","","","","","html-keyboard-response","271","1164072","0.0-22.0-1.17","672976d49260ec8c490d70f6","6790928bebf0b969fc839b02","67929d22457fc8cbfa645ce1","passed","","797","","","","","","","","","","","","","","f","yesOrNo","","","","5","","","gt","1000","","","90","453.6711431702998","210.33"
"","","","","","html-keyboard-response","272","1166090","0.0-22.0-0.18","672976d49260ec8c490d70f6","6790928bebf0b969fc839b02","67929d22457fc8cbfa645ce1","passed","","","","","","","","","","","","","","","","","ballFalling","500","510.8711431702997","369.03","8","fallScene","false","","","","","91","",""
"","","","","","html-keyboard-response","273","1167106","0.0-22.0-1.18","672976d49260ec8c490d70f6","6790928bebf0b969fc839b02","67929d22457fc8cbfa645ce1","passed","","856","","","","","","","","","","","","","","j","yesOrNo","","","","8","","","lp","1000","","","91","501","151"
"","","","","","html-keyboard-response","274","1168657","0.0-22.0-0.19","672976d49260ec8c490d70f6","6790928bebf0b969fc839b02","67929d22457fc8cbfa645ce1","passed","","","","","","","","","","","","","","","","","ballFalling","604.4000000000001","650.0211431702996","404.58000000000004","11","fallScene","false","","","","","92","",""
"","","","","","html-keyboard-response","275","1169658","0.0-22.0-1.19","672976d49260ec8c490d70f6","6790928bebf0b969fc839b02","67929d22457fc8cbfa645ce1","passed","","969","","","","","","","","","","","","","","f","yesOrNo","","","","11","","","lp","1000","","","92","605.4000000000001","372.6340973215488"
"","","","","","html-keyboard-response","276","1171459","0.0-22.0-0.20","672976d49260ec8c490d70f6","6790928bebf0b969fc839b02","67929d22457fc8cbfa645ce1","passed","","","","","","","","","","","","","","","","","ballFalling","322.3","308.07114317029976","253.89","2","fallScene","false","","","","","93","",""
"","","","","","html-keyboard-response","277","1172461","0.0-22.0-1.20","672976d49260ec8c490d70f6","6790928bebf0b969fc839b02","67929d22457fc8cbfa645ce1","passed","","671","","","","","","","","","","","","","","j","yesOrNo","","","","2","","","lp","1000","","","93","321.3","151"
"","","","","","html-keyboard-response","278","1174144","0.0-22.0-0.21","672976d49260ec8c490d70f6","6790928bebf0b969fc839b02","67929d22457fc8cbfa645ce1","passed","","","","","","","","","","","","","","","","","ballFalling","500","479.92114317029973","330.87","6","fallScene","true","","","","","94","",""
"","","","","","html-keyboard-response","279","1175146","0.0-22.0-1.21","672976d49260ec8c490d70f6","6790928bebf0b969fc839b02","67929d22457fc8cbfa645ce1","passed","","834","","","","","","","","","","","","","","f","yesOrNo","","","","6","","","gt","1000","","","94","479.9211431702998","330.87"
"","","","","","html-keyboard-response","280","1176713","0.0-22.0-0.22","672976d49260ec8c490d70f6","6790928bebf0b969fc839b02","67929d22457fc8cbfa645ce1","passed","","","","","","","","","","","","","","","","","ballFalling","322.3","296.07114317029976","371.46","3","fallScene","true","","","","","95","",""
"","","","","","html-keyboard-response","281","1177715","0.0-22.0-1.22","672976d49260ec8c490d70f6","6790928bebf0b969fc839b02","67929d22457fc8cbfa645ce1","passed","","760","","","","","","","","","","","","","","f","yesOrNo","","","","3","","","gt","1000","","","95","296.07114317029976","371.46"
"","","","","","html-keyboard-response","282","1179282","0.0-22.0-0.23","672976d49260ec8c490d70f6","6790928bebf0b969fc839b02","67929d22457fc8cbfa645ce1","passed","","","","","","","","","","","","","","","","","ballFalling","322.3","379.3711431702997","245.25","1","fallScene","false","","","","","96","",""
"","","","","","html-keyboard-response","283","1180284","0.0-22.0-1.23","672976d49260ec8c490d70f6","6790928bebf0b969fc839b02","67929d22457fc8cbfa645ce1","passed","","759","","","","","","","","","","","","","","j","yesOrNo","","","","1","","","lp","1000","","","96","323.3","217.74551669457017"
"","","","","","html-keyboard-response","284","1183155","0.0-23.0","672976d49260ec8c490d70f6","6790928bebf0b969fc839b02","67929d22457fc8cbfa645ce1","passed","","2871","","","","","","","","","","","","","<p><span style=""font-size:40px;"">BLOCK 5</span></p><p><span style=""font-size:25px;"">You have <b style=""color: #FF644F;""><strong>1 second(s)</strong></b> to respond to the following trials.</span><br></p><p></p> <!-- Blank line -->
                <p id=""blinking-text"" style=""font-weight; animation: blink 2s infinite;"">Press Space to continue</p>
                <style>
                    @keyframes blink {
                        50% {
                            opacity: 0;
                        }
                    }
                </style></p>"," ","","","","","","","","","","","","","",""
"","","","","","html-keyboard-response","285","1184720","0.0-24.0-0.0","672976d49260ec8c490d70f6","6790928bebf0b969fc839b02","67929d22457fc8cbfa645ce1","passed","","","","","","","","","","","","","","","","","ballFalling","322.3","296.07114317029976","371.46","3","fallScene","true","","","","","97","",""
"","","","","","html-keyboard-response","286","1185722","0.0-24.0-1.0","672976d49260ec8c490d70f6","6790928bebf0b969fc839b02","67929d22457fc8cbfa645ce1","passed","","969","","","","","","","","","","","","","","f","yesOrNo","","","","3","","","mid","1000","","","97","321.3","300"
"","","","","","html-keyboard-response","287","1187289","0.0-24.0-0.1","672976d49260ec8c490d70f6","6790928bebf0b969fc839b02","67929d22457fc8cbfa645ce1","passed","","","","","","","","","","","","","","","","","ballFalling","322.3","379.3711431702997","245.25","1","fallScene","false","","","","","98","",""
"","","","","","html-keyboard-response","288","1188291","0.0-24.0-1.1","672976d49260ec8c490d70f6","6790928bebf0b969fc839b02","67929d22457fc8cbfa645ce1","passed","","705","","","","","","","","","","","","","","f","yesOrNo","","","","1","","","mid","1000","","","98","390.27114317029975","300"
"","","","","","html-keyboard-response","289","1190308","0.0-24.0-0.2","672976d49260ec8c490d70f6","6790928bebf0b969fc839b02","67929d22457fc8cbfa645ce1","passed","","","","","","","","","","","","","","","","","ballFalling","500","510.8711431702997","369.03","8","fallScene","false","","","","","99","",""
"","","","","","html-keyboard-response","290","1191310","0.0-24.0-1.2","672976d49260ec8c490d70f6","6790928bebf0b969fc839b02","67929d22457fc8cbfa645ce1","passed","","638","","","","","","","","","","","","","","f","yesOrNo","","","","8","","","mid","1000","","","99","501","300"
"","","","","","html-keyboard-response","291","1192877","0.0-24.0-0.3","672976d49260ec8c490d70f6","6790928bebf0b969fc839b02","67929d22457fc8cbfa645ce1","passed","","","","","","","","","","","","","","","","","ballFalling","604.4000000000001","575.4211431702997","266.76","12","fallScene","true","","","","","100","",""
"","","","","","html-keyboard-response","292","1193878","0.0-24.0-1.3","672976d49260ec8c490d70f6","6790928bebf0b969fc839b02","67929d22457fc8cbfa645ce1","passed","","949","","","","","","","","","","","","","","f","yesOrNo","","","","12","","","lp","1000","","","100","603.4000000000001","151"
"","","","","","html-keyboard-response","293","1195447","0.0-24.0-0.4","672976d49260ec8c490d70f6","6790928bebf0b969fc839b02","67929d22457fc8cbfa645ce1","passed","","","","","","","","","","","","","","","","","ballFalling","500","553.4711431702997","282.51","7","fallScene","true","","","","","101","",""
"","","","","","html-keyboard-response","294","1196461","0.0-24.0-1.4","672976d49260ec8c490d70f6","6790928bebf0b969fc839b02","67929d22457fc8cbfa645ce1","passed","","899","","","","","","","","","","","","","","j","yesOrNo","","","","7","","","gt","1000","","","101","553.4711431702997","282.51"
"","","","","","html-keyboard-response","295","1198015","0.0-24.0-0.5","672976d49260ec8c490d70f6","6790928bebf0b969fc839b02","67929d22457fc8cbfa645ce1","passed","","","","","","","","","","","","","","","","","ballFalling","322.3","379.3711431702997","245.25","1","fallScene","true","","","","","102","",""
