"success","timeout","failed_images","failed_audio","failed_video","trial_type","trial_index","time_elapsed","internal_node_id","subject_id","study_id","session_id","practiceTestResult","view_history","rt","width","height","webaudio","browser","browser_version","mobile","os","fullscreen","vsync_rate","webcam","microphone","url","stimulus","response","task","ball_X","obstacle_groundTruth_x","obstacle_groundTruth_y","stimulus_idx","trial_name","flipped","choice","timeLimit","question_order","comprehensionCheck","practiceTest","currentTrial","obstacle_choice_x","obstacle_choice_y"
"true","false","[]","[]","[]","preload","0","1151","0.0-0.0","6782480e666627776dd0df39","6790928bebf0b969fc839b02","67929ca8197c86e1d188b06d","passed","","","","","","","","","","","","","","","","","","","","","","","","","","","","","","",""
"","","","","","instructions","1","74170","0.0-1.0","6782480e666627776dd0df39","6790928bebf0b969fc839b02","67929ca8197c86e1d188b06d","passed","[{""page_index"":0,""viewing_time"":73017}]","73017","","","","","","","","","","","","","","","","","","","","","","","","","","","","",""
"","","","","","browser-check","2","75414","0.0-2.0","6782480e666627776dd0df39","6790928bebf0b969fc839b02","67929ca8197c86e1d188b06d","passed","","","1366","641","true","chrome","131.0.0","false","Windows 10","true","48.49","true","true","","","","","","","","","","","","","","","","","",""
"","","","","","external-html","3","99274","0.0-3.0","6782480e666627776dd0df39","6790928bebf0b969fc839b02","67929ca8197c86e1d188b06d","passed","","21794","","","","","","","","","","","","consent.html","","","","","","","","","","","","","","","","",""
"true","","","","","fullscreen","4","107351","0.0-4.0","6782480e666627776dd0df39","6790928bebf0b969fc839b02","67929ca8197c86e1d188b06d","passed","","7775","","","","","","","","","","","","","","","","","","","","","","","","","","","","",""
"","","","","","browser-check","5","108562","0.0-5.0","6782480e666627776dd0df39","6790928bebf0b969fc839b02","67929ca8197c86e1d188b06d","passed","","","1366","768","true","chrome","131.0.0","false","Windows 10","true","49.67","true","true","","","","","","","","","","","","","","","","","",""
"","","","","","html-keyboard-response","6","122780","0.0-6.0","6782480e666627776dd0df39","6790928bebf0b969fc839b02","67929ca8197c86e1d188b06d","passed","","14217","","","","","","","","","","","","","<p><b>This experiment requires keyboard input.</b></p> 
        <p><b>To ensure your response will be recorded successfully, please press 'Space' to continue.</b></p>
        <p>If you can't proceed, you won't be able to complete this study.</p>
        <p></p> <!-- Blank line -->
        <p id=""blinking-text"" style=""font-weight; animation: blink 2s infinite;"">Press Space to continue</p>
        <style>
            @keyframes blink {
                50% {
                    opacity: 0;
                }
            }
        </style>"," ","","","","","","","","","","","","","","",""
"","","","","","html-keyboard-response","7","205376","0.0-7.0","6782480e666627776dd0df39","6790928bebf0b969fc839b02","67929ca8197c86e1d188b06d","passed","","82594","","","","","","","","","","","","","<p><b>This experiment requires keyboard input.</b></p> 
        <p><b>To ensure your response will be recorded successfully, please press the 'f' key to continue.</b></p>
        <p>If you can't proceed, you won't be able to complete this study.</p>
        <p></p> <!-- Blank line -->
        <p id=""blinking-text"" style=""font-weight; animation: blink 2s infinite;"">Press f to continue</p>
        <style>
            @keyframes blink {
                50% {
                    opacity: 0;
                }
            }
        </style>","f","","","","","","","","","","","","","","",""
"","","","","","html-keyboard-response","8","215311","0.0-8.0","6782480e666627776dd0df39","6790928bebf0b969fc839b02","67929ca8197c86e1d188b06d","passed","","9935","","","","","","","","","","","","","<p><b>This experiment requires keyboard input.</b></p> 
        <p><b>To ensure your response will be recorded successfully, please press the 'j' key to continue.</b></p>
        <p>If you can't proceed, you won't be able to complete this study.</p>
        <p></p> <!-- Blank line -->
        <p id=""blinking-text"" style=""font-weight; animation: blink 2s infinite;"">Press j to continue</p>
        <style>
            @keyframes blink {
                50% {
                    opacity: 0;
                }
            }
        </style>","j","","","","","","","","","","","","","","",""
"","","","","","browser-check","9","247344","0.0-9.0","6782480e666627776dd0df39","6790928bebf0b969fc839b02","67929ca8197c86e1d188b06d","passed","","","1366","768","true","chrome","131.0.0","false","Windows 10","true","38.73","true","true","","","","","","","","","","","","","","","","","",""
"","","","","","survey-text","10","256618","0.0-10.0","6782480e666627776dd0df39","6790928bebf0b969fc839b02","67929ca8197c86e1d188b06d","passed","","9270","","","","","","","","","","","","","","{""prolificID"":""6782480e666627776dd0df39""}","","","","","","","","","","","","","","",""
"","","","","","instructions","11","390378","0.0-11.0-0.0-0.0","6782480e666627776dd0df39","6790928bebf0b969fc839b02","67929ca8197c86e1d188b06d","passed","[{""page_index"":0,""viewing_time"":62326},{""page_index"":1,""viewing_time"":35776},{""page_index"":2,""viewing_time"":14168},{""page_index"":3,""viewing_time"":21488}]","133758","","","","","","","","","","","","","","","","","","","","","","","","","","","","",""
"","","","","","html-keyboard-response","12","430381","0.0-11.0-0.0-1.0","6782480e666627776dd0df39","6790928bebf0b969fc839b02","67929ca8197c86e1d188b06d","passed","","39491","","","","","","","","","","","","","<br>Remember! After a ball falls, the screen will disappear, and you'll decide if the proposed position is where the hidden triangle was. <br>You will now practice this by watching a few videos and making decisions.<p>To respond:<br style=""margin-bottom: 5px; text-indent: -20px; padding-left: 20px;"">- Press <b style=""color: #12AD2B;"">J for Yes</b>, if you think the triangle is in the correct position.<br style=""margin-top: 0; text-indent: -20px; padding-left: 20px;"">- Press <b style=""color: orange;"">F for No</b>, if you think the triangle is not in the correct position.</p><p>In this practice round, there is no time limit. Focus on getting comfortable with the task first.<br>Press either J or F to begin your practice trials.</p><img src = ""YesOrNo_instruction.png"" style=""width: 65%;""></img>","j","","","","","","","","","","","","","","",""
"","","","","","html-keyboard-response","13","431925","0.0-11.0-0.0-2.0-0.0","6782480e666627776dd0df39","6790928bebf0b969fc839b02","67929ca8197c86e1d188b06d","passed","","","","","","","","","","","","","","","","","ballFalling_prac","441","414","302","5","fallScene","true","","","","","","","",""
"","","","","","html-keyboard-response","14","436185","0.0-11.0-0.0-2.0-1.0","6782480e666627776dd0df39","6790928bebf0b969fc839b02","67929ca8197c86e1d188b06d","passed","","4243","","","","","","","","","","","","","","j","yesOrNo_prac_noTimed","","","","5","","","close gt","NA","","","","","",""
"","","","","","html-keyboard-response","15","438290","0.0-11.0-0.0-2.0-0.1","6782480e666627776dd0df39","6790928bebf0b969fc839b02","67929ca8197c86e1d188b06d","passed","","","","","","","","","","","","","","","","","ballFalling_prac","660","666","350","3","fallScene","false","","","","","","","",""
"","","","","","html-keyboard-response","16","441747","0.0-11.0-0.0-2.0-1.1","6782480e666627776dd0df39","6790928bebf0b969fc839b02","67929ca8197c86e1d188b06d","passed","","3452","","","","","","","","","","","","","","f","yesOrNo_prac_noTimed","","","","3","","","wrong direction","NA","","","","","",""
"","","","","","html-keyboard-response","17","443306","0.0-11.0-0.0-2.0-0.2","6782480e666627776dd0df39","6790928bebf0b969fc839b02","67929ca8197c86e1d188b06d","passed","","","","","","","","","","","","","","","","","ballFalling_prac","416","464","296","1","fallScene","false","","","","","","","",""
"","","","","","html-keyboard-response","18","444650","0.0-11.0-0.0-2.0-1.2","6782480e666627776dd0df39","6790928bebf0b969fc839b02","67929ca8197c86e1d188b06d","passed","","1339","","","","","","","","","","","","","","j","yesOrNo_prac_noTimed","","","","1","","","gt","NA","","","","","",""
"","","","","","instructions","19","495193","0.0-11.0-0.0-3.0","6782480e666627776dd0df39","6790928bebf0b969fc839b02","67929ca8197c86e1d188b06d","passed","[{""page_index"":0,""viewing_time"":41035},{""page_index"":1,""viewing_time"":9504}]","50539","","","","","","","","","","","","","","","","","","","","","","","","","","","","",""
"","","","","","html-button-response","20","511946","0.0-11.0-0.0-4.0","6782480e666627776dd0df39","6790928bebf0b969fc839b02","67929ca8197c86e1d188b06d","passed","","16249","","","","","","","","","","","","","<p>To make sure you understood the task, we just have a <b>brief quiz</b> here.</p><p>If you need to review the instructions, click 'Previous'.</p><p>It's important to understand the task to do the study, so you have to pass the quiz to move to the study.</p>","1","","","","","","","","","","","","","","",""
"","","","","","survey-multi-choice","21","567802","0.0-11.0-1.0-0.0","6782480e666627776dd0df39","6790928bebf0b969fc839b02","67929ca8197c86e1d188b06d","passed","","55854","","","","","","","","","","","","","","{""generalProcedure"":""Watch a video of a ball falling, some of it behind a gray screen. After each video, decide if the triangle is at the spot where the ball hit the triangle behind the screen. There is time limit for the response.""}","","","","","","","","","","[0]","","","","",""
"","","","","","survey-multi-choice","22","578633","0.0-11.0-1.0-1.0","6782480e666627776dd0df39","6790928bebf0b969fc839b02","67929ca8197c86e1d188b06d","passed","","10830","","","","","","","","","","","","","","{""checkBallHitObstacle"":""Yes.""}","","","","","","","","","","[0]","","","","",""
"","","","","","survey-multi-choice","23","590393","0.0-11.0-1.0-2.0","6782480e666627776dd0df39","6790928bebf0b969fc839b02","67929ca8197c86e1d188b06d","passed","","11759","","","","","","","","","","","","","","{""checkTriangleVisibility"":""No, the triangle is hidden behind the gray screen.""}","","","","","","","","","","[0]","","","","",""
"","","","","","survey-multi-choice","24","605073","0.0-11.0-1.0-3.0","6782480e666627776dd0df39","6790928bebf0b969fc839b02","67929ca8197c86e1d188b06d","passed","","14679","","","","","","","","","","","","","","{""checkTimedResponse"":""Your response will not be recorded, and the trial will move to the next one.""}","","","","","","","","","","[0]","","","","",""
"","","","","","survey-multi-choice","25","618009","0.0-11.0-1.0-4.0","6782480e666627776dd0df39","6790928bebf0b969fc839b02","67929ca8197c86e1d188b06d","passed","","12935","","","","","","","","","","","","","","{""checkTimeBlockNotice"":""At the beginning of each block.""}","","","","","","","","","","[0]","","","","",""
"","","","","","survey-multi-choice","26","646745","0.0-11.0-1.0-5.0","6782480e666627776dd0df39","6790928bebf0b969fc839b02","67929ca8197c86e1d188b06d","passed","","28735","","","","","","","","","","","","","","{""checkTimeBlockSameness"":""No, the time limit changes for each trial within a block.""}","","","","","","","","","","[0]","","","","",""
"","","","","","survey-multi-choice","27","689609","0.0-11.0-1.0-6.0","6782480e666627776dd0df39","6790928bebf0b969fc839b02","67929ca8197c86e1d188b06d","passed","","42862","","","","","","","","","","","","","","{""checkTrianglePrecision"":""No. The proposed purple triangle is not in the correct position because it doesn't match the location of the white triangle exactly.""}","","","","","","","","","","[0]","","","","",""
"","","","","","html-button-response","28","694585","0.0-11.0-2.0-0.0","6782480e666627776dd0df39","6790928bebf0b969fc839b02","67929ca8197c86e1d188b06d","passed","","4974","","","","","","","","","","","","","<p>Oops! You did not pass the quiz.</p><p>You will now repeat the instructions and practice.</p>","0","","","","","","","","","","","failed","","","",""
"","","","","","instructions","29","806122","0.0-11.1-0.1-0.1","6782480e666627776dd0df39","6790928bebf0b969fc839b02","67929ca8197c86e1d188b06d","passed","[{""page_index"":0,""viewing_time"":42510},{""page_index"":1,""viewing_time"":38904},{""page_index"":2,""viewing_time"":14536},{""page_index"":3,""viewing_time"":15585}]","111535","","","","","","","","","","","","","","","","","","","","","","","","","","","","",""
"","","","","","html-keyboard-response","30","835766","0.0-11.1-0.1-1.1","6782480e666627776dd0df39","6790928bebf0b969fc839b02","67929ca8197c86e1d188b06d","passed","","29138","","","","","","","","","","","","","<br>Remember! After a ball falls, the screen will disappear, and you'll decide if the proposed position is where the hidden triangle was. <br>You will now practice this by watching a few videos and making decisions.<p>To respond:<br style=""margin-bottom: 5px; text-indent: -20px; padding-left: 20px;"">- Press <b style=""color: #12AD2B;"">J for Yes</b>, if you think the triangle is in the correct position.<br style=""margin-top: 0; text-indent: -20px; padding-left: 20px;"">- Press <b style=""color: orange;"">F for No</b>, if you think the triangle is not in the correct position.</p><p>In this practice round, there is no time limit. Focus on getting comfortable with the task first.<br>Press either J or F to begin your practice trials.</p><img src = ""YesOrNo_instruction.png"" style=""width: 65%;""></img>","f","","","","","","","","","","","","","","",""
"","","","","","html-keyboard-response","31","837872","0.0-11.1-0.1-2.1-0.3","6782480e666627776dd0df39","6790928bebf0b969fc839b02","67929ca8197c86e1d188b06d","passed","","","","","","","","","","","","","","","","","ballFalling_prac","660","666","350","3","fallScene","false","","","","","","","",""
"","","","","","html-keyboard-response","32","847247","0.0-11.1-0.1-2.1-1.3","6782480e666627776dd0df39","6790928bebf0b969fc839b02","67929ca8197c86e1d188b06d","passed","","9369","","","","","","","","","","","","","","f","yesOrNo_prac_noTimed","","","","3","","","wrong direction","NA","","","","","",""
"","","","","","html-keyboard-response","33","848804","0.0-11.1-0.1-2.1-0.4","6782480e666627776dd0df39","6790928bebf0b969fc839b02","67929ca8197c86e1d188b06d","passed","","","","","","","","","","","","","","","","","ballFalling_prac","416","464","296","1","fallScene","false","","","","","","","",""
"","","","","","html-keyboard-response","34","852550","0.0-11.1-0.1-2.1-1.4","6782480e666627776dd0df39","6790928bebf0b969fc839b02","67929ca8197c86e1d188b06d","passed","","3741","","","","","","","","","","","","","","j","yesOrNo_prac_noTimed","","","","1","","","gt","NA","","","","","",""
"","","","","","html-keyboard-response","35","854121","0.0-11.1-0.1-2.1-0.5","6782480e666627776dd0df39","6790928bebf0b969fc839b02","67929ca8197c86e1d188b06d","passed","","","","","","","","","","","","","","","","","ballFalling_prac","441","414","302","5","fallScene","true","","","","","","","",""
"","","","","","html-keyboard-response","36","862939","0.0-11.1-0.1-2.1-1.5","6782480e666627776dd0df39","6790928bebf0b969fc839b02","67929ca8197c86e1d188b06d","passed","","8813","","","","","","","","","","","","","","j","yesOrNo_prac_noTimed","","","","5","","","close gt","NA","","","","","",""
"","","","","","instructions","37","922584","0.0-11.1-0.1-3.1","6782480e666627776dd0df39","6790928bebf0b969fc839b02","67929ca8197c86e1d188b06d","passed","[{""page_index"":0,""viewing_time"":37668},{""page_index"":1,""viewing_time"":21976}]","59644","","","","","","","","","","","","","","","","","","","","","","","","","","","","",""
"","","","","","html-button-response","38","1635907","0.0-11.1-0.1-4.1","6782480e666627776dd0df39","6790928bebf0b969fc839b02","67929ca8197c86e1d188b06d","passed","","712807","","","","","","","","","","","","","<p>To make sure you understood the task, we just have a <b>brief quiz</b> here.</p><p>If you need to review the instructions, click 'Previous'.</p><p>It's important to understand the task to do the study, so you have to pass the quiz to move to the study.</p>","1","","","","","","","","","","","","","","",""
"","","","","","survey-multi-choice","39","1673953","0.0-11.1-1.1-0.1","6782480e666627776dd0df39","6790928bebf0b969fc839b02","67929ca8197c86e1d188b06d","passed","","38044","","","","","","","","","","","","","","{""generalProcedure"":""Watch a video of a ball falling, some of it behind a gray screen. After each video, decide if the triangle is at the spot where the ball hit the triangle behind the screen. There is time limit for the response.""}","","","","","","","","","","[0]","","","","",""
"","","","","","survey-multi-choice","40","1684041","0.0-11.1-1.1-1.1","6782480e666627776dd0df39","6790928bebf0b969fc839b02","67929ca8197c86e1d188b06d","passed","","10087","","","","","","","","","","","","","","{""checkBallHitObstacle"":""Yes.""}","","","","","","","","","","[0]","","","","",""
"","","","","","survey-multi-choice","41","1691833","0.0-11.1-1.1-2.1","6782480e666627776dd0df39","6790928bebf0b969fc839b02","67929ca8197c86e1d188b06d","passed","","7791","","","","","","","","","","","","","","{""checkTriangleVisibility"":""No, the triangle is hidden behind the gray screen.""}","","","","","","","","","","[0]","","","","",""
"","","","","","survey-multi-choice","42","1706929","0.0-11.1-1.1-3.1","6782480e666627776dd0df39","6790928bebf0b969fc839b02","67929ca8197c86e1d188b06d","passed","","15095","","","","","","","","","","","","","","{""checkTimedResponse"":""Your response will not be recorded, and the trial will move to the next one.""}","","","","","","","","","","[0]","","","","",""
"","","","","","survey-multi-choice","43","1720017","0.0-11.1-1.1-4.1","6782480e666627776dd0df39","6790928bebf0b969fc839b02","67929ca8197c86e1d188b06d","passed","","13087","","","","","","","","","","","","","","{""checkTimeBlockNotice"":""At the beginning of each block.""}","","","","","","","","","","[0]","","","","",""
"","","","","","survey-multi-choice","44","1735921","0.0-11.1-1.1-5.1","6782480e666627776dd0df39","6790928bebf0b969fc839b02","67929ca8197c86e1d188b06d","passed","","15903","","","","","","","","","","","","","","{""checkTimeBlockSameness"":""Yes, the time limit is the same for all trials within a block.""}","","","","","","","","","","[0]","","","","",""
"","","","","","survey-multi-choice","45","1773505","0.0-11.1-1.1-6.1","6782480e666627776dd0df39","6790928bebf0b969fc839b02","67929ca8197c86e1d188b06d","passed","","37583","","","","","","","","","","","","","","{""checkTrianglePrecision"":""No. The proposed purple triangle is not in the correct position because it doesn't match the location of the white triangle exactly.""}","","","","","","","","","","[0]","","","","",""
"","","","","","instructions","46","1817241","0.0-12.0","6782480e666627776dd0df39","6790928bebf0b969fc839b02","67929ca8197c86e1d188b06d","passed","[{""page_index"":0,""viewing_time"":20398},{""page_index"":1,""viewing_time"":9352},{""page_index"":2,""viewing_time"":5880},{""page_index"":3,""viewing_time"":8104}]","43735","","","","","","","","","","","","","","","","","","","","","","","","","","","","",""
"","","","","","instructions","47","1845160","0.0-13.0-0.0","6782480e666627776dd0df39","6790928bebf0b969fc839b02","67929ca8197c86e1d188b06d","passed","[{""page_index"":0,""viewing_time"":27919}]","27919","","","","","","","","","","","","","","","","","","","","","","","","","","","","",""
"","","","","","html-keyboard-response","48","1849586","0.0-13.0-1.0","6782480e666627776dd0df39","6790928bebf0b969fc839b02","67929ca8197c86e1d188b06d","passed","","4424","","","","","","","","","","","","","<p><span style=""font-size:40px;"">Practice BLOCK 1</span></p><p><span style=""font-size:25px;"">You have <b style=""color: #FF644F;""><strong>3 second(s)</strong></b> to respond to the following trials.</span><br></p><p id=""blinking-text"" style=""font-weight; animation: blink 2s infinite;"">Press Space to continue</p><style>
                    @keyframes blink {
                        50% {
                            opacity: 0;
                        }
                    }
                </style>"," ","","","","","","","","","","","","","","",""
"","","","","","html-keyboard-response","49","1851163","0.0-13.0-2.0-0.0","6782480e666627776dd0df39","6790928bebf0b969fc839b02","67929ca8197c86e1d188b06d","passed","","","","","","","","","","","","","","","","","ballFalling_prac","660","610","263","4","fallScene","false","","","","","","","",""
"","","","","","html-keyboard-response","50","1854168","0.0-13.0-2.0-1.0","6782480e666627776dd0df39","6790928bebf0b969fc839b02","67929ca8197c86e1d188b06d","passed","","null","","","","","","","","","","","","","","null","yesOrNo_prac","","","","4","","","gt","3000","","","","","",""
"","","","","","html-keyboard-response","51","1855730","0.0-13.0-2.0-0.1","6782480e666627776dd0df39","6790928bebf0b969fc839b02","67929ca8197c86e1d188b06d","passed","","","","","","","","","","","","","","","","","ballFalling_prac","584","536","296","1","fallScene","true","","","","","","","",""
"","","","","","html-keyboard-response","52","1858735","0.0-13.0-2.0-1.1","6782480e666627776dd0df39","6790928bebf0b969fc839b02","67929ca8197c86e1d188b06d","passed","","2898","","","","","","","","","","","","","","j","yesOrNo_prac","","","","1","","","close gt","3000","","","","","",""
"","","","","","html-keyboard-response","53","1860296","0.0-13.0-2.0-0.2","6782480e666627776dd0df39","6790928bebf0b969fc839b02","67929ca8197c86e1d188b06d","passed","","","","","","","","","","","","","","","","","ballFalling_prac","416","464","296","1","fallScene","false","","","","","","","",""
"","","","","","html-keyboard-response","54","1863302","0.0-13.0-2.0-1.2","6782480e666627776dd0df39","6790928bebf0b969fc839b02","67929ca8197c86e1d188b06d","passed","","2724","","","","","","","","","","","","","","f","yesOrNo_prac","","","","1","","","far gt","3000","","","","","",""
"","","","","","html-keyboard-response","55","1868860","0.0-13.0-3.0","6782480e666627776dd0df39","6790928bebf0b969fc839b02","67929ca8197c86e1d188b06d","passed","","5557","","","","","","","","","","","","","<p><span style=""font-size:40px;"">Practice BLOCK 2</span></p><p><span style=""font-size:25px;"">You have <b style=""color: #FF644F;""><strong>1 second(s)</strong></b> to respond to the following trials.</span><br></p><p id=""blinking-text"" style=""font-weight; animation: blink 2s infinite;"">Press Space to continue</p><style>
                    @keyframes blink {
                        50% {
                            opacity: 0;
                        }
                    }
                </style>"," ","","","","","","","","","","","","","","",""
"","","","","","html-keyboard-response","56","1870428","0.0-13.0-4.0-0.0","6782480e666627776dd0df39","6790928bebf0b969fc839b02","67929ca8197c86e1d188b06d","passed","","","","","","","","","","","","","","","","","ballFalling_prac","441","500","317","6","fallScene","true","","","","","","","",""
"","","","","","html-keyboard-response","57","1871436","0.0-13.0-4.0-1.0","6782480e666627776dd0df39","6790928bebf0b969fc839b02","67929ca8197c86e1d188b06d","passed","","null","","","","","","","","","","","","","","null","yesOrNo_prac","","","","6","","","gt","1000","","","","","",""
"","","","","","html-keyboard-response","58","1873546","0.0-13.0-4.0-0.1","6782480e666627776dd0df39","6790928bebf0b969fc839b02","67929ca8197c86e1d188b06d","passed","","","","","","","","","","","","","","","","","ballFalling_prac","340","334","350","3","fallScene","true","","","","","","","",""
"","","","","","html-keyboard-response","59","1874552","0.0-13.0-4.0-1.1","6782480e666627776dd0df39","6790928bebf0b969fc839b02","67929ca8197c86e1d188b06d","passed","","null","","","","","","","","","","","","","","null","yesOrNo_prac","","","","3","","","close gt","1000","","","","","",""
"","","","","","html-keyboard-response","60","1876129","0.0-13.0-4.0-0.2","6782480e666627776dd0df39","6790928bebf0b969fc839b02","67929ca8197c86e1d188b06d","passed","","","","","","","","","","","","","","","","","ballFalling_prac","660","610","263","4","fallScene","false","","","","","","","",""
"","","","","","html-keyboard-response","61","1877136","0.0-13.0-4.0-1.2","6782480e666627776dd0df39","6790928bebf0b969fc839b02","67929ca8197c86e1d188b06d","passed","","null","","","","","","","","","","","","","","null","yesOrNo_prac","","","","4","","","far gt","1000","","","","","",""
"","","","","","instructions","62","1896336","0.0-13.0-5.0","6782480e666627776dd0df39","6790928bebf0b969fc839b02","67929ca8197c86e1d188b06d","passed","[{""page_index"":0,""viewing_time"":19199}]","19199","","","","","","","","","","","","","","","","","","","","","","","","","","","","",""
"","","","","","html-keyboard-response","63","1901497","0.0-13.0-6.0","6782480e666627776dd0df39","6790928bebf0b969fc839b02","67929ca8197c86e1d188b06d","passed","","5161","","","","","","","","","","","","","<p><span style=""font-size:40px;"">Practice Test BLOCK 1</span></p><p><span style=""font-size:25px;"">You have <b style=""color: #FF644F;""><strong>1 second(s)</strong></b> to respond to the following trials.</span><br></p><p id=""blinking-text"" style=""font-weight; animation: blink 2s infinite;"">Press Space to continue</p><style>
                    @keyframes blink {
                        50% {
                            opacity: 0;
                        }
                    }
                </style>"," ","","","","","","","","","","","","","","",""
"","","","","","html-keyboard-response","64","1903077","0.0-13.0-7.0-0.0","6782480e666627776dd0df39","6790928bebf0b969fc839b02","67929ca8197c86e1d188b06d","passed","","","","","","","","","","","","","","","","","ballFalling_prac","559","586","302","5","fallScene","false","","","","","","","",""
"","","","","","html-keyboard-response","65","1904083","0.0-13.0-7.0-1.0","6782480e666627776dd0df39","6790928bebf0b969fc839b02","67929ca8197c86e1d188b06d","passed","","null","","","","","","","","","","","","","","null","yesOrNo_prac","","","","5","","","gt","1000","","","","","",""
"","","","","","html-keyboard-response","66","1905645","0.0-13.0-7.0-0.1","6782480e666627776dd0df39","6790928bebf0b969fc839b02","67929ca8197c86e1d188b06d","passed","","","","","","","","","","","","","","","","","ballFalling_prac","441","500","317","6","fallScene","true","","","","","","","",""
"","","","","","html-keyboard-response","67","1906649","0.0-13.0-7.0-1.1","6782480e666627776dd0df39","6790928bebf0b969fc839b02","67929ca8197c86e1d188b06d","passed","","null","","","","","","","","","","","","","","null","yesOrNo_prac","","","","6","","","close gt","1000","","","","","",""
"","","","","","html-keyboard-response","68","1908227","0.0-13.0-7.0-0.2","6782480e666627776dd0df39","6790928bebf0b969fc839b02","67929ca8197c86e1d188b06d","passed","","","","","","","","","","","","","","","","","ballFalling_prac","340","390","263","4","fallScene","true","","","","","","","",""
"","","","","","html-keyboard-response","69","1909233","0.0-13.0-7.0-1.2","6782480e666627776dd0df39","6790928bebf0b969fc839b02","67929ca8197c86e1d188b06d","passed","","687","","","","","","","","","","","","","","f","yesOrNo_prac","","","","4","","","far gt","1000","","","","","",""
"","","","","","html-keyboard-response","70","1913043","0.0-13.0-8.0","6782480e666627776dd0df39","6790928bebf0b969fc839b02","67929ca8197c86e1d188b06d","passed","","3808","","","","","","","","","","","","","<p><span style=""font-size:40px;"">Practice Test BLOCK 2</span></p><p><span style=""font-size:25px;"">You have <b style=""color: #FF644F;""><strong>3 second(s)</strong></b> to respond to the following trials.</span><br></p><p id=""blinking-text"" style=""font-weight; animation: blink 2s infinite;"">Press Space to continue</p><style>
                    @keyframes blink {
                        50% {
                            opacity: 0;
                        }
                    }
                </style>"," ","","","","","","","","","","","","","","",""
"","","","","","html-keyboard-response","71","1914625","0.0-13.0-9.0-0.0","6782480e666627776dd0df39","6790928bebf0b969fc839b02","67929ca8197c86e1d188b06d","passed","","","","","","","","","","","","","","","","","ballFalling_prac","340","390","263","4","fallScene","true","","","","","","","",""
"","","","","","html-keyboard-response","72","1917629","0.0-13.0-9.0-1.0","6782480e666627776dd0df39","6790928bebf0b969fc839b02","67929ca8197c86e1d188b06d","passed","","696","","","","","","","","","","","","","","j","yesOrNo_prac","","","","4","","","close gt","3000","","","","","",""
"","","","","","html-keyboard-response","73","1919210","0.0-13.0-9.0-0.1","6782480e666627776dd0df39","6790928bebf0b969fc839b02","67929ca8197c86e1d188b06d","passed","","","","","","","","","","","","","","","","","ballFalling_prac","416","365","249","2","fallScene","false","","","","","","","",""
"","","","","","html-keyboard-response","74","1922215","0.0-13.0-9.0-1.1","6782480e666627776dd0df39","6790928bebf0b969fc839b02","67929ca8197c86e1d188b06d","passed","","814","","","","","","","","","","","","","","f","yesOrNo_prac","","","","2","","","gt","3000","","","","","",""
"","","","","","html-keyboard-response","75","1923793","0.0-13.0-9.0-0.2","6782480e666627776dd0df39","6790928bebf0b969fc839b02","67929ca8197c86e1d188b06d","passed","","","","","","","","","","","","","","","","","ballFalling_prac","559","586","302","5","fallScene","false","","","","","","","",""
"","","","","","html-keyboard-response","76","1926807","0.0-13.0-9.0-1.2","6782480e666627776dd0df39","6790928bebf0b969fc839b02","67929ca8197c86e1d188b06d","passed","","937","","","","","","","","","","","","","","f","yesOrNo_prac","","","","5","","","far gt","3000","","","","","",""
"","","","","","html-button-response","77","1934576","0.0-13.0-10.0-0.0","6782480e666627776dd0df39","6790928bebf0b969fc839b02","67929ca8197c86e1d188b06d","passed","","7766","","","","","","","","","","","","","<p>Oops! You did not pass the practice test. You missed 2 out of 6 trials.</p><p>You will now repeat the practice and the test.</p>","0","","","","","","","","","","","","failed","","",""
"","","","","","instructions","78","1936472","0.0-13.1-0.1","6782480e666627776dd0df39","6790928bebf0b969fc839b02","67929ca8197c86e1d188b06d","passed","[{""page_index"":0,""viewing_time"":1894}]","1895","","","","","","","","","","","","","","","","","","","","","","","","","","","","",""
"","","","","","html-keyboard-response","79","1940135","0.0-13.1-1.1","6782480e666627776dd0df39","6790928bebf0b969fc839b02","67929ca8197c86e1d188b06d","passed","","3662","","","","","","","","","","","","","<p><span style=""font-size:40px;"">Practice BLOCK 1</span></p><p><span style=""font-size:25px;"">You have <b style=""color: #FF644F;""><strong>3 second(s)</strong></b> to respond to the following trials.</span><br></p><p id=""blinking-text"" style=""font-weight; animation: blink 2s infinite;"">Press Space to continue</p><style>
                    @keyframes blink {
                        50% {
                            opacity: 0;
                        }
                    }
                </style>"," ","","","","","","","","","","","","","","",""
"","","","","","html-keyboard-response","80","1941707","0.0-13.1-2.1-0.3","6782480e666627776dd0df39","6790928bebf0b969fc839b02","67929ca8197c86e1d188b06d","passed","","","","","","","","","","","","","","","","","ballFalling_prac","660","610","263","4","fallScene","false","","","","","","","",""
"","","","","","html-keyboard-response","81","1944714","0.0-13.1-2.1-1.3","6782480e666627776dd0df39","6790928bebf0b969fc839b02","67929ca8197c86e1d188b06d","passed","","899","","","","","","","","","","","","","","f","yesOrNo_prac","","","","4","","","gt","3000","","","","","",""
"","","","","","html-keyboard-response","82","1946277","0.0-13.1-2.1-0.4","6782480e666627776dd0df39","6790928bebf0b969fc839b02","67929ca8197c86e1d188b06d","passed","","","","","","","","","","","","","","","","","ballFalling_prac","584","536","296","1","fallScene","true","","","","","","","",""
"","","","","","html-keyboard-response","83","1949281","0.0-13.1-2.1-1.4","6782480e666627776dd0df39","6790928bebf0b969fc839b02","67929ca8197c86e1d188b06d","passed","","820","","","","","","","","","","","","","","j","yesOrNo_prac","","","","1","","","close gt","3000","","","","","",""
"","","","","","html-keyboard-response","84","1950842","0.0-13.1-2.1-0.5","6782480e666627776dd0df39","6790928bebf0b969fc839b02","67929ca8197c86e1d188b06d","passed","","","","","","","","","","","","","","","","","ballFalling_prac","416","464","296","1","fallScene","false","","","","","","","",""
"","","","","","html-keyboard-response","85","1953855","0.0-13.1-2.1-1.5","6782480e666627776dd0df39","6790928bebf0b969fc839b02","67929ca8197c86e1d188b06d","passed","","1133","","","","","","","","","","","","","","f","yesOrNo_prac","","","","1","","","far gt","3000","","","","","",""
"","","","","","html-keyboard-response","86","1956527","0.0-13.1-3.1","6782480e666627776dd0df39","6790928bebf0b969fc839b02","67929ca8197c86e1d188b06d","passed","","2670","","","","","","","","","","","","","<p><span style=""font-size:40px;"">Practice BLOCK 2</span></p><p><span style=""font-size:25px;"">You have <b style=""color: #FF644F;""><strong>1 second(s)</strong></b> to respond to the following trials.</span><br></p><p id=""blinking-text"" style=""font-weight; animation: blink 2s infinite;"">Press Space to continue</p><style>
                    @keyframes blink {
                        50% {
                            opacity: 0;
                        }
                    }
                </style>"," ","","","","","","","","","","","","","","",""
"","","","","","html-keyboard-response","87","1958109","0.0-13.1-4.1-0.3","6782480e666627776dd0df39","6790928bebf0b969fc839b02","67929ca8197c86e1d188b06d","passed","","","","","","","","","","","","","","","","","ballFalling_prac","660","610","263","4","fallScene","false","","","","","","","",""
"","","","","","html-keyboard-response","88","1959114","0.0-13.1-4.1-1.3","6782480e666627776dd0df39","6790928bebf0b969fc839b02","67929ca8197c86e1d188b06d","passed","","null","","","","","","","","","","","","","","null","yesOrNo_prac","","","","4","","","far gt","1000","","","","","",""
"","","","","","html-keyboard-response","89","1960676","0.0-13.1-4.1-0.4","6782480e666627776dd0df39","6790928bebf0b969fc839b02","67929ca8197c86e1d188b06d","passed","","","","","","","","","","","","","","","","","ballFalling_prac","441","500","317","6","fallScene","true","","","","","","","",""
"","","","","","html-keyboard-response","90","1961692","0.0-13.1-4.1-1.4","6782480e666627776dd0df39","6790928bebf0b969fc839b02","67929ca8197c86e1d188b06d","passed","","997","","","","","","","","","","","","","","f","yesOrNo_prac","","","","6","","","gt","1000","","","","","",""
"","","","","","html-keyboard-response","91","1963809","0.0-13.1-4.1-0.5","6782480e666627776dd0df39","6790928bebf0b969fc839b02","67929ca8197c86e1d188b06d","passed","","","","","","","","","","","","","","","","","ballFalling_prac","340","334","350","3","fallScene","true","","","","","","","",""
"","","","","","html-keyboard-response","92","1964816","0.0-13.1-4.1-1.5","6782480e666627776dd0df39","6790928bebf0b969fc839b02","67929ca8197c86e1d188b06d","passed","","738","","","","","","","","","","","","","","f","yesOrNo_prac","","","","3","","","close gt","1000","","","","","",""
"","","","","","instructions","93","1976249","0.0-13.1-5.1","6782480e666627776dd0df39","6790928bebf0b969fc839b02","67929ca8197c86e1d188b06d","passed","[{""page_index"":0,""viewing_time"":11432}]","11432","","","","","","","","","","","","","","","","","","","","","","","","","","","","",""
"","","","","","html-keyboard-response","94","1981611","0.0-13.1-6.1","6782480e666627776dd0df39","6790928bebf0b969fc839b02","67929ca8197c86e1d188b06d","passed","","5362","","","","","","","","","","","","","<p><span style=""font-size:40px;"">Practice Test BLOCK 1</span></p><p><span style=""font-size:25px;"">You have <b style=""color: #FF644F;""><strong>1 second(s)</strong></b> to respond to the following trials.</span><br></p><p id=""blinking-text"" style=""font-weight; animation: blink 2s infinite;"">Press Space to continue</p><style>
                    @keyframes blink {
                        50% {
                            opacity: 0;
                        }
                    }
                </style>"," ","","","","","","","","","","","","","","",""
"","","","","","html-keyboard-response","95","1983190","0.0-13.1-7.1-0.3","6782480e666627776dd0df39","6790928bebf0b969fc839b02","67929ca8197c86e1d188b06d","passed","","","","","","","","","","","","","","","","","ballFalling_prac","340","390","263","4","fallScene","true","","","","","","","",""
"","","","","","html-keyboard-response","96","1984197","0.0-13.1-7.1-1.3","6782480e666627776dd0df39","6790928bebf0b969fc839b02","67929ca8197c86e1d188b06d","passed","","null","","","","","","","","","","","","","","null","yesOrNo_prac","","","","4","","","far gt","1000","","","","","",""
"","","","","","html-keyboard-response","97","1985774","0.0-13.1-7.1-0.4","6782480e666627776dd0df39","6790928bebf0b969fc839b02","67929ca8197c86e1d188b06d","passed","","","","","","","","","","","","","","","","","ballFalling_prac","559","586","302","5","fallScene","false","","","","","","","",""
"","","","","","html-keyboard-response","98","1986783","0.0-13.1-7.1-1.4","6782480e666627776dd0df39","6790928bebf0b969fc839b02","67929ca8197c86e1d188b06d","passed","","170","","","","","","","","","","","","","","f","yesOrNo_prac","","","","5","","","gt","1000","","","","","",""
"","","","","","html-keyboard-response","99","1988340","0.0-13.1-7.1-0.5","6782480e666627776dd0df39","6790928bebf0b969fc839b02","67929ca8197c86e1d188b06d","passed","","","","","","","","","","","","","","","","","ballFalling_prac","441","500","317","6","fallScene","true","","","","","","","",""
"","","","","","html-keyboard-response","100","1989346","0.0-13.1-7.1-1.5","6782480e666627776dd0df39","6790928bebf0b969fc839b02","67929ca8197c86e1d188b06d","passed","","824","","","","","","","","","","","","","","j","yesOrNo_prac","","","","6","","","close gt","1000","","","","","",""
"","","","","","html-keyboard-response","101","1992323","0.0-13.1-8.1","6782480e666627776dd0df39","6790928bebf0b969fc839b02","67929ca8197c86e1d188b06d","passed","","2975","","","","","","","","","","","","","<p><span style=""font-size:40px;"">Practice Test BLOCK 2</span></p><p><span style=""font-size:25px;"">You have <b style=""color: #FF644F;""><strong>3 second(s)</strong></b> to respond to the following trials.</span><br></p><p id=""blinking-text"" style=""font-weight; animation: blink 2s infinite;"">Press Space to continue</p><style>
                    @keyframes blink {
                        50% {
                            opacity: 0;
                        }
                    }
                </style>"," ","","","","","","","","","","","","","","",""
"","","","","","html-keyboard-response","102","1993905","0.0-13.1-9.1-0.3","6782480e666627776dd0df39","6790928bebf0b969fc839b02","67929ca8197c86e1d188b06d","passed","","","","","","","","","","","","","","","","","ballFalling_prac","340","390","263","4","fallScene","true","","","","","","","",""
"","","","","","html-keyboard-response","103","1996909","0.0-13.1-9.1-1.3","6782480e666627776dd0df39","6790928bebf0b969fc839b02","67929ca8197c86e1d188b06d","passed","","486","","","","","","","","","","","","","","f","yesOrNo_prac","","","","4","","","close gt","3000","","","","","",""
"","","","","","html-keyboard-response","104","1998489","0.0-13.1-9.1-0.4","6782480e666627776dd0df39","6790928bebf0b969fc839b02","67929ca8197c86e1d188b06d","passed","","","","","","","","","","","","","","","","","ballFalling_prac","559","586","302","5","fallScene","false","","","","","","","",""
"","","","","","html-keyboard-response","105","2001495","0.0-13.1-9.1-1.4","6782480e666627776dd0df39","6790928bebf0b969fc839b02","67929ca8197c86e1d188b06d","passed","","867","","","","","","","","","","","","","","j","yesOrNo_prac","","","","5","","","far gt","3000","","","","","",""
"","","","","","html-keyboard-response","106","2003072","0.0-13.1-9.1-0.5","6782480e666627776dd0df39","6790928bebf0b969fc839b02","67929ca8197c86e1d188b06d","passed","","","","","","","","","","","","","","","","","ballFalling_prac","416","365","249","2","fallScene","false","","","","","","","",""
"","","","","","html-keyboard-response","107","2006079","0.0-13.1-9.1-1.5","6782480e666627776dd0df39","6790928bebf0b969fc839b02","67929ca8197c86e1d188b06d","passed","","1100","","","","","","","","","","","","","","f","yesOrNo_prac","","","","2","","","gt","3000","","","","","",""
"","","","","","instructions","108","2012096","0.0-14.0","6782480e666627776dd0df39","6790928bebf0b969fc839b02","67929ca8197c86e1d188b06d","passed","[{""page_index"":0,""viewing_time"":6017}]","6017","","","","","","","","","","","","","","","","","","","","","","","","","","","","",""
"","","","","","html-keyboard-response","109","2016824","0.0-15.0","6782480e666627776dd0df39","6790928bebf0b969fc839b02","67929ca8197c86e1d188b06d","passed","","4726","","","","","","","","","","","","","<p><span style=""font-size:40px;"">BLOCK 1</span></p><p><span style=""font-size:25px;"">You have <b style=""color: #FF644F;""><strong>3 second(s)</strong></b> to respond to the following trials.</span><br></p><p></p> <!-- Blank line -->
                <p id=""blinking-text"" style=""font-weight; animation: blink 2s infinite;"">Press Space to continue</p>
                <style>
                    @keyframes blink {
                        50% {
                            opacity: 0;
                        }
                    }
                </style></p>"," ","","","","","","","","","","","","","","",""
"","","","","","html-keyboard-response","110","2018621","0.0-16.0-0.0","6782480e666627776dd0df39","6790928bebf0b969fc839b02","67929ca8197c86e1d188b06d","passed","","","","","","","","","","","","","","","","","ballFalling","322.3","308.07114317029976","253.89","2","fallScene","true","","","","","","1","",""
"","","","","","html-keyboard-response","111","2021625","0.0-16.0-1.0","6782480e666627776dd0df39","6790928bebf0b969fc839b02","67929ca8197c86e1d188b06d","passed","","1199","","","","","","","","","","","","","","f","yesOrNo","","","","2","","","mid","3000","","","","1","321.3","300"
"","","","","","html-keyboard-response","112","2023120","0.0-16.0-0.1","6782480e666627776dd0df39","6790928bebf0b969fc839b02","67929ca8197c86e1d188b06d","passed","","","","","","","","","","","","","","","","","ballFalling","604.4000000000001","667.6211431702998","201.78","9","fallScene","true","","","","","","2","",""
"","","","","","html-keyboard-response","113","2026124","0.0-16.0-1.1","6782480e666627776dd0df39","6790928bebf0b969fc839b02","67929ca8197c86e1d188b06d","passed","","971","","","","","","","","","","","","","","f","yesOrNo","","","","9","","","gt","3000","","","","2","667.6211431702998","201.78"
"","","","","","html-keyboard-response","114","2028138","0.0-16.0-0.2","6782480e666627776dd0df39","6790928bebf0b969fc839b02","67929ca8197c86e1d188b06d","passed","","","","","","","","","","","","","","","","","ballFalling","500","510.8711431702997","369.03","8","fallScene","true","","","","","","3","",""
"","","","","","html-keyboard-response","115","2031142","0.0-16.0-1.2","6782480e666627776dd0df39","6790928bebf0b969fc839b02","67929ca8197c86e1d188b06d","passed","","1084","","","","","","","","","","","","","","j","yesOrNo","","","","8","","","mid","3000","","","","3","501","300"
"","","","","","html-keyboard-response","116","2032805","0.0-16.0-0.3","6782480e666627776dd0df39","6790928bebf0b969fc839b02","67929ca8197c86e1d188b06d","passed","","","","","","","","","","","","","","","","","ballFalling","500","479.92114317029973","330.87","6","fallScene","true","","","","","","4","",""
"","","","","","html-keyboard-response","117","2035810","0.0-16.0-1.3","6782480e666627776dd0df39","6790928bebf0b969fc839b02","67929ca8197c86e1d188b06d","passed","","1080","","","","","","","","","","","","","","j","yesOrNo","","","","6","","","lp","3000","","","","4","499","189.92909825697632"
"","","","","","html-keyboard-response","118","2037372","0.0-16.0-0.4","6782480e666627776dd0df39","6790928bebf0b969fc839b02","67929ca8197c86e1d188b06d","passed","","","","","","","","","","","","","","","","","ballFalling","322.3","356.42114317029973","357.87","4","fallScene","false","","","","","","5","",""
"","","","","","html-keyboard-response","119","2040377","0.0-16.0-1.4","6782480e666627776dd0df39","6790928bebf0b969fc839b02","67929ca8197c86e1d188b06d","passed","","1205","","","","","","","","","","","","","","j","yesOrNo","","","","4","","","mid","3000","","","","5","390.27114317029975","300"
"","","","","","html-keyboard-response","120","2041937","0.0-16.0-0.5","6782480e666627776dd0df39","6790928bebf0b969fc839b02","67929ca8197c86e1d188b06d","passed","","","","","","","","","","","","","","","","","ballFalling","322.3","296.07114317029976","371.46","3","fallScene","false","","","","","","6","",""
"","","","","","html-keyboard-response","121","2044943","0.0-16.0-1.5","6782480e666627776dd0df39","6790928bebf0b969fc839b02","67929ca8197c86e1d188b06d","passed","","947","","","","","","","","","","","","","","j","yesOrNo","","","","3","","","lp","3000","","","","6","321.3","287.3327096511259"
"","","","","","html-keyboard-response","122","2046604","0.0-16.0-0.6","6782480e666627776dd0df39","6790928bebf0b969fc839b02","67929ca8197c86e1d188b06d","passed","","","","","","","","","","","","","","","","","ballFalling","500","479.92114317029973","330.87","6","fallScene","false","","","","","","7","",""
"","","","","","html-keyboard-response","123","2049606","0.0-16.0-1.6","6782480e666627776dd0df39","6790928bebf0b969fc839b02","67929ca8197c86e1d188b06d","passed","","1511","","","","","","","","","","","","","","f","yesOrNo","","","","6","","","lp","3000","","","","7","499","189.92909825697632"
"","","","","","html-keyboard-response","124","2051171","0.0-16.0-0.7","6782480e666627776dd0df39","6790928bebf0b969fc839b02","67929ca8197c86e1d188b06d","passed","","","","","","","","","","","","","","","","","ballFalling","322.3","379.3711431702997","245.25","1","fallScene","false","","","","","","8","",""
"","","","","","html-keyboard-response","125","2054176","0.0-16.0-1.7","6782480e666627776dd0df39","6790928bebf0b969fc839b02","67929ca8197c86e1d188b06d","passed","","835","","","","","","","","","","","","","","f","yesOrNo","","","","1","","","lp","3000","","","","8","323.3","217.74551669457017"
"","","","","","html-keyboard-response","126","2055737","0.0-16.0-0.8","6782480e666627776dd0df39","6790928bebf0b969fc839b02","67929ca8197c86e1d188b06d","passed","","","","","","","","","","","","","","","","","ballFalling","322.3","356.42114317029973","357.87","4","fallScene","false","","","","","","9","",""
"","","","","","html-keyboard-response","127","2058743","0.0-16.0-1.8","6782480e666627776dd0df39","6790928bebf0b969fc839b02","67929ca8197c86e1d188b06d","passed","","569","","","","","","","","","","","","","","j","yesOrNo","","","","4","","","gt","3000","","","","9","356.42114317029973","357.87"
"","","","","","html-keyboard-response","128","2060305","0.0-16.0-0.9","6782480e666627776dd0df39","6790928bebf0b969fc839b02","67929ca8197c86e1d188b06d","passed","","","","","","","","","","","","","","","","","ballFalling","500","453.67114317029973","210.33","5","fallScene","false","","","","","","10","",""
"","","","","","html-keyboard-response","129","2063310","0.0-16.0-1.9","6782480e666627776dd0df39","6790928bebf0b969fc839b02","67929ca8197c86e1d188b06d","passed","","181","","","","","","","","","","","","","","j","yesOrNo","","","","5","","","gt","3000","","","","10","453.6711431702998","210.33"
"","","","","","html-keyboard-response","130","2064887","0.0-16.0-0.10","6782480e666627776dd0df39","6790928bebf0b969fc839b02","67929ca8197c86e1d188b06d","passed","","","","","","","","","","","","","","","","","ballFalling","500","553.4711431702997","282.51","7","fallScene","false","","","","","","11","",""
"","","","","","html-keyboard-response","131","2067893","0.0-16.0-1.10","6782480e666627776dd0df39","6790928bebf0b969fc839b02","67929ca8197c86e1d188b06d","passed","","1301","","","","","","","","","","","","","","j","yesOrNo","","","","7","","","mid","3000","","","","11","501","300"
"","","","","","html-keyboard-response","132","2069452","0.0-16.0-0.11","6782480e666627776dd0df39","6790928bebf0b969fc839b02","67929ca8197c86e1d188b06d","passed","","","","","","","","","","","","","","","","","ballFalling","604.4000000000001","575.4211431702997","266.76","12","fallScene","false","","","","","","12","",""
"","","","","","html-keyboard-response","133","2072459","0.0-16.0-1.11","6782480e666627776dd0df39","6790928bebf0b969fc839b02","67929ca8197c86e1d188b06d","passed","","1323","","","","","","","","","","","","","","j","yesOrNo","","","","12","","","gt","3000","","","","12","575.4211431702997","266.76"
"","","","","","html-keyboard-response","134","2074020","0.0-16.0-0.12","6782480e666627776dd0df39","6790928bebf0b969fc839b02","67929ca8197c86e1d188b06d","passed","","","","","","","","","","","","","","","","","ballFalling","322.3","379.3711431702997","245.25","1","fallScene","true","","","","","","13","",""
"","","","","","html-keyboard-response","135","2077026","0.0-16.0-1.12","6782480e666627776dd0df39","6790928bebf0b969fc839b02","67929ca8197c86e1d188b06d","passed","","1141","","","","","","","","","","","","","","j","yesOrNo","","","","1","","","mid","3000","","","","13","390.27114317029975","300"
"","","","","","html-keyboard-response","136","2078586","0.0-16.0-0.13","6782480e666627776dd0df39","6790928bebf0b969fc839b02","67929ca8197c86e1d188b06d","passed","","","","","","","","","","","","","","","","","ballFalling","500","453.67114317029973","210.33","5","fallScene","false","","","","","","14","",""
"","","","","","html-keyboard-response","137","2081591","0.0-16.0-1.13","6782480e666627776dd0df39","6790928bebf0b969fc839b02","67929ca8197c86e1d188b06d","passed","","884","","","","","","","","","","","","","","j","yesOrNo","","","","5","","","mid","3000","","","","14","499","300"
"","","","","","html-keyboard-response","138","2083152","0.0-16.0-0.14","6782480e666627776dd0df39","6790928bebf0b969fc839b02","67929ca8197c86e1d188b06d","passed","","","","","","","","","","","","","","","","","ballFalling","322.3","356.42114317029973","357.87","4","fallScene","false","","","","","","15","",""
"","","","","","html-keyboard-response","139","2086157","0.0-16.0-1.14","6782480e666627776dd0df39","6790928bebf0b969fc839b02","67929ca8197c86e1d188b06d","passed","","1151","","","","","","","","","","","","","","j","yesOrNo","","","","4","","","mid","3000","","","","15","390.27114317029975","300"
"","","","","","html-keyboard-response","140","2087719","0.0-16.0-0.15","6782480e666627776dd0df39","6790928bebf0b969fc839b02","67929ca8197c86e1d188b06d","passed","","","","","","","","","","","","","","","","","ballFalling","500","453.67114317029973","210.33","5","fallScene","false","","","","","","16","",""
"","","","","","html-keyboard-response","141","2090724","0.0-16.0-1.15","6782480e666627776dd0df39","6790928bebf0b969fc839b02","67929ca8197c86e1d188b06d","passed","","1180","","","","","","","","","","","","","","j","yesOrNo","","","","5","","","gt","3000","","","","16","453.6711431702998","210.33"
"","","","","","html-keyboard-response","142","2092284","0.0-16.0-0.16","6782480e666627776dd0df39","6790928bebf0b969fc839b02","67929ca8197c86e1d188b06d","passed","","","","","","","","","","","","","","","","","ballFalling","604.4000000000001","575.4211431702997","266.76","12","fallScene","true","","","","","","17","",""
"","","","","","html-keyboard-response","143","2095291","0.0-16.0-1.16","6782480e666627776dd0df39","6790928bebf0b969fc839b02","67929ca8197c86e1d188b06d","passed","","2267","","","","","","","","","","","","","","f","yesOrNo","","","","12","","","lp","3000","","","","17","603.4000000000001","151"
"","","","","","html-keyboard-response","144","2097085","0.0-16.0-0.17","6782480e666627776dd0df39","6790928bebf0b969fc839b02","67929ca8197c86e1d188b06d","passed","","","","","","","","","","","","","","","","","ballFalling","322.3","308.07114317029976","253.89","2","fallScene","true","","","","","","18","",""
"","","","","","html-keyboard-response","145","2100090","0.0-16.0-1.17","6782480e666627776dd0df39","6790928bebf0b969fc839b02","67929ca8197c86e1d188b06d","passed","","2317","","","","","","","","","","","","","","f","yesOrNo","","","","2","","","lp","3000","","","","18","321.3","151"
"","","","","","html-keyboard-response","146","2101650","0.0-16.0-0.18","6782480e666627776dd0df39","6790928bebf0b969fc839b02","67929ca8197c86e1d188b06d","passed","","","","","","","","","","","","","","","","","ballFalling","604.4000000000001","650.0211431702996","404.58000000000004","11","fallScene","false","","","","","","19","",""
"","","","","","html-keyboard-response","147","2104653","0.0-16.0-1.18","6782480e666627776dd0df39","6790928bebf0b969fc839b02","67929ca8197c86e1d188b06d","passed","","2302","","","","","","","","","","","","","","j","yesOrNo","","","","11","","","lp","3000","","","","19","605.4000000000001","372.6340973215488"
"","","","","","html-keyboard-response","148","2106218","0.0-16.0-0.19","6782480e666627776dd0df39","6790928bebf0b969fc839b02","67929ca8197c86e1d188b06d","passed","","","","","","","","","","","","","","","","","ballFalling","604.4000000000001","650.0211431702996","404.58000000000004","11","fallScene","true","","","","","","20","",""
"","","","","","html-keyboard-response","149","2109222","0.0-16.0-1.19","6782480e666627776dd0df39","6790928bebf0b969fc839b02","67929ca8197c86e1d188b06d","passed","","1464","","","","","","","","","","","","","","f","yesOrNo","","","","11","","","lp","3000","","","","20","605.4000000000001","372.6340973215488"
"","","","","","html-keyboard-response","150","2110801","0.0-16.0-0.20","6782480e666627776dd0df39","6790928bebf0b969fc839b02","67929ca8197c86e1d188b06d","passed","","","","","","","","","","","","","","","","","ballFalling","500","553.4711431702997","282.51","7","fallScene","false","","","","","","21","",""
"","","","","","html-keyboard-response","151","2113803","0.0-16.0-1.20","6782480e666627776dd0df39","6790928bebf0b969fc839b02","67929ca8197c86e1d188b06d","passed","","1195","","","","","","","","","","","","","","j","yesOrNo","","","","7","","","gt","3000","","","","21","553.4711431702997","282.51"
"","","","","","html-keyboard-response","152","2115817","0.0-16.0-0.21","6782480e666627776dd0df39","6790928bebf0b969fc839b02","67929ca8197c86e1d188b06d","passed","","","","","","","","","","","","","","","","","ballFalling","500","510.8711431702997","369.03","8","fallScene","false","","","","","","22","",""
"","","","","","html-keyboard-response","153","2118823","0.0-16.0-1.21","6782480e666627776dd0df39","6790928bebf0b969fc839b02","67929ca8197c86e1d188b06d","passed","","2058","","","","","","","","","","","","","","f","yesOrNo","","","","8","","","lp","3000","","","","22","501","151"
"","","","","","html-keyboard-response","154","2120834","0.0-16.0-0.22","6782480e666627776dd0df39","6790928bebf0b969fc839b02","67929ca8197c86e1d188b06d","passed","","","","","","","","","","","","","","","","","ballFalling","604.4000000000001","596.8711431702998","394.5","10","fallScene","true","","","","","","23","",""
"","","","","","html-keyboard-response","155","2123839","0.0-16.0-1.22","6782480e666627776dd0df39","6790928bebf0b969fc839b02","67929ca8197c86e1d188b06d","passed","","1439","","","","","","","","","","","","","","j","yesOrNo","","","","10","","","mid","3000","","","","23","536.4288568297004","300"
"","","","","","html-keyboard-response","156","2125400","0.0-16.0-0.23","6782480e666627776dd0df39","6790928bebf0b969fc839b02","67929ca8197c86e1d188b06d","passed","","","","","","","","","","","","","","","","","ballFalling","322.3","296.07114317029976","371.46","3","fallScene","true","","","","","","24","",""
"","","","","","html-keyboard-response","157","2128406","0.0-16.0-1.23","6782480e666627776dd0df39","6790928bebf0b969fc839b02","67929ca8197c86e1d188b06d","passed","","1797","","","","","","","","","","","","","","j","yesOrNo","","","","3","","","lp","3000","","","","24","321.3","287.3327096511259"
"","","","","","html-keyboard-response","158","2134807","0.0-17.0","6782480e666627776dd0df39","6790928bebf0b969fc839b02","67929ca8197c86e1d188b06d","passed","","6400","","","","","","","","","","","","","<p><span style=""font-size:40px;"">BLOCK 2</span></p><p><span style=""font-size:25px;"">You have <b style=""color: #FF644F;""><strong>1 second(s)</strong></b> to respond to the following trials.</span><br></p><p></p> <!-- Blank line -->
                <p id=""blinking-text"" style=""font-weight; animation: blink 2s infinite;"">Press Space to continue</p>
                <style>
                    @keyframes blink {
                        50% {
                            opacity: 0;
                        }
                    }
                </style></p>"," ","","","","","","","","","","","","","","",""
"","","","","","html-keyboard-response","159","2136367","0.0-18.0-0.0","6782480e666627776dd0df39","6790928bebf0b969fc839b02","67929ca8197c86e1d188b06d","passed","","","","","","","","","","","","","","","","","ballFalling","604.4000000000001","575.4211431702997","266.76","12","fallScene","false","","","","","","25","",""
"","","","","","html-keyboard-response","160","2137371","0.0-18.0-1.0","6782480e666627776dd0df39","6790928bebf0b969fc839b02","67929ca8197c86e1d188b06d","passed","","357","","","","","","","","","","","","","","j","yesOrNo","","","","12","","","lp","1000","","","","25","603.4000000000001","151"
"","","","","","html-keyboard-response","161","2138934","0.0-18.0-0.1","6782480e666627776dd0df39","6790928bebf0b969fc839b02","67929ca8197c86e1d188b06d","passed","","","","","","","","","","","","","","","","","ballFalling","322.3","296.07114317029976","371.46","3","fallScene","false","","","","","","26","",""
"","","","","","html-keyboard-response","162","2139939","0.0-18.0-1.1","6782480e666627776dd0df39","6790928bebf0b969fc839b02","67929ca8197c86e1d188b06d","passed","","334","","","","","","","","","","","","","","f","yesOrNo","","","","3","","","gt","1000","","","","26","296.07114317029976","371.46"
"","","","","","html-keyboard-response","163","2141950","0.0-18.0-0.2","6782480e666627776dd0df39","6790928bebf0b969fc839b02","67929ca8197c86e1d188b06d","passed","","","","","","","","","","","","","","","","","ballFalling","604.4000000000001","596.8711431702998","394.5","10","fallScene","false","","","","","","27","",""
"","","","","","html-keyboard-response","164","2142955","0.0-18.0-1.2","6782480e666627776dd0df39","6790928bebf0b969fc839b02","67929ca8197c86e1d188b06d","passed","","548","","","","","","","","","","","","","","j","yesOrNo","","","","10","","","lp","1000","","","","27","603.4000000000001","215.50214355555383"
"","","","","","html-keyboard-response","165","2144517","0.0-18.0-0.3","6782480e666627776dd0df39","6790928bebf0b969fc839b02","67929ca8197c86e1d188b06d","passed","","","","","","","","","","","","","","","","","ballFalling","322.3","296.07114317029976","371.46","3","fallScene","true","","","","","","28","",""
"","","","","","html-keyboard-response","166","2145522","0.0-18.0-1.3","6782480e666627776dd0df39","6790928bebf0b969fc839b02","67929ca8197c86e1d188b06d","passed","","410","","","","","","","","","","","","","","f","yesOrNo","","","","3","","","mid","1000","","","","28","321.3","300"
"","","","","","html-keyboard-response","167","2147533","0.0-18.0-0.4","6782480e666627776dd0df39","6790928bebf0b969fc839b02","67929ca8197c86e1d188b06d","passed","","","","","","","","","","","","","","","","","ballFalling","500","510.8711431702997","369.03","8","fallScene","true","","","","","","29","",""
"","","","","","html-keyboard-response","168","2148539","0.0-18.0-1.4","6782480e666627776dd0df39","6790928bebf0b969fc839b02","67929ca8197c86e1d188b06d","passed","","505","","","","","","","","","","","","","","j","yesOrNo","","","","8","","","lp","1000","","","","29","501","151"
"","","","","","html-keyboard-response","169","2150100","0.0-18.0-0.5","6782480e666627776dd0df39","6790928bebf0b969fc839b02","67929ca8197c86e1d188b06d","passed","","","","","","","","","","","","","","","","","ballFalling","604.4000000000001","650.0211431702996","404.58000000000004","11","fallScene","true","","","","","","30","",""
"","","","","","html-keyboard-response","170","2151105","0.0-18.0-1.5","6782480e666627776dd0df39","6790928bebf0b969fc839b02","67929ca8197c86e1d188b06d","passed","","598","","","","","","","","","","","","","","f","yesOrNo","","","","11","","","gt","1000","","","","30","650.0211431702996","404.58"
"","","","","","html-keyboard-response","171","2152666","0.0-18.0-0.6","6782480e666627776dd0df39","6790928bebf0b969fc839b02","67929ca8197c86e1d188b06d","passed","","","","","","","","","","","","","","","","","ballFalling","604.4000000000001","650.0211431702996","404.58000000000004","11","fallScene","false","","","","","","31","",""
"","","","","","html-keyboard-response","172","2153672","0.0-18.0-1.6","6782480e666627776dd0df39","6790928bebf0b969fc839b02","67929ca8197c86e1d188b06d","passed","","349","","","","","","","","","","","","","","j","yesOrNo","","","","11","","","mid","1000","","","","31","605.4000000000001","300"
"","","","","","html-keyboard-response","173","2155683","0.0-18.0-0.7","6782480e666627776dd0df39","6790928bebf0b969fc839b02","67929ca8197c86e1d188b06d","passed","","","","","","","","","","","","","","","","","ballFalling","500","510.8711431702997","369.03","8","fallScene","true","","","","","","32","",""
"","","","","","html-keyboard-response","174","2156690","0.0-18.0-1.7","6782480e666627776dd0df39","6790928bebf0b969fc839b02","67929ca8197c86e1d188b06d","passed","","313","","","","","","","","","","","","","","f","yesOrNo","","","","8","","","gt","1000","","","","32","510.8711431702997","369.03"
"","","","","","html-keyboard-response","175","2158249","0.0-18.0-0.8","6782480e666627776dd0df39","6790928bebf0b969fc839b02","67929ca8197c86e1d188b06d","passed","","","","","","","","","","","","","","","","","ballFalling","322.3","296.07114317029976","371.46","3","fallScene","false","","","","","","33","",""
"","","","","","html-keyboard-response","176","2159254","0.0-18.0-1.8","6782480e666627776dd0df39","6790928bebf0b969fc839b02","67929ca8197c86e1d188b06d","passed","","361","","","","","","","","","","","","","","j","yesOrNo","","","","3","","","lp","1000","","","","33","321.3","287.3327096511259"
"","","","","","html-keyboard-response","177","2160832","0.0-18.0-0.9","6782480e666627776dd0df39","6790928bebf0b969fc839b02","67929ca8197c86e1d188b06d","passed","","","","","","","","","","","","","","","","","ballFalling","500","553.4711431702997","282.51","7","fallScene","false","","","","","","34","",""
"","","","","","html-keyboard-response","178","2161837","0.0-18.0-1.9","6782480e666627776dd0df39","6790928bebf0b969fc839b02","67929ca8197c86e1d188b06d","passed","","308","","","","","","","","","","","","","","j","yesOrNo","","","","7","","","gt","1000","","","","34","553.4711431702997","282.51"
"","","","","","html-keyboard-response","179","2163499","0.0-18.0-0.10","6782480e666627776dd0df39","6790928bebf0b969fc839b02","67929ca8197c86e1d188b06d","passed","","","","","","","","","","","","","","","","","ballFalling","500","479.92114317029973","330.87","6","fallScene","true","","","","","","35","",""
"","","","","","html-keyboard-response","180","2164502","0.0-18.0-1.10","6782480e666627776dd0df39","6790928bebf0b969fc839b02","67929ca8197c86e1d188b06d","passed","","382","","","","","","","","","","","","","","f","yesOrNo","","","","6","","","lp","1000","","","","35","499","189.92909825697632"
"","","","","","html-keyboard-response","181","2166066","0.0-18.0-0.11","6782480e666627776dd0df39","6790928bebf0b969fc839b02","67929ca8197c86e1d188b06d","passed","","","","","","","","","","","","","","","","","ballFalling","322.3","356.42114317029973","357.87","4","fallScene","false","","","","","","36","",""
"","","","","","html-keyboard-response","182","2167071","0.0-18.0-1.11","6782480e666627776dd0df39","6790928bebf0b969fc839b02","67929ca8197c86e1d188b06d","passed","","521","","","","","","","","","","","","","","f","yesOrNo","","","","4","","","lp","1000","","","","36","323.3","297.4070551689986"
"","","","","","html-keyboard-response","183","2168632","0.0-18.0-0.12","6782480e666627776dd0df39","6790928bebf0b969fc839b02","67929ca8197c86e1d188b06d","passed","","","","","","","","","","","","","","","","","ballFalling","322.3","356.42114317029973","357.87","4","fallScene","true","","","","","","37","",""
"","","","","","html-keyboard-response","184","2169639","0.0-18.0-1.12","6782480e666627776dd0df39","6790928bebf0b969fc839b02","67929ca8197c86e1d188b06d","passed","","null","","","","","","","","","","","","","","null","yesOrNo","","","","4","","","mid","1000","","","","37","390.27114317029975","300"
"","","","","","html-keyboard-response","185","2171197","0.0-18.0-0.13","6782480e666627776dd0df39","6790928bebf0b969fc839b02","67929ca8197c86e1d188b06d","passed","","","","","","","","","","","","","","","","","ballFalling","322.3","356.42114317029973","357.87","4","fallScene","false","","","","","","38","",""
"","","","","","html-keyboard-response","186","2172201","0.0-18.0-1.13","6782480e666627776dd0df39","6790928bebf0b969fc839b02","67929ca8197c86e1d188b06d","passed","","417","","","","","","","","","","","","","","j","yesOrNo","","","","4","","","mid","1000","","","","38","390.27114317029975","300"
"","","","","","html-keyboard-response","187","2173765","0.0-18.0-0.14","6782480e666627776dd0df39","6790928bebf0b969fc839b02","67929ca8197c86e1d188b06d","passed","","","","","","","","","","","","","","","","","ballFalling","500","453.67114317029973","210.33","5","fallScene","false","","","","","","39","",""
"","","","","","html-keyboard-response","188","2174771","0.0-18.0-1.14","6782480e666627776dd0df39","6790928bebf0b969fc839b02","67929ca8197c86e1d188b06d","passed","","338","","","","","","","","","","","","","","f","yesOrNo","","","","5","","","mid","1000","","","","39","499","300"
"","","","","","html-keyboard-response","189","2176332","0.0-18.0-0.15","6782480e666627776dd0df39","6790928bebf0b969fc839b02","67929ca8197c86e1d188b06d","passed","","","","","","","","","","","","","","","","","ballFalling","322.3","356.42114317029973","357.87","4","fallScene","false","","","","","","40","",""
"","","","","","html-keyboard-response","190","2177340","0.0-18.0-1.15","6782480e666627776dd0df39","6790928bebf0b969fc839b02","67929ca8197c86e1d188b06d","passed","","348","","","","","","","","","","","","","","j","yesOrNo","","","","4","","","lp","1000","","","","40","323.3","297.4070551689986"
"","","","","","html-keyboard-response","191","2178832","0.0-18.0-0.16","6782480e666627776dd0df39","6790928bebf0b969fc839b02","67929ca8197c86e1d188b06d","passed","","","","","","","","","","","","","","","","","ballFalling","604.4000000000001","667.6211431702998","201.78","9","fallScene","true","","","","","","41","",""
"","","","","","html-keyboard-response","192","2179841","0.0-18.0-1.16","6782480e666627776dd0df39","6790928bebf0b969fc839b02","67929ca8197c86e1d188b06d","passed","","380","","","","","","","","","","","","","","j","yesOrNo","","","","9","","","gt","1000","","","","41","667.6211431702998","201.78"
"","","","","","html-keyboard-response","193","2181331","0.0-18.0-0.17","6782480e666627776dd0df39","6790928bebf0b969fc839b02","67929ca8197c86e1d188b06d","passed","","","","","","","","","","","","","","","","","ballFalling","604.4000000000001","667.6211431702998","201.78","9","fallScene","true","","","","","","42","",""
"","","","","","html-keyboard-response","194","2182343","0.0-18.0-1.17","6782480e666627776dd0df39","6790928bebf0b969fc839b02","67929ca8197c86e1d188b06d","passed","","22","","","","","","","","","","","","","","f","yesOrNo","","","","9","","","lp","1000","","","","42","605.4000000000001","151"
"","","","","","html-keyboard-response","195","2183898","0.0-18.0-0.18","6782480e666627776dd0df39","6790928bebf0b969fc839b02","67929ca8197c86e1d188b06d","passed","","","","","","","","","","","","","","","","","ballFalling","322.3","379.3711431702997","245.25","1","fallScene","true","","","","","","43","",""
"","","","","","html-keyboard-response","196","2184903","0.0-18.0-1.18","6782480e666627776dd0df39","6790928bebf0b969fc839b02","67929ca8197c86e1d188b06d","passed","","314","","","","","","","","","","","","","","j","yesOrNo","","","","1","","","lp","1000","","","","43","323.3","217.74551669457017"
"","","","","","html-keyboard-response","197","2186464","0.0-18.0-0.19","6782480e666627776dd0df39","6790928bebf0b969fc839b02","67929ca8197c86e1d188b06d","passed","","","","","","","","","","","","","","","","","ballFalling","604.4000000000001","650.0211431702996","404.58000000000004","11","fallScene","true","","","","","","44","",""
"","","","","","html-keyboard-response","198","2187468","0.0-18.0-1.19","6782480e666627776dd0df39","6790928bebf0b969fc839b02","67929ca8197c86e1d188b06d","passed","","373","","","","","","","","","","","","","","f","yesOrNo","","","","11","","","lp","1000","","","","44","605.4000000000001","372.6340973215488"
"","","","","","html-keyboard-response","199","2189481","0.0-18.0-0.20","6782480e666627776dd0df39","6790928bebf0b969fc839b02","67929ca8197c86e1d188b06d","passed","","","","","","","","","","","","","","","","","ballFalling","500","510.8711431702997","369.03","8","fallScene","false","","","","","","45","",""
"","","","","","html-keyboard-response","200","2190487","0.0-18.0-1.20","6782480e666627776dd0df39","6790928bebf0b969fc839b02","67929ca8197c86e1d188b06d","passed","","32","","","","","","","","","","","","","","j","yesOrNo","","","","8","","","lp","1000","","","","45","501","151"
"","","","","","html-keyboard-response","201","2192497","0.0-18.0-0.21","6782480e666627776dd0df39","6790928bebf0b969fc839b02","67929ca8197c86e1d188b06d","passed","","","","","","","","","","","","","","","","","ballFalling","604.4000000000001","596.8711431702998","394.5","10","fallScene","false","","","","","","46","",""
"","","","","","html-keyboard-response","202","2193503","0.0-18.0-1.21","6782480e666627776dd0df39","6790928bebf0b969fc839b02","67929ca8197c86e1d188b06d","passed","","265","","","","","","","","","","","","","","f","yesOrNo","","","","10","","","lp","1000","","","","46","603.4000000000001","215.50214355555383"
"","","","","","html-keyboard-response","203","2195064","0.0-18.0-0.22","6782480e666627776dd0df39","6790928bebf0b969fc839b02","67929ca8197c86e1d188b06d","passed","","","","","","","","","","","","","","","","","ballFalling","322.3","296.07114317029976","371.46","3","fallScene","true","","","","","","47","",""
"","","","","","html-keyboard-response","204","2196069","0.0-18.0-1.22","6782480e666627776dd0df39","6790928bebf0b969fc839b02","67929ca8197c86e1d188b06d","passed","","415","","","","","","","","","","","","","","j","yesOrNo","","","","3","","","mid","1000","","","","47","321.3","300"
"","","","","","html-keyboard-response","205","2197863","0.0-18.0-0.23","6782480e666627776dd0df39","6790928bebf0b969fc839b02","67929ca8197c86e1d188b06d","passed","","","","","","","","","","","","","","","","","ballFalling","322.3","308.07114317029976","253.89","2","fallScene","true","","","","","","48","",""
"","","","","","html-keyboard-response","206","2198877","0.0-18.0-1.23","6782480e666627776dd0df39","6790928bebf0b969fc839b02","67929ca8197c86e1d188b06d","passed","","525","","","","","","","","","","","","","","j","yesOrNo","","","","2","","","lp","1000","","","","48","321.3","151"
"","","","","","html-keyboard-response","207","2201978","0.0-19.0","6782480e666627776dd0df39","6790928bebf0b969fc839b02","67929ca8197c86e1d188b06d","passed","","3098","","","","","","","","","","","","","<p><span style=""font-size:40px;"">BLOCK 3</span></p><p><span style=""font-size:25px;"">You have <b style=""color: #FF644F;""><strong>1 second(s)</strong></b> to respond to the following trials.</span><br></p><p></p> <!-- Blank line -->
                <p id=""blinking-text"" style=""font-weight; animation: blink 2s infinite;"">Press Space to continue</p>
                <style>
                    @keyframes blink {
                        50% {
                            opacity: 0;
                        }
                    }
                </style></p>"," ","","","","","","","","","","","","","","",""
"","","","","","html-keyboard-response","208","2203995","0.0-20.0-0.0","6782480e666627776dd0df39","6790928bebf0b969fc839b02","67929ca8197c86e1d188b06d","passed","","","","","","","","","","","","","","","","","ballFalling","500","510.8711431702997","369.03","8","fallScene","true","","","","","","49","",""
"","","","","","html-keyboard-response","209","2205002","0.0-20.0-1.0","6782480e666627776dd0df39","6790928bebf0b969fc839b02","67929ca8197c86e1d188b06d","passed","","332","","","","","","","","","","","","","","f","yesOrNo","","","","8","","","gt","1000","","","","49","510.8711431702997","369.03"
"","","","","","html-keyboard-response","210","2207013","0.0-20.0-0.1","6782480e666627776dd0df39","6790928bebf0b969fc839b02","67929ca8197c86e1d188b06d","passed","","","","","","","","","","","","","","","","","ballFalling","604.4000000000001","596.8711431702998","394.5","10","fallScene","true","","","","","","50","",""
"","","","","","html-keyboard-response","211","2208016","0.0-20.0-1.1","6782480e666627776dd0df39","6790928bebf0b969fc839b02","67929ca8197c86e1d188b06d","passed","","383","","","","","","","","","","","","","","j","yesOrNo","","","","10","","","gt","1000","","","","50","596.8711431702998","394.5"
"","","","","","html-keyboard-response","212","2209580","0.0-20.0-0.2","6782480e666627776dd0df39","6790928bebf0b969fc839b02","67929ca8197c86e1d188b06d","passed","","","","","","","","","","","","","","","","","ballFalling","604.4000000000001","575.4211431702997","266.76","12","fallScene","false","","","","","","51","",""
"","","","","","html-keyboard-response","213","2210594","0.0-20.0-1.2","6782480e666627776dd0df39","6790928bebf0b969fc839b02","67929ca8197c86e1d188b06d","passed","","464","","","","","","","","","","","","","","j","yesOrNo","","","","12","","","mid","1000","","","","51","536.4288568297004","300"
"","","","","","html-keyboard-response","214","2212146","0.0-20.0-0.3","6782480e666627776dd0df39","6790928bebf0b969fc839b02","67929ca8197c86e1d188b06d","passed","","","","","","","","","","","","","","","","","ballFalling","604.4000000000001","575.4211431702997","266.76","12","fallScene","false","","","","","","52","",""
"","","","","","html-keyboard-response","215","2213151","0.0-20.0-1.3","6782480e666627776dd0df39","6790928bebf0b969fc839b02","67929ca8197c86e1d188b06d","passed","","448","","","","","","","","","","","","","","j","yesOrNo","","","","12","","","lp","1000","","","","52","603.4000000000001","151"
"","","","","","html-keyboard-response","216","2214713","0.0-20.0-0.4","6782480e666627776dd0df39","6790928bebf0b969fc839b02","67929ca8197c86e1d188b06d","passed","","","","","","","","","","","","","","","","","ballFalling","500","453.67114317029973","210.33","5","fallScene","true","","","","","","53","",""
"","","","","","html-keyboard-response","217","2215717","0.0-20.0-1.4","6782480e666627776dd0df39","6790928bebf0b969fc839b02","67929ca8197c86e1d188b06d","passed","","351","","","","","","","","","","","","","","f","yesOrNo","","","","5","","","lp","1000","","","","53","499","151"
"","","","","","html-keyboard-response","218","2217729","0.0-20.0-0.5","6782480e666627776dd0df39","6790928bebf0b969fc839b02","67929ca8197c86e1d188b06d","passed","","","","","","","","","","","","","","","","","ballFalling","604.4000000000001","596.8711431702998","394.5","10","fallScene","false","","","","","","54","",""
"","","","","","html-keyboard-response","219","2218735","0.0-20.0-1.5","6782480e666627776dd0df39","6790928bebf0b969fc839b02","67929ca8197c86e1d188b06d","passed","","349","","","","","","","","","","","","","","j","yesOrNo","","","","10","","","mid","1000","","","","54","536.4288568297004","300"
"","","","","","html-keyboard-response","220","2220746","0.0-20.0-0.6","6782480e666627776dd0df39","6790928bebf0b969fc839b02","67929ca8197c86e1d188b06d","passed","","","","","","","","","","","","","","","","","ballFalling","604.4000000000001","596.8711431702998","394.5","10","fallScene","true","","","","","","55","",""
"","","","","","html-keyboard-response","221","2221750","0.0-20.0-1.6","6782480e666627776dd0df39","6790928bebf0b969fc839b02","67929ca8197c86e1d188b06d","passed","","449","","","","","","","","","","","","","","f","yesOrNo","","","","10","","","gt","1000","","","","55","596.8711431702998","394.5"
"","","","","","html-keyboard-response","222","2223246","0.0-20.0-0.7","6782480e666627776dd0df39","6790928bebf0b969fc839b02","67929ca8197c86e1d188b06d","passed","","","","","","","","","","","","","","","","","ballFalling","604.4000000000001","667.6211431702998","201.78","9","fallScene","false","","","","","","56","",""
"","","","","","html-keyboard-response","223","2224251","0.0-20.0-1.7","6782480e666627776dd0df39","6790928bebf0b969fc839b02","67929ca8197c86e1d188b06d","passed","","418","","","","","","","","","","","","","","j","yesOrNo","","","","9","","","mid","1000","","","","56","605.4000000000001","300"
"","","","","","html-keyboard-response","224","2225812","0.0-20.0-0.8","6782480e666627776dd0df39","6790928bebf0b969fc839b02","67929ca8197c86e1d188b06d","passed","","","","","","","","","","","","","","","","","ballFalling","322.3","356.42114317029973","357.87","4","fallScene","true","","","","","","57","",""
"","","","","","html-keyboard-response","225","2226817","0.0-20.0-1.8","6782480e666627776dd0df39","6790928bebf0b969fc839b02","67929ca8197c86e1d188b06d","passed","","270","","","","","","","","","","","","","","j","yesOrNo","","","","4","","","gt","1000","","","","57","356.42114317029973","357.87"
"","","","","","html-keyboard-response","226","2228828","0.0-20.0-0.9","6782480e666627776dd0df39","6790928bebf0b969fc839b02","67929ca8197c86e1d188b06d","passed","","","","","","","","","","","","","","","","","ballFalling","604.4000000000001","596.8711431702998","394.5","10","fallScene","false","","","","","","58","",""
"","","","","","html-keyboard-response","227","2229831","0.0-20.0-1.9","6782480e666627776dd0df39","6790928bebf0b969fc839b02","67929ca8197c86e1d188b06d","passed","","401","","","","","","","","","","","","","","j","yesOrNo","","","","10","","","mid","1000","","","","58","536.4288568297004","300"
"","","","","","html-keyboard-response","228","2231395","0.0-20.0-0.10","6782480e666627776dd0df39","6790928bebf0b969fc839b02","67929ca8197c86e1d188b06d","passed","","","","","","","","","","","","","","","","","ballFalling","322.3","296.07114317029976","371.46","3","fallScene","true","","","","","","59","",""
"","","","","","html-keyboard-response","229","2232401","0.0-20.0-1.10","6782480e666627776dd0df39","6790928bebf0b969fc839b02","67929ca8197c86e1d188b06d","passed","","532","","","","","","","","","","","","","","f","yesOrNo","","","","3","","","lp","1000","","","","59","321.3","287.3327096511259"
"","","","","","html-keyboard-response","230","2233962","0.0-20.0-0.11","6782480e666627776dd0df39","6790928bebf0b969fc839b02","67929ca8197c86e1d188b06d","passed","","","","","","","","","","","","","","","","","ballFalling","322.3","296.07114317029976","371.46","3","fallScene","false","","","","","","60","",""
"","","","","","html-keyboard-response","231","2234969","0.0-20.0-1.11","6782480e666627776dd0df39","6790928bebf0b969fc839b02","67929ca8197c86e1d188b06d","passed","","448","","","","","","","","","","","","","","j","yesOrNo","","","","3","","","gt","1000","","","","60","296.07114317029976","371.46"
"","","","","","html-keyboard-response","232","2236762","0.0-20.0-0.12","6782480e666627776dd0df39","6790928bebf0b969fc839b02","67929ca8197c86e1d188b06d","passed","","","","","","","","","","","","","","","","","ballFalling","322.3","308.07114317029976","253.89","2","fallScene","true","","","","","","61","",""
"","","","","","html-keyboard-response","233","2237776","0.0-20.0-1.12","6782480e666627776dd0df39","6790928bebf0b969fc839b02","67929ca8197c86e1d188b06d","passed","","458","","","","","","","","","","","","","","j","yesOrNo","","","","2","","","gt","1000","","","","61","308.07114317029976","253.89"
"","","","","","html-keyboard-response","234","2239561","0.0-20.0-0.13","6782480e666627776dd0df39","6790928bebf0b969fc839b02","67929ca8197c86e1d188b06d","passed","","","","","","","","","","","","","","","","","ballFalling","322.3","308.07114317029976","253.89","2","fallScene","false","","","","","","62","",""
"","","","","","html-keyboard-response","235","2240576","0.0-20.0-1.13","6782480e666627776dd0df39","6790928bebf0b969fc839b02","67929ca8197c86e1d188b06d","passed","","333","","","","","","","","","","","","","","f","yesOrNo","","","","2","","","mid","1000","","","","62","321.3","300"
"","","","","","html-keyboard-response","236","2242128","0.0-20.0-0.14","6782480e666627776dd0df39","6790928bebf0b969fc839b02","67929ca8197c86e1d188b06d","passed","","","","","","","","","","","","","","","","","ballFalling","322.3","356.42114317029973","357.87","4","fallScene","true","","","","","","63","",""
"","","","","","html-keyboard-response","237","2243133","0.0-20.0-1.14","6782480e666627776dd0df39","6790928bebf0b969fc839b02","67929ca8197c86e1d188b06d","passed","","397","","","","","","","","","","","","","","j","yesOrNo","","","","4","","","gt","1000","","","","63","356.42114317029973","357.87"
"","","","","","html-keyboard-response","238","2244694","0.0-20.0-0.15","6782480e666627776dd0df39","6790928bebf0b969fc839b02","67929ca8197c86e1d188b06d","passed","","","","","","","","","","","","","","","","","ballFalling","604.4000000000001","575.4211431702997","266.76","12","fallScene","false","","","","","","64","",""
"","","","","","html-keyboard-response","239","2245704","0.0-20.0-1.15","6782480e666627776dd0df39","6790928bebf0b969fc839b02","67929ca8197c86e1d188b06d","passed","","400","","","","","","","","","","","","","","j","yesOrNo","","","","12","","","gt","1000","","","","64","575.4211431702997","266.76"
"","","","","","html-keyboard-response","240","2247361","0.0-20.0-0.16","6782480e666627776dd0df39","6790928bebf0b969fc839b02","67929ca8197c86e1d188b06d","passed","","","","","","","","","","","","","","","","","ballFalling","500","479.92114317029973","330.87","6","fallScene","false","","","","","","65","",""
"","","","","","html-keyboard-response","241","2248367","0.0-20.0-1.16","6782480e666627776dd0df39","6790928bebf0b969fc839b02","67929ca8197c86e1d188b06d","passed","","503","","","","","","","","","","","","","","j","yesOrNo","","","","6","","","lp","1000","","","","65","499","189.92909825697632"
"","","","","","html-keyboard-response","242","2249928","0.0-20.0-0.17","6782480e666627776dd0df39","6790928bebf0b969fc839b02","67929ca8197c86e1d188b06d","passed","","","","","","","","","","","","","","","","","ballFalling","604.4000000000001","650.0211431702996","404.58000000000004","11","fallScene","true","","","","","","66","",""
"","","","","","html-keyboard-response","243","2250933","0.0-20.0-1.17","6782480e666627776dd0df39","6790928bebf0b969fc839b02","67929ca8197c86e1d188b06d","passed","","502","","","","","","","","","","","","","","j","yesOrNo","","","","11","","","lp","1000","","","","66","605.4000000000001","372.6340973215488"
"","","","","","html-keyboard-response","244","2252594","0.0-20.0-0.18","6782480e666627776dd0df39","6790928bebf0b969fc839b02","67929ca8197c86e1d188b06d","passed","","","","","","","","","","","","","","","","","ballFalling","500","479.92114317029973","330.87","6","fallScene","true","","","","","","67","",""
"","","","","","html-keyboard-response","245","2253599","0.0-20.0-1.18","6782480e666627776dd0df39","6790928bebf0b969fc839b02","67929ca8197c86e1d188b06d","passed","","489","","","","","","","","","","","","","","j","yesOrNo","","","","6","","","gt","1000","","","","67","479.9211431702998","330.87"
"","","","","","html-keyboard-response","246","2255177","0.0-20.0-0.19","6782480e666627776dd0df39","6790928bebf0b969fc839b02","67929ca8197c86e1d188b06d","passed","","","","","","","","","","","","","","","","","ballFalling","500","553.4711431702997","282.51","7","fallScene","true","","","","","","68","",""
"","","","","","html-keyboard-response","247","2256182","0.0-20.0-1.19","6782480e666627776dd0df39","6790928bebf0b969fc839b02","67929ca8197c86e1d188b06d","passed","","480","","","","","","","","","","","","","","j","yesOrNo","","","","7","","","mid","1000","","","","68","501","300"
"","","","","","html-keyboard-response","248","2257744","0.0-20.0-0.20","6782480e666627776dd0df39","6790928bebf0b969fc839b02","67929ca8197c86e1d188b06d","passed","","","","","","","","","","","","","","","","","ballFalling","604.4000000000001","575.4211431702997","266.76","12","fallScene","false","","","","","","69","",""
"","","","","","html-keyboard-response","249","2258750","0.0-20.0-1.20","6782480e666627776dd0df39","6790928bebf0b969fc839b02","67929ca8197c86e1d188b06d","passed","","480","","","","","","","","","","","","","","j","yesOrNo","","","","12","","","gt","1000","","","","69","575.4211431702997","266.76"
"","","","","","html-keyboard-response","250","2260544","0.0-20.0-0.21","6782480e666627776dd0df39","6790928bebf0b969fc839b02","67929ca8197c86e1d188b06d","passed","","","","","","","","","","","","","","","","","ballFalling","322.3","308.07114317029976","253.89","2","fallScene","false","","","","","","70","",""
"","","","","","html-keyboard-response","251","2261549","0.0-20.0-1.21","6782480e666627776dd0df39","6790928bebf0b969fc839b02","67929ca8197c86e1d188b06d","passed","","82","","","","","","","","","","","","","","f","yesOrNo","","","","2","","","mid","1000","","","","70","321.3","300"
"","","","","","html-keyboard-response","252","2263210","0.0-20.0-0.22","6782480e666627776dd0df39","6790928bebf0b969fc839b02","67929ca8197c86e1d188b06d","passed","","","","","","","","","","","","","","","","","ballFalling","500","479.92114317029973","330.87","6","fallScene","true","","","","","","71","",""
"","","","","","html-keyboard-response","253","2264216","0.0-20.0-1.22","6782480e666627776dd0df39","6790928bebf0b969fc839b02","67929ca8197c86e1d188b06d","passed","","null","","","","","","","","","","","","","","null","yesOrNo","","","","6","","","gt","1000","","","","71","479.9211431702998","330.87"
"","","","","","html-keyboard-response","254","2265794","0.0-20.0-0.23","6782480e666627776dd0df39","6790928bebf0b969fc839b02","67929ca8197c86e1d188b06d","passed","","","","","","","","","","","","","","","","","ballFalling","500","553.4711431702997","282.51","7","fallScene","false","","","","","","72","",""
"","","","","","html-keyboard-response","255","2266799","0.0-20.0-1.23","6782480e666627776dd0df39","6790928bebf0b969fc839b02","67929ca8197c86e1d188b06d","passed","","null","","","","","","","","","","","","","","null","yesOrNo","","","","7","","","lp","1000","","","","72","501","227.2843295913261"
"","","","","","html-keyboard-response","256","2269985","0.0-21.0","6782480e666627776dd0df39","6790928bebf0b969fc839b02","67929ca8197c86e1d188b06d","passed","","3185","","","","","","","","","","","","","<p><span style=""font-size:40px;"">BLOCK 4</span></p><p><span style=""font-size:25px;"">You have <b style=""color: #FF644F;""><strong>3 second(s)</strong></b> to respond to the following trials.</span><br></p><p></p> <!-- Blank line -->
                <p id=""blinking-text"" style=""font-weight; animation: blink 2s infinite;"">Press Space to continue</p>
                <style>
                    @keyframes blink {
                        50% {
                            opacity: 0;
                        }
                    }
                </style></p>"," ","","","","","","","","","","","","","","",""
"","","","","","html-keyboard-response","257","2271543","0.0-22.0-0.0","6782480e666627776dd0df39","6790928bebf0b969fc839b02","67929ca8197c86e1d188b06d","passed","","","","","","","","","","","","","","","","","ballFalling","604.4000000000001","575.4211431702997","266.76","12","fallScene","false","","","","","","73","",""
"","","","","","html-keyboard-response","258","2274548","0.0-22.0-1.0","6782480e666627776dd0df39","6790928bebf0b969fc839b02","67929ca8197c86e1d188b06d","passed","","430","","","","","","","","","","","","","","j","yesOrNo","","","","12","","","gt","3000","","","","73","575.4211431702997","266.76"
"","","","","","html-keyboard-response","259","2276110","0.0-22.0-0.1","6782480e666627776dd0df39","6790928bebf0b969fc839b02","67929ca8197c86e1d188b06d","passed","","","","","","","","","","","","","","","","","ballFalling","322.3","296.07114317029976","371.46","3","fallScene","true","","","","","","74","",""
"","","","","","html-keyboard-response","260","2279115","0.0-22.0-1.1","6782480e666627776dd0df39","6790928bebf0b969fc839b02","67929ca8197c86e1d188b06d","passed","","1139","","","","","","","","","","","","","","j","yesOrNo","","","","3","","","mid","3000","","","","74","321.3","300"
"","","","","","html-keyboard-response","261","2281127","0.0-22.0-0.2","6782480e666627776dd0df39","6790928bebf0b969fc839b02","67929ca8197c86e1d188b06d","passed","","","","","","","","","","","","","","","","","ballFalling","604.4000000000001","596.8711431702998","394.5","10","fallScene","true","","","","","","75","",""
"","","","","","html-keyboard-response","262","2284132","0.0-22.0-1.2","6782480e666627776dd0df39","6790928bebf0b969fc839b02","67929ca8197c86e1d188b06d","passed","","1215","","","","","","","","","","","","","","f","yesOrNo","","","","10","","","gt","3000","","","","75","596.8711431702998","394.5"
"","","","","","html-keyboard-response","263","2285710","0.0-22.0-0.3","6782480e666627776dd0df39","6790928bebf0b969fc839b02","67929ca8197c86e1d188b06d","passed","","","","","","","","","","","","","","","","","ballFalling","500","553.4711431702997","282.51","7","fallScene","false","","","","","","76","",""
"","","","","","html-keyboard-response","264","2288716","0.0-22.0-1.3","6782480e666627776dd0df39","6790928bebf0b969fc839b02","67929ca8197c86e1d188b06d","passed","","799","","","","","","","","","","","","","","j","yesOrNo","","","","7","","","gt","3000","","","","76","553.4711431702997","282.51"
"","","","","","html-keyboard-response","265","2290509","0.0-22.0-0.4","6782480e666627776dd0df39","6790928bebf0b969fc839b02","67929ca8197c86e1d188b06d","passed","","","","","","","","","","","","","","","","","ballFalling","322.3","308.07114317029976","253.89","2","fallScene","false","","","","","","77","",""
"","","","","","html-keyboard-response","266","2293516","0.0-22.0-1.4","6782480e666627776dd0df39","6790928bebf0b969fc839b02","67929ca8197c86e1d188b06d","passed","","1264","","","","","","","","","","","","","","f","yesOrNo","","","","2","","","lp","3000","","","","77","321.3","151"
"","","","","","html-keyboard-response","267","2295076","0.0-22.0-0.5","6782480e666627776dd0df39","6790928bebf0b969fc839b02","67929ca8197c86e1d188b06d","passed","","","","","","","","","","","","","","","","","ballFalling","604.4000000000001","575.4211431702997","266.76","12","fallScene","false","","","","","","78","",""
"","","","","","html-keyboard-response","268","2298080","0.0-22.0-1.5","6782480e666627776dd0df39","6790928bebf0b969fc839b02","67929ca8197c86e1d188b06d","passed","","1030","","","","","","","","","","","","","","j","yesOrNo","","","","12","","","mid","3000","","","","78","536.4288568297004","300"
"","","","","","html-keyboard-response","269","2300092","0.0-22.0-0.6","6782480e666627776dd0df39","6790928bebf0b969fc839b02","67929ca8197c86e1d188b06d","passed","","","","","","","","","","","","","","","","","ballFalling","604.4000000000001","596.8711431702998","394.5","10","fallScene","false","","","","","","79","",""
"","","","","","html-keyboard-response","270","2303106","0.0-22.0-1.6","6782480e666627776dd0df39","6790928bebf0b969fc839b02","67929ca8197c86e1d188b06d","passed","","620","","","","","","","","","","","","","","j","yesOrNo","","","","10","","","mid","3000","","","","79","536.4288568297004","300"
"","","","","","html-keyboard-response","271","2304659","0.0-22.0-0.7","6782480e666627776dd0df39","6790928bebf0b969fc839b02","67929ca8197c86e1d188b06d","passed","","","","","","","","","","","","","","","","","ballFalling","500","453.67114317029973","210.33","5","fallScene","true","","","","","","80","",""
"","","","","","html-keyboard-response","272","2307666","0.0-22.0-1.7","6782480e666627776dd0df39","6790928bebf0b969fc839b02","67929ca8197c86e1d188b06d","passed","","1213","","","","","","","","","","","","","","f","yesOrNo","","","","5","","","lp","3000","","","","80","499","151"
"","","","","","html-keyboard-response","273","2309225","0.0-22.0-0.8","6782480e666627776dd0df39","6790928bebf0b969fc839b02","67929ca8197c86e1d188b06d","passed","","","","","","","","","","","","","","","","","ballFalling","500","453.67114317029973","210.33","5","fallScene","true","","","","","","81","",""
"","","","","","html-keyboard-response","274","2312230","0.0-22.0-1.8","6782480e666627776dd0df39","6790928bebf0b969fc839b02","67929ca8197c86e1d188b06d","passed","","1531","","","","","","","","","","","","","","j","yesOrNo","","","","5","","","lp","3000","","","","81","499","151"
"","","","","","html-keyboard-response","275","2313791","0.0-22.0-0.9","6782480e666627776dd0df39","6790928bebf0b969fc839b02","67929ca8197c86e1d188b06d","passed","","","","","","","","","","","","","","","","","ballFalling","322.3","296.07114317029976","371.46","3","fallScene","false","","","","","","82","",""
"","","","","","html-keyboard-response","276","2316796","0.0-22.0-1.9","6782480e666627776dd0df39","6790928bebf0b969fc839b02","67929ca8197c86e1d188b06d","passed","","774","","","","","","","","","","","","","","j","yesOrNo","","","","3","","","gt","3000","","","","82","296.07114317029976","371.46"
"","","","","","html-keyboard-response","277","2318375","0.0-22.0-0.10","6782480e666627776dd0df39","6790928bebf0b969fc839b02","67929ca8197c86e1d188b06d","passed","","","","","","","","","","","","","","","","","ballFalling","500","553.4711431702997","282.51","7","fallScene","false","","","","","","83","",""
"","","","","","html-keyboard-response","278","2321381","0.0-22.0-1.10","6782480e666627776dd0df39","6790928bebf0b969fc839b02","67929ca8197c86e1d188b06d","passed","","1252","","","","","","","","","","","","","","j","yesOrNo","","","","7","","","mid","3000","","","","83","501","300"
"","","","","","html-keyboard-response","279","2322875","0.0-22.0-0.11","6782480e666627776dd0df39","6790928bebf0b969fc839b02","67929ca8197c86e1d188b06d","passed","","","","","","","","","","","","","","","","","ballFalling","604.4000000000001","667.6211431702998","201.78","9","fallScene","false","","","","","","84","",""
"","","","","","html-keyboard-response","280","2325885","0.0-22.0-1.11","6782480e666627776dd0df39","6790928bebf0b969fc839b02","67929ca8197c86e1d188b06d","passed","","1337","","","","","","","","","","","","","","f","yesOrNo","","","","9","","","mid","3000","","","","84","605.4000000000001","300"
"","","","","","html-keyboard-response","281","2327891","0.0-22.0-0.12","6782480e666627776dd0df39","6790928bebf0b969fc839b02","67929ca8197c86e1d188b06d","passed","","","","","","","","","","","","","","","","","ballFalling","604.4000000000001","596.8711431702998","394.5","10","fallScene","false","","","","","","85","",""
"","","","","","html-keyboard-response","282","2330894","0.0-22.0-1.12","6782480e666627776dd0df39","6790928bebf0b969fc839b02","67929ca8197c86e1d188b06d","passed","","390","","","","","","","","","","","","","","j","yesOrNo","","","","10","","","lp","3000","","","","85","603.4000000000001","215.50214355555383"
"","","","","","html-keyboard-response","283","2332691","0.0-22.0-0.13","6782480e666627776dd0df39","6790928bebf0b969fc839b02","67929ca8197c86e1d188b06d","passed","","","","","","","","","","","","","","","","","ballFalling","322.3","308.07114317029976","253.89","2","fallScene","false","","","","","","86","",""
"","","","","","html-keyboard-response","284","2335697","0.0-22.0-1.13","6782480e666627776dd0df39","6790928bebf0b969fc839b02","67929ca8197c86e1d188b06d","passed","","806","","","","","","","","","","","","","","j","yesOrNo","","","","2","","","gt","3000","","","","86","308.07114317029976","253.89"
"","","","","","html-keyboard-response","285","2337708","0.0-22.0-0.14","6782480e666627776dd0df39","6790928bebf0b969fc839b02","67929ca8197c86e1d188b06d","passed","","","","","","","","","","","","","","","","","ballFalling","500","510.8711431702997","369.03","8","fallScene","true","","","","","","87","",""
"","","","","","html-keyboard-response","286","2340712","0.0-22.0-1.14","6782480e666627776dd0df39","6790928bebf0b969fc839b02","67929ca8197c86e1d188b06d","passed","","840","","","","","","","","","","","","","","j","yesOrNo","","","","8","","","mid","3000","","","","87","501","300"
"","","","","","html-keyboard-response","287","2342274","0.0-22.0-0.15","6782480e666627776dd0df39","6790928bebf0b969fc839b02","67929ca8197c86e1d188b06d","passed","","","","","","","","","","","","","","","","","ballFalling","322.3","379.3711431702997","245.25","1","fallScene","false","","","","","","88","",""
"","","","","","html-keyboard-response","288","2345278","0.0-22.0-1.15","6782480e666627776dd0df39","6790928bebf0b969fc839b02","67929ca8197c86e1d188b06d","passed","","931","","","","","","","","","","","","","","f","yesOrNo","","","","1","","","lp","3000","","","","88","323.3","217.74551669457017"
"","","","","","html-keyboard-response","289","2346774","0.0-22.0-0.16","6782480e666627776dd0df39","6790928bebf0b969fc839b02","67929ca8197c86e1d188b06d","passed","","","","","","","","","","","","","","","","","ballFalling","604.4000000000001","667.6211431702998","201.78","9","fallScene","false","","","","","","89","",""
"","","","","","html-keyboard-response","290","2349779","0.0-22.0-1.16","6782480e666627776dd0df39","6790928bebf0b969fc839b02","67929ca8197c86e1d188b06d","passed","","1548","","","","","","","","","","","","","","f","yesOrNo","","","","9","","","lp","3000","","","","89","605.4000000000001","151"
"","","","","","html-keyboard-response","291","2351790","0.0-22.0-0.17","6782480e666627776dd0df39","6790928bebf0b969fc839b02","67929ca8197c86e1d188b06d","passed","","","","","","","","","","","","","","","","","ballFalling","604.4000000000001","596.8711431702998","394.5","10","fallScene","true","","","","","","90","",""
"","","","","","html-keyboard-response","292","2354797","0.0-22.0-1.17","6782480e666627776dd0df39","6790928bebf0b969fc839b02","67929ca8197c86e1d188b06d","passed","","713","","","","","","","","","","","","","","f","yesOrNo","","","","10","","","gt","3000","","","","90","596.8711431702998","394.5"
