"success","timeout","failed_images","failed_audio","failed_video","trial_type","trial_index","time_elapsed","internal_node_id","subject_id","study_id","session_id","practiceTestResult","view_history","rt","width","height","webaudio","browser","browser_version","mobile","os","fullscreen","vsync_rate","webcam","microphone","url","stimulus","response","task","ball_X","obstacle_groundTruth_x","obstacle_groundTruth_y","stimulus_idx","trial_name","flipped","choice","timeLimit","question_order","currentTrial","obstacle_choice_x","obstacle_choice_y"
"true","false","[]","[]","[]","preload","0","722","0.0-0.0","679132978cc757ace902b1d1","6790928bebf0b969fc839b02","67929d43ace5dfdf446a8829","passed","","","","","","","","","","","","","","","","","","","","","","","","","","","","",""
"","","","","","instructions","1","3725","0.0-1.0","679132978cc757ace902b1d1","6790928bebf0b969fc839b02","67929d43ace5dfdf446a8829","passed","[{""page_index"":0,""viewing_time"":3000}]","3001","","","","","","","","","","","","","","","","","","","","","","","","","","",""
"","","","","","browser-check","2","4721","0.0-2.0","679132978cc757ace902b1d1","6790928bebf0b969fc839b02","67929d43ace5dfdf446a8829","passed","","","1440","641","true","chrome","131.0.0","false","Windows 10","true","61.09","true","true","","","","","","","","","","","","","","","",""
"","","","","","external-html","3","8583","0.0-3.0","679132978cc757ace902b1d1","6790928bebf0b969fc839b02","67929d43ace5dfdf446a8829","passed","","3623","","","","","","","","","","","","consent.html","","","","","","","","","","","","","","",""
"true","","","","","fullscreen","4","16489","0.0-4.0","679132978cc757ace902b1d1","6790928bebf0b969fc839b02","67929d43ace5dfdf446a8829","passed","","7572","","","","","","","","","","","","","","","","","","","","","","","","","","",""
"","","","","","browser-check","5","17493","0.0-5.0","679132978cc757ace902b1d1","6790928bebf0b969fc839b02","67929d43ace5dfdf446a8829","passed","","","1440","810","true","chrome","131.0.0","false","Windows 10","true","59.98","true","true","","","","","","","","","","","","","","","",""
"","","","","","html-keyboard-response","6","27148","0.0-6.0","679132978cc757ace902b1d1","6790928bebf0b969fc839b02","67929d43ace5dfdf446a8829","passed","","9651","","","","","","","","","","","","","<p><b>This experiment requires keyboard input.</b></p> 
        <p><b>To ensure your response will be recorded successfully, please press 'Space' to continue.</b></p>
        <p>If you can't proceed, you won't be able to complete this study.</p>
        <p></p> <!-- Blank line -->
        <p id=""blinking-text"" style=""font-weight; animation: blink 2s infinite;"">Press Space to continue</p>
        <style>
            @keyframes blink {
                50% {
                    opacity: 0;
                }
            }
        </style>"," ","","","","","","","","","","","","",""
"","","","","","html-keyboard-response","7","31314","0.0-7.0","679132978cc757ace902b1d1","6790928bebf0b969fc839b02","67929d43ace5dfdf446a8829","passed","","4164","","","","","","","","","","","","","<p><b>This experiment requires keyboard input.</b></p> 
        <p><b>To ensure your response will be recorded successfully, please press the 'f' key to continue.</b></p>
        <p>If you can't proceed, you won't be able to complete this study.</p>
        <p></p> <!-- Blank line -->
        <p id=""blinking-text"" style=""font-weight; animation: blink 2s infinite;"">Press f to continue</p>
        <style>
            @keyframes blink {
                50% {
                    opacity: 0;
                }
            }
        </style>","f","","","","","","","","","","","","",""
"","","","","","html-keyboard-response","8","37406","0.0-8.0","679132978cc757ace902b1d1","6790928bebf0b969fc839b02","67929d43ace5dfdf446a8829","passed","","6088","","","","","","","","","","","","","<p><b>This experiment requires keyboard input.</b></p> 
        <p><b>To ensure your response will be recorded successfully, please press the 'j' key to continue.</b></p>
        <p>If you can't proceed, you won't be able to complete this study.</p>
        <p></p> <!-- Blank line -->
        <p id=""blinking-text"" style=""font-weight; animation: blink 2s infinite;"">Press j to continue</p>
        <style>
            @keyframes blink {
                50% {
                    opacity: 0;
                }
            }
        </style>","j","","","","","","","","","","","","",""
"","","","","","browser-check","9","38420","0.0-9.0","679132978cc757ace902b1d1","6790928bebf0b969fc839b02","67929d43ace5dfdf446a8829","passed","","","1440","810","true","chrome","131.0.0","false","Windows 10","true","60.06","true","true","","","","","","","","","","","","","","","",""
"","","","","","survey-text","10","63810","0.0-10.0","679132978cc757ace902b1d1","6790928bebf0b969fc839b02","67929d43ace5dfdf446a8829","passed","","25376","","","","","","","","","","","","","","{""prolificID"":""679132978cc757ace902b1d1""}","","","","","","","","","","","","",""
"","","","","","instructions","11","541606","0.0-11.0-0.0-0.0","679132978cc757ace902b1d1","6790928bebf0b969fc839b02","67929d43ace5dfdf446a8829","passed","[{""page_index"":0,""viewing_time"":417489},{""page_index"":1,""viewing_time"":29808},{""page_index"":2,""viewing_time"":12319},{""page_index"":3,""viewing_time"":18179}]","477796","","","","","","","","","","","","","","","","","","","","","","","","","","",""
"","","","","","html-keyboard-response","12","561927","0.0-11.0-0.0-1.0","679132978cc757ace902b1d1","6790928bebf0b969fc839b02","67929d43ace5dfdf446a8829","passed","","19805","","","","","","","","","","","","","<br>Remember! After a ball falls, the screen will disappear, and you'll decide if the proposed position is where the hidden triangle was. <br>You will now practice this by watching a few videos and making decisions.<p>To respond:<br style=""margin-bottom: 5px; text-indent: -20px; padding-left: 20px;"">- Press <b style=""color: #12AD2B;"">J for Yes</b>, if you think the triangle is in the correct position.<br style=""margin-top: 0; text-indent: -20px; padding-left: 20px;"">- Press <b style=""color: orange;"">F for No</b>, if you think the triangle is not in the correct position.</p><p>In this practice round, there is no time limit. Focus on getting comfortable with the task first.<br>Press either J or F to begin your practice trials.</p><img src = ""YesOrNo_instruction.png"" style=""width: 65%;""></img>","j","","","","","","","","","","","","",""
"","","","","","html-keyboard-response","13","563612","0.0-11.0-0.0-2.0-0.0","679132978cc757ace902b1d1","6790928bebf0b969fc839b02","67929d43ace5dfdf446a8829","passed","","","","","","","","","","","","","","","","","ballFalling_prac","416","464","296","1","fallScene","false","","","","","",""
"","","","","","html-keyboard-response","14","564371","0.0-11.0-0.0-2.0-1.0","679132978cc757ace902b1d1","6790928bebf0b969fc839b02","67929d43ace5dfdf446a8829","passed","","751","","","","","","","","","","","","","","j","yesOrNo_prac_noTimed","","","","1","","","gt","NA","","","",""
"","","","","","html-keyboard-response","15","565949","0.0-11.0-0.0-2.0-0.1","679132978cc757ace902b1d1","6790928bebf0b969fc839b02","67929d43ace5dfdf446a8829","passed","","","","","","","","","","","","","","","","","ballFalling_prac","441","414","302","5","fallScene","true","","","","","",""
"","","","","","html-keyboard-response","16","566538","0.0-11.0-0.0-2.0-1.1","679132978cc757ace902b1d1","6790928bebf0b969fc839b02","67929d43ace5dfdf446a8829","passed","","584","","","","","","","","","","","","","","j","yesOrNo_prac_noTimed","","","","5","","","close gt","NA","","","",""
"","","","","","html-keyboard-response","17","568646","0.0-11.0-0.0-2.0-0.2","679132978cc757ace902b1d1","6790928bebf0b969fc839b02","67929d43ace5dfdf446a8829","passed","","","","","","","","","","","","","","","","","ballFalling_prac","660","666","350","3","fallScene","false","","","","","",""
"","","","","","html-keyboard-response","18","571586","0.0-11.0-0.0-2.0-1.2","679132978cc757ace902b1d1","6790928bebf0b969fc839b02","67929d43ace5dfdf446a8829","passed","","2933","","","","","","","","","","","","","","f","yesOrNo_prac_noTimed","","","","3","","","wrong direction","NA","","","",""
"","","","","","instructions","19","651685","0.0-11.0-0.0-3.0","679132978cc757ace902b1d1","6790928bebf0b969fc839b02","67929d43ace5dfdf446a8829","passed","[{""page_index"":0,""viewing_time"":46071},{""page_index"":1,""viewing_time"":34024}]","80098","","","","","","","","","","","","","","","","","","","","","","","","","","",""
"","","","","","html-button-response","20","655846","0.0-11.0-0.0-4.0","679132978cc757ace902b1d1","6790928bebf0b969fc839b02","67929d43ace5dfdf446a8829","passed","","3649","","","","","","","","","","","","","<p>To make sure you understood the task, we just have a <b>brief quiz</b> here.</p><p>If you need to review the instructions, click 'Previous'.</p><p>It's important to understand the task to do the study, so you have to pass the quiz to move to the study.</p>","1","","","","","","","","","","","","",""
"","","","","","survey-multi-choice","21","682162","0.0-11.0-1.0-0.0","679132978cc757ace902b1d1","6790928bebf0b969fc839b02","67929d43ace5dfdf446a8829","passed","","26305","","","","","","","","","","","","","","{""generalProcedure"":""Watch a video of a ball falling, some of it behind a gray screen. After each video, decide if the triangle is at the spot where the ball hit the triangle behind the screen. There is time limit for the response.""}","","","","","","","","","","[0]","","",""
"","","","","","survey-multi-choice","22","689790","0.0-11.0-1.0-1.0","679132978cc757ace902b1d1","6790928bebf0b969fc839b02","67929d43ace5dfdf446a8829","passed","","7623","","","","","","","","","","","","","","{""checkBallHitObstacle"":""Yes.""}","","","","","","","","","","[0]","","",""
"","","","","","survey-multi-choice","23","700824","0.0-11.0-1.0-2.0","679132978cc757ace902b1d1","6790928bebf0b969fc839b02","67929d43ace5dfdf446a8829","passed","","11031","","","","","","","","","","","","","","{""checkTriangleVisibility"":""No, the triangle is hidden behind the gray screen.""}","","","","","","","","","","[0]","","",""
"","","","","","survey-multi-choice","24","707391","0.0-11.0-1.0-3.0","679132978cc757ace902b1d1","6790928bebf0b969fc839b02","67929d43ace5dfdf446a8829","passed","","6565","","","","","","","","","","","","","","{""checkTimedResponse"":""Your response will not be recorded, and the trial will move to the next one.""}","","","","","","","","","","[0]","","",""
"","","","","","survey-multi-choice","25","716042","0.0-11.0-1.0-4.0","679132978cc757ace902b1d1","6790928bebf0b969fc839b02","67929d43ace5dfdf446a8829","passed","","8649","","","","","","","","","","","","","","{""checkTimeBlockNotice"":""At the beginning of each block.""}","","","","","","","","","","[0]","","",""
"","","","","","survey-multi-choice","26","727428","0.0-11.0-1.0-5.0","679132978cc757ace902b1d1","6790928bebf0b969fc839b02","67929d43ace5dfdf446a8829","passed","","11383","","","","","","","","","","","","","","{""checkTimeBlockSameness"":""Yes, the time limit is the same for all trials within a block.""}","","","","","","","","","","[0]","","",""
"","","","","","survey-multi-choice","27","782910","0.0-11.0-1.0-6.0","679132978cc757ace902b1d1","6790928bebf0b969fc839b02","67929d43ace5dfdf446a8829","passed","","55477","","","","","","","","","","","","","","{""checkTrianglePrecision"":""No. The proposed purple triangle is not in the correct position because it doesn't match the location of the white triangle exactly.""}","","","","","","","","","","[0]","","",""
"","","","","","instructions","28","908391","0.0-12.0","679132978cc757ace902b1d1","6790928bebf0b969fc839b02","67929d43ace5dfdf446a8829","passed","[{""page_index"":0,""viewing_time"":86514},{""page_index"":1,""viewing_time"":13183},{""page_index"":2,""viewing_time"":14843},{""page_index"":3,""viewing_time"":10937}]","125477","","","","","","","","","","","","","","","","","","","","","","","","","","",""
"","","","","","instructions","29","915386","0.0-13.0-0.0","679132978cc757ace902b1d1","6790928bebf0b969fc839b02","67929d43ace5dfdf446a8829","passed","[{""page_index"":0,""viewing_time"":6994}]","6995","","","","","","","","","","","","","","","","","","","","","","","","","","",""
"","","","","","html-keyboard-response","30","921186","0.0-13.0-1.0","679132978cc757ace902b1d1","6790928bebf0b969fc839b02","67929d43ace5dfdf446a8829","passed","","5799","","","","","","","","","","","","","<p><span style=""font-size:40px;"">Practice BLOCK 1</span></p><p><span style=""font-size:25px;"">You have <b style=""color: #FF644F;""><strong>3 second(s)</strong></b> to respond to the following trials.</span><br></p><p id=""blinking-text"" style=""font-weight; animation: blink 2s infinite;"">Press Space to continue</p><style>
                    @keyframes blink {
                        50% {
                            opacity: 0;
                        }
                    }
                </style>"," ","","","","","","","","","","","","",""
"","","","","","html-keyboard-response","31","922750","0.0-13.0-2.0-0.0","679132978cc757ace902b1d1","6790928bebf0b969fc839b02","67929d43ace5dfdf446a8829","passed","","","","","","","","","","","","","","","","","ballFalling_prac","584","536","296","1","fallScene","true","","","","","",""
"","","","","","html-keyboard-response","32","925765","0.0-13.0-2.0-1.0","679132978cc757ace902b1d1","6790928bebf0b969fc839b02","67929d43ace5dfdf446a8829","passed","","900","","","","","","","","","","","","","","f","yesOrNo_prac","","","","1","","","close gt","3000","","","",""
"","","","","","html-keyboard-response","33","927329","0.0-13.0-2.0-0.1","679132978cc757ace902b1d1","6790928bebf0b969fc839b02","67929d43ace5dfdf446a8829","passed","","","","","","","","","","","","","","","","","ballFalling_prac","416","464","296","1","fallScene","false","","","","","",""
"","","","","","html-keyboard-response","34","930335","0.0-13.0-2.0-1.1","679132978cc757ace902b1d1","6790928bebf0b969fc839b02","67929d43ace5dfdf446a8829","passed","","1368","","","","","","","","","","","","","","j","yesOrNo_prac","","","","1","","","far gt","3000","","","",""
"","","","","","html-keyboard-response","35","931914","0.0-13.0-2.0-0.2","679132978cc757ace902b1d1","6790928bebf0b969fc839b02","67929d43ace5dfdf446a8829","passed","","","","","","","","","","","","","","","","","ballFalling_prac","660","610","263","4","fallScene","false","","","","","",""
"","","","","","html-keyboard-response","36","934927","0.0-13.0-2.0-1.2","679132978cc757ace902b1d1","6790928bebf0b969fc839b02","67929d43ace5dfdf446a8829","passed","","585","","","","","","","","","","","","","","j","yesOrNo_prac","","","","4","","","gt","3000","","","",""
"","","","","","html-keyboard-response","37","937115","0.0-13.0-3.0","679132978cc757ace902b1d1","6790928bebf0b969fc839b02","67929d43ace5dfdf446a8829","passed","","2186","","","","","","","","","","","","","<p><span style=""font-size:40px;"">Practice BLOCK 2</span></p><p><span style=""font-size:25px;"">You have <b style=""color: #FF644F;""><strong>1 second(s)</strong></b> to respond to the following trials.</span><br></p><p id=""blinking-text"" style=""font-weight; animation: blink 2s infinite;"">Press Space to continue</p><style>
                    @keyframes blink {
                        50% {
                            opacity: 0;
                        }
                    }
                </style>"," ","","","","","","","","","","","","",""
"","","","","","html-keyboard-response","38","938696","0.0-13.0-4.0-0.0","679132978cc757ace902b1d1","6790928bebf0b969fc839b02","67929d43ace5dfdf446a8829","passed","","","","","","","","","","","","","","","","","ballFalling_prac","660","610","263","4","fallScene","false","","","","","",""
"","","","","","html-keyboard-response","39","939708","0.0-13.0-4.0-1.0","679132978cc757ace902b1d1","6790928bebf0b969fc839b02","67929d43ace5dfdf446a8829","passed","","550","","","","","","","","","","","","","","j","yesOrNo_prac","","","","4","","","far gt","1000","","","",""
"","","","","","html-keyboard-response","40","941274","0.0-13.0-4.0-0.1","679132978cc757ace902b1d1","6790928bebf0b969fc839b02","67929d43ace5dfdf446a8829","passed","","","","","","","","","","","","","","","","","ballFalling_prac","441","500","317","6","fallScene","true","","","","","",""
"","","","","","html-keyboard-response","41","942280","0.0-13.0-4.0-1.1","679132978cc757ace902b1d1","6790928bebf0b969fc839b02","67929d43ace5dfdf446a8829","passed","","669","","","","","","","","","","","","","","j","yesOrNo_prac","","","","6","","","gt","1000","","","",""
"","","","","","html-keyboard-response","42","944395","0.0-13.0-4.0-0.2","679132978cc757ace902b1d1","6790928bebf0b969fc839b02","67929d43ace5dfdf446a8829","passed","","","","","","","","","","","","","","","","","ballFalling_prac","340","334","350","3","fallScene","true","","","","","",""
"","","","","","html-keyboard-response","43","945406","0.0-13.0-4.0-1.2","679132978cc757ace902b1d1","6790928bebf0b969fc839b02","67929d43ace5dfdf446a8829","passed","","null","","","","","","","","","","","","","","null","yesOrNo_prac","","","","3","","","close gt","1000","","","",""
"","","","","","instructions","44","987180","0.0-13.0-5.0","679132978cc757ace902b1d1","6790928bebf0b969fc839b02","67929d43ace5dfdf446a8829","passed","[{""page_index"":0,""viewing_time"":41771}]","41772","","","","","","","","","","","","","","","","","","","","","","","","","","",""
"","","","","","html-keyboard-response","45","991431","0.0-13.0-6.0","679132978cc757ace902b1d1","6790928bebf0b969fc839b02","67929d43ace5dfdf446a8829","passed","","4250","","","","","","","","","","","","","<p><span style=""font-size:40px;"">Practice Test BLOCK 1</span></p><p><span style=""font-size:25px;"">You have <b style=""color: #FF644F;""><strong>1 second(s)</strong></b> to respond to the following trials.</span><br></p><p id=""blinking-text"" style=""font-weight; animation: blink 2s infinite;"">Press Space to continue</p><style>
                    @keyframes blink {
                        50% {
                            opacity: 0;
                        }
                    }
                </style>"," ","","","","","","","","","","","","",""
"","","","","","html-keyboard-response","46","993009","0.0-13.0-7.0-0.0","679132978cc757ace902b1d1","6790928bebf0b969fc839b02","67929d43ace5dfdf446a8829","passed","","","","","","","","","","","","","","","","","ballFalling_prac","340","390","263","4","fallScene","true","","","","","",""
"","","","","","html-keyboard-response","47","994018","0.0-13.0-7.0-1.0","679132978cc757ace902b1d1","6790928bebf0b969fc839b02","67929d43ace5dfdf446a8829","passed","","null","","","","","","","","","","","","","","null","yesOrNo_prac","","","","4","","","far gt","1000","","","",""
"","","","","","html-keyboard-response","48","995575","0.0-13.0-7.0-0.1","679132978cc757ace902b1d1","6790928bebf0b969fc839b02","67929d43ace5dfdf446a8829","passed","","","","","","","","","","","","","","","","","ballFalling_prac","441","500","317","6","fallScene","true","","","","","",""
"","","","","","html-keyboard-response","49","996588","0.0-13.0-7.0-1.1","679132978cc757ace902b1d1","6790928bebf0b969fc839b02","67929d43ace5dfdf446a8829","passed","","482","","","","","","","","","","","","","","j","yesOrNo_prac","","","","6","","","close gt","1000","","","",""
"","","","","","html-keyboard-response","50","998158","0.0-13.0-7.0-0.2","679132978cc757ace902b1d1","6790928bebf0b969fc839b02","67929d43ace5dfdf446a8829","passed","","","","","","","","","","","","","","","","","ballFalling_prac","559","586","302","5","fallScene","false","","","","","",""
"","","","","","html-keyboard-response","51","999172","0.0-13.0-7.0-1.2","679132978cc757ace902b1d1","6790928bebf0b969fc839b02","67929d43ace5dfdf446a8829","passed","","921","","","","","","","","","","","","","","j","yesOrNo_prac","","","","5","","","gt","1000","","","",""
"","","","","","html-keyboard-response","52","1002510","0.0-13.0-8.0","679132978cc757ace902b1d1","6790928bebf0b969fc839b02","67929d43ace5dfdf446a8829","passed","","3335","","","","","","","","","","","","","<p><span style=""font-size:40px;"">Practice Test BLOCK 2</span></p><p><span style=""font-size:25px;"">You have <b style=""color: #FF644F;""><strong>3 second(s)</strong></b> to respond to the following trials.</span><br></p><p id=""blinking-text"" style=""font-weight; animation: blink 2s infinite;"">Press Space to continue</p><style>
                    @keyframes blink {
                        50% {
                            opacity: 0;
                        }
                    }
                </style>"," ","","","","","","","","","","","","",""
"","","","","","html-keyboard-response","53","1004104","0.0-13.0-9.0-0.0","679132978cc757ace902b1d1","6790928bebf0b969fc839b02","67929d43ace5dfdf446a8829","passed","","","","","","","","","","","","","","","","","ballFalling_prac","416","365","249","2","fallScene","false","","","","","",""
"","","","","","html-keyboard-response","54","1007121","0.0-13.0-9.0-1.0","679132978cc757ace902b1d1","6790928bebf0b969fc839b02","67929d43ace5dfdf446a8829","passed","","941","","","","","","","","","","","","","","j","yesOrNo_prac","","","","2","","","gt","3000","","","",""
"","","","","","html-keyboard-response","55","1008689","0.0-13.0-9.0-0.1","679132978cc757ace902b1d1","6790928bebf0b969fc839b02","67929d43ace5dfdf446a8829","passed","","","","","","","","","","","","","","","","","ballFalling_prac","340","390","263","4","fallScene","true","","","","","",""
"","","","","","html-keyboard-response","56","1011698","0.0-13.0-9.0-1.1","679132978cc757ace902b1d1","6790928bebf0b969fc839b02","67929d43ace5dfdf446a8829","passed","","942","","","","","","","","","","","","","","j","yesOrNo_prac","","","","4","","","close gt","3000","","","",""
"","","","","","html-keyboard-response","57","1013270","0.0-13.0-9.0-0.2","679132978cc757ace902b1d1","6790928bebf0b969fc839b02","67929d43ace5dfdf446a8829","passed","","","","","","","","","","","","","","","","","ballFalling_prac","559","586","302","5","fallScene","false","","","","","",""
"","","","","","html-keyboard-response","58","1016278","0.0-13.0-9.0-1.2","679132978cc757ace902b1d1","6790928bebf0b969fc839b02","67929d43ace5dfdf446a8829","passed","","1758","","","","","","","","","","","","","","f","yesOrNo_prac","","","","5","","","far gt","3000","","","",""
"","","","","","instructions","59","1031383","0.0-14.0","679132978cc757ace902b1d1","6790928bebf0b969fc839b02","67929d43ace5dfdf446a8829","passed","[{""page_index"":0,""viewing_time"":15100}]","15102","","","","","","","","","","","","","","","","","","","","","","","","","","",""
"","","","","","html-keyboard-response","60","1040552","0.0-15.0","679132978cc757ace902b1d1","6790928bebf0b969fc839b02","67929d43ace5dfdf446a8829","passed","","9167","","","","","","","","","","","","","<p><span style=""font-size:40px;"">BLOCK 1</span></p><p><span style=""font-size:25px;"">You have <b style=""color: #FF644F;""><strong>3 second(s)</strong></b> to respond to the following trials.</span><br></p><p></p> <!-- Blank line -->
                <p id=""blinking-text"" style=""font-weight; animation: blink 2s infinite;"">Press Space to continue</p>
                <style>
                    @keyframes blink {
                        50% {
                            opacity: 0;
                        }
                    }
                </style></p>"," ","","","","","","","","","","","","",""
"","","","","","html-keyboard-response","61","1042343","0.0-16.0-0.0","679132978cc757ace902b1d1","6790928bebf0b969fc839b02","67929d43ace5dfdf446a8829","passed","","","","","","","","","","","","","","","","","ballFalling","322.3","308.07114317029976","253.89","2","fallScene","false","","","","1","",""
"","","","","","html-keyboard-response","62","1045348","0.0-16.0-1.0","679132978cc757ace902b1d1","6790928bebf0b969fc839b02","67929d43ace5dfdf446a8829","passed","","1188","","","","","","","","","","","","","","j","yesOrNo","","","","2","","","mid","3000","","1","321.3","300"
"","","","","","html-keyboard-response","63","1046929","0.0-16.0-0.1","679132978cc757ace902b1d1","6790928bebf0b969fc839b02","67929d43ace5dfdf446a8829","passed","","","","","","","","","","","","","","","","","ballFalling","500","553.4711431702997","282.51","7","fallScene","true","","","","2","",""
"","","","","","html-keyboard-response","64","1049942","0.0-16.0-1.1","679132978cc757ace902b1d1","6790928bebf0b969fc839b02","67929d43ace5dfdf446a8829","passed","","1272","","","","","","","","","","","","","","j","yesOrNo","","","","7","","","mid","3000","","2","501","300"
"","","","","","html-keyboard-response","65","1051521","0.0-16.0-0.2","679132978cc757ace902b1d1","6790928bebf0b969fc839b02","67929d43ace5dfdf446a8829","passed","","","","","","","","","","","","","","","","","ballFalling","500","553.4711431702997","282.51","7","fallScene","true","","","","3","",""
"","","","","","html-keyboard-response","66","1054526","0.0-16.0-1.2","679132978cc757ace902b1d1","6790928bebf0b969fc839b02","67929d43ace5dfdf446a8829","passed","","755","","","","","","","","","","","","","","j","yesOrNo","","","","7","","","gt","3000","","3","553.4711431702997","282.51"
"","","","","","html-keyboard-response","67","1056090","0.0-16.0-0.3","679132978cc757ace902b1d1","6790928bebf0b969fc839b02","67929d43ace5dfdf446a8829","passed","","","","","","","","","","","","","","","","","ballFalling","604.4000000000001","650.0211431702996","404.58000000000004","11","fallScene","true","","","","4","",""
"","","","","","html-keyboard-response","68","1059102","0.0-16.0-1.3","679132978cc757ace902b1d1","6790928bebf0b969fc839b02","67929d43ace5dfdf446a8829","passed","","1012","","","","","","","","","","","","","","f","yesOrNo","","","","11","","","mid","3000","","4","605.4000000000001","300"
"","","","","","html-keyboard-response","69","1060674","0.0-16.0-0.4","679132978cc757ace902b1d1","6790928bebf0b969fc839b02","67929d43ace5dfdf446a8829","passed","","","","","","","","","","","","","","","","","ballFalling","500","553.4711431702997","282.51","7","fallScene","false","","","","5","",""
"","","","","","html-keyboard-response","70","1063678","0.0-16.0-1.4","679132978cc757ace902b1d1","6790928bebf0b969fc839b02","67929d43ace5dfdf446a8829","passed","","1360","","","","","","","","","","","","","","j","yesOrNo","","","","7","","","lp","3000","","5","501","227.2843295913261"
"","","","","","html-keyboard-response","71","1065239","0.0-16.0-0.5","679132978cc757ace902b1d1","6790928bebf0b969fc839b02","67929d43ace5dfdf446a8829","passed","","","","","","","","","","","","","","","","","ballFalling","604.4000000000001","650.0211431702996","404.58000000000004","11","fallScene","true","","","","6","",""
"","","","","","html-keyboard-response","72","1068244","0.0-16.0-1.5","679132978cc757ace902b1d1","6790928bebf0b969fc839b02","67929d43ace5dfdf446a8829","passed","","1452","","","","","","","","","","","","","","j","yesOrNo","","","","11","","","mid","3000","","6","605.4000000000001","300"
"","","","","","html-keyboard-response","73","1069803","0.0-16.0-0.6","679132978cc757ace902b1d1","6790928bebf0b969fc839b02","67929d43ace5dfdf446a8829","passed","","","","","","","","","","","","","","","","","ballFalling","500","453.67114317029973","210.33","5","fallScene","false","","","","7","",""
"","","","","","html-keyboard-response","74","1072807","0.0-16.0-1.6","679132978cc757ace902b1d1","6790928bebf0b969fc839b02","67929d43ace5dfdf446a8829","passed","","649","","","","","","","","","","","","","","j","yesOrNo","","","","5","","","gt","3000","","7","453.6711431702998","210.33"
"","","","","","html-keyboard-response","75","1074471","0.0-16.0-0.7","679132978cc757ace902b1d1","6790928bebf0b969fc839b02","67929d43ace5dfdf446a8829","passed","","","","","","","","","","","","","","","","","ballFalling","500","479.92114317029973","330.87","6","fallScene","false","","","","8","",""
"","","","","","html-keyboard-response","76","1077484","0.0-16.0-1.7","679132978cc757ace902b1d1","6790928bebf0b969fc839b02","67929d43ace5dfdf446a8829","passed","","1750","","","","","","","","","","","","","","j","yesOrNo","","","","6","","","lp","3000","","8","499","189.92909825697632"
"","","","","","html-keyboard-response","77","1079036","0.0-16.0-0.8","679132978cc757ace902b1d1","6790928bebf0b969fc839b02","67929d43ace5dfdf446a8829","passed","","","","","","","","","","","","","","","","","ballFalling","500","453.67114317029973","210.33","5","fallScene","true","","","","9","",""
"","","","","","html-keyboard-response","78","1082049","0.0-16.0-1.8","679132978cc757ace902b1d1","6790928bebf0b969fc839b02","67929d43ace5dfdf446a8829","passed","","285","","","","","","","","","","","","","","f","yesOrNo","","","","5","","","mid","3000","","9","499","300"
"","","","","","html-keyboard-response","79","1083601","0.0-16.0-0.9","679132978cc757ace902b1d1","6790928bebf0b969fc839b02","67929d43ace5dfdf446a8829","passed","","","","","","","","","","","","","","","","","ballFalling","604.4000000000001","650.0211431702996","404.58000000000004","11","fallScene","false","","","","10","",""
"","","","","","html-keyboard-response","80","1086615","0.0-16.0-1.9","679132978cc757ace902b1d1","6790928bebf0b969fc839b02","67929d43ace5dfdf446a8829","passed","","1234","","","","","","","","","","","","","","f","yesOrNo","","","","11","","","gt","3000","","10","650.0211431702996","404.58"
"","","","","","html-keyboard-response","81","1088173","0.0-16.0-0.10","679132978cc757ace902b1d1","6790928bebf0b969fc839b02","67929d43ace5dfdf446a8829","passed","","","","","","","","","","","","","","","","","ballFalling","322.3","356.42114317029973","357.87","4","fallScene","false","","","","11","",""
"","","","","","html-keyboard-response","82","1091181","0.0-16.0-1.10","679132978cc757ace902b1d1","6790928bebf0b969fc839b02","67929d43ace5dfdf446a8829","passed","","1081","","","","","","","","","","","","","","j","yesOrNo","","","","4","","","lp","3000","","11","323.3","297.4070551689986"
"","","","","","html-keyboard-response","83","1092739","0.0-16.0-0.11","679132978cc757ace902b1d1","6790928bebf0b969fc839b02","67929d43ace5dfdf446a8829","passed","","","","","","","","","","","","","","","","","ballFalling","322.3","379.3711431702997","245.25","1","fallScene","true","","","","12","",""
"","","","","","html-keyboard-response","84","1095746","0.0-16.0-1.11","679132978cc757ace902b1d1","6790928bebf0b969fc839b02","67929d43ace5dfdf446a8829","passed","","1123","","","","","","","","","","","","","","j","yesOrNo","","","","1","","","mid","3000","","12","390.27114317029975","300"
"","","","","","html-keyboard-response","85","1097531","0.0-16.0-0.12","679132978cc757ace902b1d1","6790928bebf0b969fc839b02","67929d43ace5dfdf446a8829","passed","","","","","","","","","","","","","","","","","ballFalling","322.3","308.07114317029976","253.89","2","fallScene","true","","","","13","",""
"","","","","","html-keyboard-response","86","1100544","0.0-16.0-1.12","679132978cc757ace902b1d1","6790928bebf0b969fc839b02","67929d43ace5dfdf446a8829","passed","","2102","","","","","","","","","","","","","","f","yesOrNo","","","","2","","","mid","3000","","13","321.3","300"
"","","","","","html-keyboard-response","87","1102556","0.0-16.0-0.13","679132978cc757ace902b1d1","6790928bebf0b969fc839b02","67929d43ace5dfdf446a8829","passed","","","","","","","","","","","","","","","","","ballFalling","604.4000000000001","596.8711431702998","394.5","10","fallScene","true","","","","14","",""
"","","","","","html-keyboard-response","88","1105562","0.0-16.0-1.13","679132978cc757ace902b1d1","6790928bebf0b969fc839b02","67929d43ace5dfdf446a8829","passed","","1004","","","","","","","","","","","","","","j","yesOrNo","","","","10","","","lp","3000","","14","603.4000000000001","215.50214355555383"
"","","","","","html-keyboard-response","89","1107579","0.0-16.0-0.14","679132978cc757ace902b1d1","6790928bebf0b969fc839b02","67929d43ace5dfdf446a8829","passed","","","","","","","","","","","","","","","","","ballFalling","500","510.8711431702997","369.03","8","fallScene","true","","","","15","",""
"","","","","","html-keyboard-response","90","1110586","0.0-16.0-1.14","679132978cc757ace902b1d1","6790928bebf0b969fc839b02","67929d43ace5dfdf446a8829","passed","","802","","","","","","","","","","","","","","f","yesOrNo","","","","8","","","gt","3000","","15","510.8711431702997","369.03"
"","","","","","html-keyboard-response","91","1112593","0.0-16.0-0.15","679132978cc757ace902b1d1","6790928bebf0b969fc839b02","67929d43ace5dfdf446a8829","passed","","","","","","","","","","","","","","","","","ballFalling","500","510.8711431702997","369.03","8","fallScene","true","","","","16","",""
"","","","","","html-keyboard-response","92","1115598","0.0-16.0-1.15","679132978cc757ace902b1d1","6790928bebf0b969fc839b02","67929d43ace5dfdf446a8829","passed","","551","","","","","","","","","","","","","","j","yesOrNo","","","","8","","","mid","3000","","16","501","300"
"","","","","","html-keyboard-response","93","1117612","0.0-16.0-0.16","679132978cc757ace902b1d1","6790928bebf0b969fc839b02","67929d43ace5dfdf446a8829","passed","","","","","","","","","","","","","","","","","ballFalling","604.4000000000001","596.8711431702998","394.5","10","fallScene","true","","","","17","",""
"","","","","","html-keyboard-response","94","1120621","0.0-16.0-1.16","679132978cc757ace902b1d1","6790928bebf0b969fc839b02","67929d43ace5dfdf446a8829","passed","","31","","","","","","","","","","","","","","j","yesOrNo","","","","10","","","mid","3000","","17","536.4288568297004","300"
"","","","","","html-keyboard-response","95","1122175","0.0-16.0-0.17","679132978cc757ace902b1d1","6790928bebf0b969fc839b02","67929d43ace5dfdf446a8829","passed","","","","","","","","","","","","","","","","","ballFalling","604.4000000000001","575.4211431702997","266.76","12","fallScene","false","","","","18","",""
"","","","","","html-keyboard-response","96","1125185","0.0-16.0-1.17","679132978cc757ace902b1d1","6790928bebf0b969fc839b02","67929d43ace5dfdf446a8829","passed","","671","","","","","","","","","","","","","","j","yesOrNo","","","","12","","","gt","3000","","18","575.4211431702997","266.76"
"","","","","","html-keyboard-response","97","1126742","0.0-16.0-0.18","679132978cc757ace902b1d1","6790928bebf0b969fc839b02","67929d43ace5dfdf446a8829","passed","","","","","","","","","","","","","","","","","ballFalling","604.4000000000001","650.0211431702996","404.58000000000004","11","fallScene","false","","","","19","",""
"","","","","","html-keyboard-response","98","1129753","0.0-16.0-1.18","679132978cc757ace902b1d1","6790928bebf0b969fc839b02","67929d43ace5dfdf446a8829","passed","","594","","","","","","","","","","","","","","f","yesOrNo","","","","11","","","lp","3000","","19","605.4000000000001","372.6340973215488"
"","","","","","html-keyboard-response","99","1131239","0.0-16.0-0.19","679132978cc757ace902b1d1","6790928bebf0b969fc839b02","67929d43ace5dfdf446a8829","passed","","","","","","","","","","","","","","","","","ballFalling","604.4000000000001","667.6211431702998","201.78","9","fallScene","true","","","","20","",""
"","","","","","html-keyboard-response","100","1134243","0.0-16.0-1.19","679132978cc757ace902b1d1","6790928bebf0b969fc839b02","67929d43ace5dfdf446a8829","passed","","982","","","","","","","","","","","","","","f","yesOrNo","","","","9","","","gt","3000","","20","667.6211431702998","201.78"
"","","","","","html-keyboard-response","101","1135805","0.0-16.0-0.20","679132978cc757ace902b1d1","6790928bebf0b969fc839b02","67929d43ace5dfdf446a8829","passed","","","","","","","","","","","","","","","","","ballFalling","322.3","356.42114317029973","357.87","4","fallScene","true","","","","21","",""
"","","","","","html-keyboard-response","102","1138816","0.0-16.0-1.20","679132978cc757ace902b1d1","6790928bebf0b969fc839b02","67929d43ace5dfdf446a8829","passed","","342","","","","","","","","","","","","","","j","yesOrNo","","","","4","","","lp","3000","","21","323.3","297.4070551689986"
"","","","","","html-keyboard-response","103","1140369","0.0-16.0-0.21","679132978cc757ace902b1d1","6790928bebf0b969fc839b02","67929d43ace5dfdf446a8829","passed","","","","","","","","","","","","","","","","","ballFalling","322.3","356.42114317029973","357.87","4","fallScene","false","","","","22","",""
"","","","","","html-keyboard-response","104","1143383","0.0-16.0-1.21","679132978cc757ace902b1d1","6790928bebf0b969fc839b02","67929d43ace5dfdf446a8829","passed","","11","","","","","","","","","","","","","","j","yesOrNo","","","","4","","","gt","3000","","22","356.42114317029973","357.87"
"","","","","","html-keyboard-response","105","1144936","0.0-16.0-0.22","679132978cc757ace902b1d1","6790928bebf0b969fc839b02","67929d43ace5dfdf446a8829","passed","","","","","","","","","","","","","","","","","ballFalling","322.3","296.07114317029976","371.46","3","fallScene","true","","","","23","",""
"","","","","","html-keyboard-response","106","1147948","0.0-16.0-1.22","679132978cc757ace902b1d1","6790928bebf0b969fc839b02","67929d43ace5dfdf446a8829","passed","","708","","","","","","","","","","","","","","f","yesOrNo","","","","3","","","lp","3000","","23","321.3","287.3327096511259"
"","","","","","html-keyboard-response","107","1149500","0.0-16.0-0.23","679132978cc757ace902b1d1","6790928bebf0b969fc839b02","67929d43ace5dfdf446a8829","passed","","","","","","","","","","","","","","","","","ballFalling","500","453.67114317029973","210.33","5","fallScene","false","","","","24","",""
"","","","","","html-keyboard-response","108","1152512","0.0-16.0-1.23","679132978cc757ace902b1d1","6790928bebf0b969fc839b02","67929d43ace5dfdf446a8829","passed","","1028","","","","","","","","","","","","","","f","yesOrNo","","","","5","","","lp","3000","","24","499","151"
"","","","","","html-keyboard-response","109","1154501","0.0-17.0","679132978cc757ace902b1d1","6790928bebf0b969fc839b02","67929d43ace5dfdf446a8829","passed","","1987","","","","","","","","","","","","","<p><span style=""font-size:40px;"">BLOCK 2</span></p><p><span style=""font-size:25px;"">You have <b style=""color: #FF644F;""><strong>3 second(s)</strong></b> to respond to the following trials.</span><br></p><p></p> <!-- Blank line -->
                <p id=""blinking-text"" style=""font-weight; animation: blink 2s infinite;"">Press Space to continue</p>
                <style>
                    @keyframes blink {
                        50% {
                            opacity: 0;
                        }
                    }
                </style></p>"," ","","","","","","","","","","","","",""
"","","","","","html-keyboard-response","110","1156065","0.0-18.0-0.0","679132978cc757ace902b1d1","6790928bebf0b969fc839b02","67929d43ace5dfdf446a8829","passed","","","","","","","","","","","","","","","","","ballFalling","322.3","356.42114317029973","357.87","4","fallScene","true","","","","25","",""
"","","","","","html-keyboard-response","111","1159068","0.0-18.0-1.0","679132978cc757ace902b1d1","6790928bebf0b969fc839b02","67929d43ace5dfdf446a8829","passed","","417","","","","","","","","","","","","","","j","yesOrNo","","","","4","","","mid","3000","","25","390.27114317029975","300"
"","","","","","html-keyboard-response","112","1160630","0.0-18.0-0.1","679132978cc757ace902b1d1","6790928bebf0b969fc839b02","67929d43ace5dfdf446a8829","passed","","","","","","","","","","","","","","","","","ballFalling","604.4000000000001","575.4211431702997","266.76","12","fallScene","false","","","","26","",""
"","","","","","html-keyboard-response","113","1163643","0.0-18.0-1.1","679132978cc757ace902b1d1","6790928bebf0b969fc839b02","67929d43ace5dfdf446a8829","passed","","409","","","","","","","","","","","","","","j","yesOrNo","","","","12","","","gt","3000","","26","575.4211431702997","266.76"
"","","","","","html-keyboard-response","114","1165646","0.0-18.0-0.2","679132978cc757ace902b1d1","6790928bebf0b969fc839b02","67929d43ace5dfdf446a8829","passed","","","","","","","","","","","","","","","","","ballFalling","500","510.8711431702997","369.03","8","fallScene","true","","","","27","",""
"","","","","","html-keyboard-response","115","1168660","0.0-18.0-1.2","679132978cc757ace902b1d1","6790928bebf0b969fc839b02","67929d43ace5dfdf446a8829","passed","","132","","","","","","","","","","","","","","j","yesOrNo","","","","8","","","lp","3000","","27","501","151"
"","","","","","html-keyboard-response","116","1170145","0.0-18.0-0.3","679132978cc757ace902b1d1","6790928bebf0b969fc839b02","67929d43ace5dfdf446a8829","passed","","","","","","","","","","","","","","","","","ballFalling","604.4000000000001","667.6211431702998","201.78","9","fallScene","false","","","","28","",""
"","","","","","html-keyboard-response","117","1173158","0.0-18.0-1.3","679132978cc757ace902b1d1","6790928bebf0b969fc839b02","67929d43ace5dfdf446a8829","passed","","353","","","","","","","","","","","","","","f","yesOrNo","","","","9","","","lp","3000","","28","605.4000000000001","151"
"","","","","","html-keyboard-response","118","1175160","0.0-18.0-0.4","679132978cc757ace902b1d1","6790928bebf0b969fc839b02","67929d43ace5dfdf446a8829","passed","","","","","","","","","","","","","","","","","ballFalling","604.4000000000001","596.8711431702998","394.5","10","fallScene","false","","","","29","",""
"","","","","","html-keyboard-response","119","1178172","0.0-18.0-1.4","679132978cc757ace902b1d1","6790928bebf0b969fc839b02","67929d43ace5dfdf446a8829","passed","","203","","","","","","","","","","","","","","j","yesOrNo","","","","10","","","mid","3000","","29","536.4288568297004","300"
"","","","","","html-keyboard-response","120","1179726","0.0-18.0-0.5","679132978cc757ace902b1d1","6790928bebf0b969fc839b02","67929d43ace5dfdf446a8829","passed","","","","","","","","","","","","","","","","","ballFalling","322.3","296.07114317029976","371.46","3","fallScene","true","","","","30","",""
"","","","","","html-keyboard-response","121","1182738","0.0-18.0-1.5","679132978cc757ace902b1d1","6790928bebf0b969fc839b02","67929d43ace5dfdf446a8829","passed","","483","","","","","","","","","","","","","","f","yesOrNo","","","","3","","","mid","3000","","30","321.3","300"
"","","","","","html-keyboard-response","122","1184292","0.0-18.0-0.6","679132978cc757ace902b1d1","6790928bebf0b969fc839b02","67929d43ace5dfdf446a8829","passed","","","","","","","","","","","","","","","","","ballFalling","604.4000000000001","650.0211431702996","404.58000000000004","11","fallScene","false","","","","31","",""
"","","","","","html-keyboard-response","123","1187301","0.0-18.0-1.6","679132978cc757ace902b1d1","6790928bebf0b969fc839b02","67929d43ace5dfdf446a8829","passed","","644","","","","","","","","","","","","","","f","yesOrNo","","","","11","","","gt","3000","","31","650.0211431702996","404.58"
"","","","","","html-keyboard-response","124","1188858","0.0-18.0-0.7","679132978cc757ace902b1d1","6790928bebf0b969fc839b02","67929d43ace5dfdf446a8829","passed","","","","","","","","","","","","","","","","","ballFalling","322.3","296.07114317029976","371.46","3","fallScene","true","","","","32","",""
"","","","","","html-keyboard-response","125","1191871","0.0-18.0-1.7","679132978cc757ace902b1d1","6790928bebf0b969fc839b02","67929d43ace5dfdf446a8829","passed","","1788","","","","","","","","","","","","","","f","yesOrNo","","","","3","","","gt","3000","","32","296.07114317029976","371.46"
"","","","","","html-keyboard-response","126","1193422","0.0-18.0-0.8","679132978cc757ace902b1d1","6790928bebf0b969fc839b02","67929d43ace5dfdf446a8829","passed","","","","","","","","","","","","","","","","","ballFalling","322.3","379.3711431702997","245.25","1","fallScene","true","","","","33","",""
"","","","","","html-keyboard-response","127","1196432","0.0-18.0-1.8","679132978cc757ace902b1d1","6790928bebf0b969fc839b02","67929d43ace5dfdf446a8829","passed","","982","","","","","","","","","","","","","","j","yesOrNo","","","","1","","","gt","3000","","33","379.3711431702997","245.25"
"","","","","","html-keyboard-response","128","1197922","0.0-18.0-0.9","679132978cc757ace902b1d1","6790928bebf0b969fc839b02","67929d43ace5dfdf446a8829","passed","","","","","","","","","","","","","","","","","ballFalling","604.4000000000001","667.6211431702998","201.78","9","fallScene","true","","","","34","",""
"","","","","","html-keyboard-response","129","1200932","0.0-18.0-1.9","679132978cc757ace902b1d1","6790928bebf0b969fc839b02","67929d43ace5dfdf446a8829","passed","","2660","","","","","","","","","","","","","","f","yesOrNo","","","","9","","","mid","3000","","34","605.4000000000001","300"
"","","","","","html-keyboard-response","130","1202732","0.0-18.0-0.10","679132978cc757ace902b1d1","6790928bebf0b969fc839b02","67929d43ace5dfdf446a8829","passed","","","","","","","","","","","","","","","","","ballFalling","322.3","308.07114317029976","253.89","2","fallScene","true","","","","35","",""
"","","","","","html-keyboard-response","131","1205747","0.0-18.0-1.10","679132978cc757ace902b1d1","6790928bebf0b969fc839b02","67929d43ace5dfdf446a8829","passed","","1057","","","","","","","","","","","","","","j","yesOrNo","","","","2","","","gt","3000","","35","308.07114317029976","253.89"
"","","","","","html-keyboard-response","132","1207536","0.0-18.0-0.11","679132978cc757ace902b1d1","6790928bebf0b969fc839b02","67929d43ace5dfdf446a8829","passed","","","","","","","","","","","","","","","","","ballFalling","322.3","308.07114317029976","253.89","2","fallScene","false","","","","36","",""
"","","","","","html-keyboard-response","133","1210544","0.0-18.0-1.11","679132978cc757ace902b1d1","6790928bebf0b969fc839b02","67929d43ace5dfdf446a8829","passed","","1880","","","","","","","","","","","","","","j","yesOrNo","","","","2","","","gt","3000","","36","308.07114317029976","253.89"
"","","","","","html-keyboard-response","134","1212563","0.0-18.0-0.12","679132978cc757ace902b1d1","6790928bebf0b969fc839b02","67929d43ace5dfdf446a8829","passed","","","","","","","","","","","","","","","","","ballFalling","604.4000000000001","596.8711431702998","394.5","10","fallScene","false","","","","37","",""
"","","","","","html-keyboard-response","135","1215576","0.0-18.0-1.12","679132978cc757ace902b1d1","6790928bebf0b969fc839b02","67929d43ace5dfdf446a8829","passed","","784","","","","","","","","","","","","","","j","yesOrNo","","","","10","","","gt","3000","","37","596.8711431702998","394.5"
"","","","","","html-keyboard-response","136","1217132","0.0-18.0-0.13","679132978cc757ace902b1d1","6790928bebf0b969fc839b02","67929d43ace5dfdf446a8829","passed","","","","","","","","","","","","","","","","","ballFalling","604.4000000000001","575.4211431702997","266.76","12","fallScene","true","","","","38","",""
"","","","","","html-keyboard-response","137","1220144","0.0-18.0-1.13","679132978cc757ace902b1d1","6790928bebf0b969fc839b02","67929d43ace5dfdf446a8829","passed","","1158","","","","","","","","","","","","","","j","yesOrNo","","","","12","","","mid","3000","","38","536.4288568297004","300"
"","","","","","html-keyboard-response","138","1221799","0.0-18.0-0.14","679132978cc757ace902b1d1","6790928bebf0b969fc839b02","67929d43ace5dfdf446a8829","passed","","","","","","","","","","","","","","","","","ballFalling","500","479.92114317029973","330.87","6","fallScene","false","","","","39","",""
"","","","","","html-keyboard-response","139","1224808","0.0-18.0-1.14","679132978cc757ace902b1d1","6790928bebf0b969fc839b02","67929d43ace5dfdf446a8829","passed","","848","","","","","","","","","","","","","","j","yesOrNo","","","","6","","","mid","3000","","39","499","300"
"","","","","","html-keyboard-response","140","1226822","0.0-18.0-0.15","679132978cc757ace902b1d1","6790928bebf0b969fc839b02","67929d43ace5dfdf446a8829","passed","","","","","","","","","","","","","","","","","ballFalling","500","510.8711431702997","369.03","8","fallScene","false","","","","40","",""
"","","","","","html-keyboard-response","141","1229830","0.0-18.0-1.15","679132978cc757ace902b1d1","6790928bebf0b969fc839b02","67929d43ace5dfdf446a8829","passed","","1110","","","","","","","","","","","","","","j","yesOrNo","","","","8","","","gt","3000","","40","510.8711431702997","369.03"
"","","","","","html-keyboard-response","142","1231409","0.0-18.0-0.16","679132978cc757ace902b1d1","6790928bebf0b969fc839b02","67929d43ace5dfdf446a8829","passed","","","","","","","","","","","","","","","","","ballFalling","322.3","379.3711431702997","245.25","1","fallScene","true","","","","41","",""
"","","","","","html-keyboard-response","143","1234413","0.0-18.0-1.16","679132978cc757ace902b1d1","6790928bebf0b969fc839b02","67929d43ace5dfdf446a8829","passed","","565","","","","","","","","","","","","","","j","yesOrNo","","","","1","","","mid","3000","","41","390.27114317029975","300"
"","","","","","html-keyboard-response","144","1235978","0.0-18.0-0.17","679132978cc757ace902b1d1","6790928bebf0b969fc839b02","67929d43ace5dfdf446a8829","passed","","","","","","","","","","","","","","","","","ballFalling","322.3","296.07114317029976","371.46","3","fallScene","false","","","","42","",""
"","","","","","html-keyboard-response","145","1238989","0.0-18.0-1.17","679132978cc757ace902b1d1","6790928bebf0b969fc839b02","67929d43ace5dfdf446a8829","passed","","153","","","","","","","","","","","","","","f","yesOrNo","","","","3","","","gt","3000","","42","296.07114317029976","371.46"
"","","","","","html-keyboard-response","146","1240992","0.0-18.0-0.18","679132978cc757ace902b1d1","6790928bebf0b969fc839b02","67929d43ace5dfdf446a8829","passed","","","","","","","","","","","","","","","","","ballFalling","500","510.8711431702997","369.03","8","fallScene","true","","","","43","",""
"","","","","","html-keyboard-response","147","1244000","0.0-18.0-1.18","679132978cc757ace902b1d1","6790928bebf0b969fc839b02","67929d43ace5dfdf446a8829","passed","","592","","","","","","","","","","","","","","j","yesOrNo","","","","8","","","mid","3000","","43","501","300"
"","","","","","html-keyboard-response","148","1245660","0.0-18.0-0.19","679132978cc757ace902b1d1","6790928bebf0b969fc839b02","67929d43ace5dfdf446a8829","passed","","","","","","","","","","","","","","","","","ballFalling","500","479.92114317029973","330.87","6","fallScene","true","","","","44","",""
"","","","","","html-keyboard-response","149","1248672","0.0-18.0-1.19","679132978cc757ace902b1d1","6790928bebf0b969fc839b02","67929d43ace5dfdf446a8829","passed","","1144","","","","","","","","","","","","","","j","yesOrNo","","","","6","","","mid","3000","","44","499","300"
"","","","","","html-keyboard-response","150","1250256","0.0-18.0-0.20","679132978cc757ace902b1d1","6790928bebf0b969fc839b02","67929d43ace5dfdf446a8829","passed","","","","","","","","","","","","","","","","","ballFalling","500","553.4711431702997","282.51","7","fallScene","false","","","","45","",""
"","","","","","html-keyboard-response","151","1253268","0.0-18.0-1.20","679132978cc757ace902b1d1","6790928bebf0b969fc839b02","67929d43ace5dfdf446a8829","passed","","501","","","","","","","","","","","","","","j","yesOrNo","","","","7","","","gt","3000","","45","553.4711431702997","282.51"
"","","","","","html-keyboard-response","152","1254823","0.0-18.0-0.21","679132978cc757ace902b1d1","6790928bebf0b969fc839b02","67929d43ace5dfdf446a8829","passed","","","","","","","","","","","","","","","","","ballFalling","322.3","379.3711431702997","245.25","1","fallScene","false","","","","46","",""
"","","","","","html-keyboard-response","153","1257833","0.0-18.0-1.21","679132978cc757ace902b1d1","6790928bebf0b969fc839b02","67929d43ace5dfdf446a8829","passed","","618","","","","","","","","","","","","","","j","yesOrNo","","","","1","","","lp","3000","","46","323.3","217.74551669457017"
"","","","","","html-keyboard-response","154","1259499","0.0-18.0-0.22","679132978cc757ace902b1d1","6790928bebf0b969fc839b02","67929d43ace5dfdf446a8829","passed","","","","","","","","","","","","","","","","","ballFalling","500","479.92114317029973","330.87","6","fallScene","true","","","","47","",""
"","","","","","html-keyboard-response","155","1262503","0.0-18.0-1.22","679132978cc757ace902b1d1","6790928bebf0b969fc839b02","67929d43ace5dfdf446a8829","passed","","103","","","","","","","","","","","","","","j","yesOrNo","","","","6","","","lp","3000","","47","499","189.92909825697632"
"","","","","","html-keyboard-response","156","1264068","0.0-18.0-0.23","679132978cc757ace902b1d1","6790928bebf0b969fc839b02","67929d43ace5dfdf446a8829","passed","","","","","","","","","","","","","","","","","ballFalling","322.3","296.07114317029976","371.46","3","fallScene","true","","","","48","",""
"","","","","","html-keyboard-response","157","1267081","0.0-18.0-1.23","679132978cc757ace902b1d1","6790928bebf0b969fc839b02","67929d43ace5dfdf446a8829","passed","","725","","","","","","","","","","","","","","f","yesOrNo","","","","3","","","mid","3000","","48","321.3","300"
"","","","","","html-keyboard-response","158","1272352","0.0-19.0","679132978cc757ace902b1d1","6790928bebf0b969fc839b02","67929d43ace5dfdf446a8829","passed","","5270","","","","","","","","","","","","","<p><span style=""font-size:40px;"">BLOCK 3</span></p><p><span style=""font-size:25px;"">You have <b style=""color: #FF644F;""><strong>1 second(s)</strong></b> to respond to the following trials.</span><br></p><p></p> <!-- Blank line -->
                <p id=""blinking-text"" style=""font-weight; animation: blink 2s infinite;"">Press Space to continue</p>
                <style>
                    @keyframes blink {
                        50% {
                            opacity: 0;
                        }
                    }
                </style></p>"," ","","","","","","","","","","","","",""
"","","","","","html-keyboard-response","159","1273934","0.0-20.0-0.0","679132978cc757ace902b1d1","6790928bebf0b969fc839b02","67929d43ace5dfdf446a8829","passed","","","","","","","","","","","","","","","","","ballFalling","500","553.4711431702997","282.51","7","fallScene","true","","","","49","",""
"","","","","","html-keyboard-response","160","1274943","0.0-20.0-1.0","679132978cc757ace902b1d1","6790928bebf0b969fc839b02","67929d43ace5dfdf446a8829","passed","","413","","","","","","","","","","","","","","j","yesOrNo","","","","7","","","mid","1000","","49","501","300"
"","","","","","html-keyboard-response","161","1276515","0.0-20.0-0.1","679132978cc757ace902b1d1","6790928bebf0b969fc839b02","67929d43ace5dfdf446a8829","passed","","","","","","","","","","","","","","","","","ballFalling","322.3","356.42114317029973","357.87","4","fallScene","false","","","","50","",""
"","","","","","html-keyboard-response","162","1277524","0.0-20.0-1.1","679132978cc757ace902b1d1","6790928bebf0b969fc839b02","67929d43ace5dfdf446a8829","passed","","444","","","","","","","","","","","","","","j","yesOrNo","","","","4","","","mid","1000","","50","390.27114317029975","300"
"","","","","","html-keyboard-response","163","1279083","0.0-20.0-0.2","679132978cc757ace902b1d1","6790928bebf0b969fc839b02","67929d43ace5dfdf446a8829","passed","","","","","","","","","","","","","","","","","ballFalling","604.4000000000001","650.0211431702996","404.58000000000004","11","fallScene","true","","","","51","",""
"","","","","","html-keyboard-response","164","1280098","0.0-20.0-1.2","679132978cc757ace902b1d1","6790928bebf0b969fc839b02","67929d43ace5dfdf446a8829","passed","","441","","","","","","","","","","","","","","f","yesOrNo","","","","11","","","gt","1000","","51","650.0211431702996","404.58"
"","","","","","html-keyboard-response","165","1281649","0.0-20.0-0.3","679132978cc757ace902b1d1","6790928bebf0b969fc839b02","67929d43ace5dfdf446a8829","passed","","","","","","","","","","","","","","","","","ballFalling","604.4000000000001","575.4211431702997","266.76","12","fallScene","true","","","","52","",""
"","","","","","html-keyboard-response","166","1282659","0.0-20.0-1.3","679132978cc757ace902b1d1","6790928bebf0b969fc839b02","67929d43ace5dfdf446a8829","passed","","385","","","","","","","","","","","","","","j","yesOrNo","","","","12","","","lp","1000","","52","603.4000000000001","151"
"","","","","","html-keyboard-response","167","1284217","0.0-20.0-0.4","679132978cc757ace902b1d1","6790928bebf0b969fc839b02","67929d43ace5dfdf446a8829","passed","","","","","","","","","","","","","","","","","ballFalling","322.3","296.07114317029976","371.46","3","fallScene","false","","","","53","",""
"","","","","","html-keyboard-response","168","1285229","0.0-20.0-1.4","679132978cc757ace902b1d1","6790928bebf0b969fc839b02","67929d43ace5dfdf446a8829","passed","","null","","","","","","","","","","","","","","null","yesOrNo","","","","3","","","mid","1000","","53","321.3","300"
"","","","","","html-keyboard-response","169","1286716","0.0-20.0-0.5","679132978cc757ace902b1d1","6790928bebf0b969fc839b02","67929d43ace5dfdf446a8829","passed","","","","","","","","","","","","","","","","","ballFalling","604.4000000000001","667.6211431702998","201.78","9","fallScene","false","","","","54","",""
"","","","","","html-keyboard-response","170","1287724","0.0-20.0-1.5","679132978cc757ace902b1d1","6790928bebf0b969fc839b02","67929d43ace5dfdf446a8829","passed","","601","","","","","","","","","","","","","","f","yesOrNo","","","","9","","","gt","1000","","54","667.6211431702998","201.78"
"","","","","","html-keyboard-response","171","1289380","0.0-20.0-0.6","679132978cc757ace902b1d1","6790928bebf0b969fc839b02","67929d43ace5dfdf446a8829","passed","","","","","","","","","","","","","","","","","ballFalling","500","479.92114317029973","330.87","6","fallScene","true","","","","55","",""
"","","","","","html-keyboard-response","172","1290389","0.0-20.0-1.6","679132978cc757ace902b1d1","6790928bebf0b969fc839b02","67929d43ace5dfdf446a8829","passed","","770","","","","","","","","","","","","","","j","yesOrNo","","","","6","","","lp","1000","","55","499","189.92909825697632"
"","","","","","html-keyboard-response","173","1291962","0.0-20.0-0.7","679132978cc757ace902b1d1","6790928bebf0b969fc839b02","67929d43ace5dfdf446a8829","passed","","","","","","","","","","","","","","","","","ballFalling","500","553.4711431702997","282.51","7","fallScene","false","","","","56","",""
"","","","","","html-keyboard-response","174","1292973","0.0-20.0-1.7","679132978cc757ace902b1d1","6790928bebf0b969fc839b02","67929d43ace5dfdf446a8829","passed","","811","","","","","","","","","","","","","","j","yesOrNo","","","","7","","","gt","1000","","56","553.4711431702997","282.51"
"","","","","","html-keyboard-response","175","1294529","0.0-20.0-0.8","679132978cc757ace902b1d1","6790928bebf0b969fc839b02","67929d43ace5dfdf446a8829","passed","","","","","","","","","","","","","","","","","ballFalling","322.3","296.07114317029976","371.46","3","fallScene","false","","","","57","",""
"","","","","","html-keyboard-response","176","1295538","0.0-20.0-1.8","679132978cc757ace902b1d1","6790928bebf0b969fc839b02","67929d43ace5dfdf446a8829","passed","","384","","","","","","","","","","","","","","f","yesOrNo","","","","3","","","mid","1000","","57","321.3","300"
"","","","","","html-keyboard-response","177","1297197","0.0-20.0-0.9","679132978cc757ace902b1d1","6790928bebf0b969fc839b02","67929d43ace5dfdf446a8829","passed","","","","","","","","","","","","","","","","","ballFalling","500","479.92114317029973","330.87","6","fallScene","false","","","","58","",""
"","","","","","html-keyboard-response","178","1298205","0.0-20.0-1.9","679132978cc757ace902b1d1","6790928bebf0b969fc839b02","67929d43ace5dfdf446a8829","passed","","886","","","","","","","","","","","","","","f","yesOrNo","","","","6","","","lp","1000","","58","499","189.92909825697632"
"","","","","","html-keyboard-response","179","1299869","0.0-20.0-0.10","679132978cc757ace902b1d1","6790928bebf0b969fc839b02","67929d43ace5dfdf446a8829","passed","","","","","","","","","","","","","","","","","ballFalling","500","479.92114317029973","330.87","6","fallScene","true","","","","59","",""
"","","","","","html-keyboard-response","180","1300876","0.0-20.0-1.10","679132978cc757ace902b1d1","6790928bebf0b969fc839b02","67929d43ace5dfdf446a8829","passed","","993","","","","","","","","","","","","","","j","yesOrNo","","","","6","","","mid","1000","","59","499","300"
"","","","","","html-keyboard-response","181","1302439","0.0-20.0-0.11","679132978cc757ace902b1d1","6790928bebf0b969fc839b02","67929d43ace5dfdf446a8829","passed","","","","","","","","","","","","","","","","","ballFalling","604.4000000000001","575.4211431702997","266.76","12","fallScene","false","","","","60","",""
"","","","","","html-keyboard-response","182","1303446","0.0-20.0-1.11","679132978cc757ace902b1d1","6790928bebf0b969fc839b02","67929d43ace5dfdf446a8829","passed","","662","","","","","","","","","","","","","","j","yesOrNo","","","","12","","","gt","1000","","60","575.4211431702997","266.76"
"","","","","","html-keyboard-response","183","1305110","0.0-20.0-0.12","679132978cc757ace902b1d1","6790928bebf0b969fc839b02","67929d43ace5dfdf446a8829","passed","","","","","","","","","","","","","","","","","ballFalling","500","479.92114317029973","330.87","6","fallScene","false","","","","61","",""
"","","","","","html-keyboard-response","184","1306124","0.0-20.0-1.12","679132978cc757ace902b1d1","6790928bebf0b969fc839b02","67929d43ace5dfdf446a8829","passed","","465","","","","","","","","","","","","","","j","yesOrNo","","","","6","","","gt","1000","","61","479.9211431702998","330.87"
"","","","","","html-keyboard-response","185","1307676","0.0-20.0-0.13","679132978cc757ace902b1d1","6790928bebf0b969fc839b02","67929d43ace5dfdf446a8829","passed","","","","","","","","","","","","","","","","","ballFalling","322.3","356.42114317029973","357.87","4","fallScene","true","","","","62","",""
"","","","","","html-keyboard-response","186","1308691","0.0-20.0-1.13","679132978cc757ace902b1d1","6790928bebf0b969fc839b02","67929d43ace5dfdf446a8829","passed","","517","","","","","","","","","","","","","","j","yesOrNo","","","","4","","","gt","1000","","62","356.42114317029973","357.87"
"","","","","","html-keyboard-response","187","1310259","0.0-20.0-0.14","679132978cc757ace902b1d1","6790928bebf0b969fc839b02","67929d43ace5dfdf446a8829","passed","","","","","","","","","","","","","","","","","ballFalling","500","553.4711431702997","282.51","7","fallScene","false","","","","63","",""
"","","","","","html-keyboard-response","188","1311268","0.0-20.0-1.14","679132978cc757ace902b1d1","6790928bebf0b969fc839b02","67929d43ace5dfdf446a8829","passed","","712","","","","","","","","","","","","","","j","yesOrNo","","","","7","","","lp","1000","","63","501","227.2843295913261"
"","","","","","html-keyboard-response","189","1312825","0.0-20.0-0.15","679132978cc757ace902b1d1","6790928bebf0b969fc839b02","67929d43ace5dfdf446a8829","passed","","","","","","","","","","","","","","","","","ballFalling","322.3","296.07114317029976","371.46","3","fallScene","false","","","","64","",""
"","","","","","html-keyboard-response","190","1313838","0.0-20.0-1.15","679132978cc757ace902b1d1","6790928bebf0b969fc839b02","67929d43ace5dfdf446a8829","passed","","616","","","","","","","","","","","","","","f","yesOrNo","","","","3","","","lp","1000","","64","321.3","287.3327096511259"
"","","","","","html-keyboard-response","191","1315625","0.0-20.0-0.16","679132978cc757ace902b1d1","6790928bebf0b969fc839b02","67929d43ace5dfdf446a8829","passed","","","","","","","","","","","","","","","","","ballFalling","322.3","308.07114317029976","253.89","2","fallScene","false","","","","65","",""
"","","","","","html-keyboard-response","192","1316638","0.0-20.0-1.16","679132978cc757ace902b1d1","6790928bebf0b969fc839b02","67929d43ace5dfdf446a8829","passed","","765","","","","","","","","","","","","","","f","yesOrNo","","","","2","","","gt","1000","","65","308.07114317029976","253.89"
"","","","","","html-keyboard-response","193","1318206","0.0-20.0-0.17","679132978cc757ace902b1d1","6790928bebf0b969fc839b02","67929d43ace5dfdf446a8829","passed","","","","","","","","","","","","","","","","","ballFalling","322.3","379.3711431702997","245.25","1","fallScene","true","","","","66","",""
"","","","","","html-keyboard-response","194","1319214","0.0-20.0-1.17","679132978cc757ace902b1d1","6790928bebf0b969fc839b02","67929d43ace5dfdf446a8829","passed","","550","","","","","","","","","","","","","","f","yesOrNo","","","","1","","","mid","1000","","66","390.27114317029975","300"
"","","","","","html-keyboard-response","195","1320781","0.0-20.0-0.18","679132978cc757ace902b1d1","6790928bebf0b969fc839b02","67929d43ace5dfdf446a8829","passed","","","","","","","","","","","","","","","","","ballFalling","500","453.67114317029973","210.33","5","fallScene","false","","","","67","",""
"","","","","","html-keyboard-response","196","1321787","0.0-20.0-1.18","679132978cc757ace902b1d1","6790928bebf0b969fc839b02","67929d43ace5dfdf446a8829","passed","","746","","","","","","","","","","","","","","f","yesOrNo","","","","5","","","lp","1000","","67","499","151"
"","","","","","html-keyboard-response","197","1323322","0.0-20.0-0.19","679132978cc757ace902b1d1","6790928bebf0b969fc839b02","67929d43ace5dfdf446a8829","passed","","","","","","","","","","","","","","","","","ballFalling","500","453.67114317029973","210.33","5","fallScene","true","","","","68","",""
"","","","","","html-keyboard-response","198","1324332","0.0-20.0-1.19","679132978cc757ace902b1d1","6790928bebf0b969fc839b02","67929d43ace5dfdf446a8829","passed","","null","","","","","","","","","","","","","","null","yesOrNo","","","","5","","","mid","1000","","68","499","300"
"","","","","","html-keyboard-response","199","1326337","0.0-20.0-0.20","679132978cc757ace902b1d1","6790928bebf0b969fc839b02","67929d43ace5dfdf446a8829","passed","","","","","","","","","","","","","","","","","ballFalling","500","510.8711431702997","369.03","8","fallScene","true","","","","69","",""
"","","","","","html-keyboard-response","200","1327350","0.0-20.0-1.20","679132978cc757ace902b1d1","6790928bebf0b969fc839b02","67929d43ace5dfdf446a8829","passed","","491","","","","","","","","","","","","","","j","yesOrNo","","","","8","","","mid","1000","","69","501","300"
"","","","","","html-keyboard-response","201","1329360","0.0-20.0-0.21","679132978cc757ace902b1d1","6790928bebf0b969fc839b02","67929d43ace5dfdf446a8829","passed","","","","","","","","","","","","","","","","","ballFalling","604.4000000000001","596.8711431702998","394.5","10","fallScene","true","","","","70","",""
"","","","","","html-keyboard-response","202","1330368","0.0-20.0-1.21","679132978cc757ace902b1d1","6790928bebf0b969fc839b02","67929d43ace5dfdf446a8829","passed","","176","","","","","","","","","","","","","","j","yesOrNo","","","","10","","","gt","1000","","70","596.8711431702998","394.5"
"","","","","","html-keyboard-response","203","1332370","0.0-20.0-0.22","679132978cc757ace902b1d1","6790928bebf0b969fc839b02","67929d43ace5dfdf446a8829","passed","","","","","","","","","","","","","","","","","ballFalling","500","510.8711431702997","369.03","8","fallScene","false","","","","71","",""
"","","","","","html-keyboard-response","204","1333385","0.0-20.0-1.22","679132978cc757ace902b1d1","6790928bebf0b969fc839b02","67929d43ace5dfdf446a8829","passed","","null","","","","","","","","","","","","","","null","yesOrNo","","","","8","","","mid","1000","","71","501","300"
"","","","","","html-keyboard-response","205","1334870","0.0-20.0-0.23","679132978cc757ace902b1d1","6790928bebf0b969fc839b02","67929d43ace5dfdf446a8829","passed","","","","","","","","","","","","","","","","","ballFalling","604.4000000000001","667.6211431702998","201.78","9","fallScene","true","","","","72","",""
"","","","","","html-keyboard-response","206","1335876","0.0-20.0-1.23","679132978cc757ace902b1d1","6790928bebf0b969fc839b02","67929d43ace5dfdf446a8829","passed","","560","","","","","","","","","","","","","","f","yesOrNo","","","","9","","","lp","1000","","72","605.4000000000001","151"
"","","","","","html-keyboard-response","207","1337596","0.0-21.0","679132978cc757ace902b1d1","6790928bebf0b969fc839b02","67929d43ace5dfdf446a8829","passed","","1718","","","","","","","","","","","","","<p><span style=""font-size:40px;"">BLOCK 4</span></p><p><span style=""font-size:25px;"">You have <b style=""color: #FF644F;""><strong>1 second(s)</strong></b> to respond to the following trials.</span><br></p><p></p> <!-- Blank line -->
                <p id=""blinking-text"" style=""font-weight; animation: blink 2s infinite;"">Press Space to continue</p>
                <style>
                    @keyframes blink {
                        50% {
                            opacity: 0;
                        }
                    }
                </style></p>"," ","","","","","","","","","","","","",""
"","","","","","html-keyboard-response","208","1339151","0.0-22.0-0.0","679132978cc757ace902b1d1","6790928bebf0b969fc839b02","67929d43ace5dfdf446a8829","passed","","","","","","","","","","","","","","","","","ballFalling","604.4000000000001","575.4211431702997","266.76","12","fallScene","false","","","","73","",""
"","","","","","html-keyboard-response","209","1340165","0.0-22.0-1.0","679132978cc757ace902b1d1","6790928bebf0b969fc839b02","67929d43ace5dfdf446a8829","passed","","269","","","","","","","","","","","","","","j","yesOrNo","","","","12","","","mid","1000","","73","536.4288568297004","300"
"","","","","","html-keyboard-response","210","1341736","0.0-22.0-0.1","679132978cc757ace902b1d1","6790928bebf0b969fc839b02","67929d43ace5dfdf446a8829","passed","","","","","","","","","","","","","","","","","ballFalling","500","553.4711431702997","282.51","7","fallScene","false","","","","74","",""
"","","","","","html-keyboard-response","211","1342748","0.0-22.0-1.1","679132978cc757ace902b1d1","6790928bebf0b969fc839b02","67929d43ace5dfdf446a8829","passed","","356","","","","","","","","","","","","","","j","yesOrNo","","","","7","","","gt","1000","","74","553.4711431702997","282.51"
"","","","","","html-keyboard-response","212","1344299","0.0-22.0-0.2","679132978cc757ace902b1d1","6790928bebf0b969fc839b02","67929d43ace5dfdf446a8829","passed","","","","","","","","","","","","","","","","","ballFalling","604.4000000000001","575.4211431702997","266.76","12","fallScene","false","","","","75","",""
"","","","","","html-keyboard-response","213","1345302","0.0-22.0-1.2","679132978cc757ace902b1d1","6790928bebf0b969fc839b02","67929d43ace5dfdf446a8829","passed","","null","","","","","","","","","","","","","","null","yesOrNo","","","","12","","","gt","1000","","75","575.4211431702997","266.76"
"","","","","","html-keyboard-response","214","1346866","0.0-22.0-0.3","679132978cc757ace902b1d1","6790928bebf0b969fc839b02","67929d43ace5dfdf446a8829","passed","","","","","","","","","","","","","","","","","ballFalling","322.3","356.42114317029973","357.87","4","fallScene","false","","","","76","",""
"","","","","","html-keyboard-response","215","1347873","0.0-22.0-1.3","679132978cc757ace902b1d1","6790928bebf0b969fc839b02","67929d43ace5dfdf446a8829","passed","","842","","","","","","","","","","","","","","j","yesOrNo","","","","4","","","mid","1000","","76","390.27114317029975","300"
"","","","","","html-keyboard-response","216","1349366","0.0-22.0-0.4","679132978cc757ace902b1d1","6790928bebf0b969fc839b02","67929d43ace5dfdf446a8829","passed","","","","","","","","","","","","","","","","","ballFalling","604.4000000000001","667.6211431702998","201.78","9","fallScene","true","","","","77","",""
"","","","","","html-keyboard-response","217","1350374","0.0-22.0-1.4","679132978cc757ace902b1d1","6790928bebf0b969fc839b02","67929d43ace5dfdf446a8829","passed","","545","","","","","","","","","","","","","","j","yesOrNo","","","","9","","","lp","1000","","77","605.4000000000001","151"
"","","","","","html-keyboard-response","218","1352032","0.0-22.0-0.5","679132978cc757ace902b1d1","6790928bebf0b969fc839b02","67929d43ace5dfdf446a8829","passed","","","","","","","","","","","","","","","","","ballFalling","500","479.92114317029973","330.87","6","fallScene","true","","","","78","",""
"","","","","","html-keyboard-response","219","1353043","0.0-22.0-1.5","679132978cc757ace902b1d1","6790928bebf0b969fc839b02","67929d43ace5dfdf446a8829","passed","","671","","","","","","","","","","","","","","j","yesOrNo","","","","6","","","mid","1000","","78","499","300"
"","","","","","html-keyboard-response","220","1354598","0.0-22.0-0.6","679132978cc757ace902b1d1","6790928bebf0b969fc839b02","67929d43ace5dfdf446a8829","passed","","","","","","","","","","","","","","","","","ballFalling","604.4000000000001","650.0211431702996","404.58000000000004","11","fallScene","true","","","","79","",""
"","","","","","html-keyboard-response","221","1355608","0.0-22.0-1.6","679132978cc757ace902b1d1","6790928bebf0b969fc839b02","67929d43ace5dfdf446a8829","passed","","830","","","","","","","","","","","","","","j","yesOrNo","","","","11","","","mid","1000","","79","605.4000000000001","300"
"","","","","","html-keyboard-response","222","1357397","0.0-22.0-0.7","679132978cc757ace902b1d1","6790928bebf0b969fc839b02","67929d43ace5dfdf446a8829","passed","","","","","","","","","","","","","","","","","ballFalling","322.3","308.07114317029976","253.89","2","fallScene","false","","","","80","",""
"","","","","","html-keyboard-response","223","1358410","0.0-22.0-1.7","679132978cc757ace902b1d1","6790928bebf0b969fc839b02","67929d43ace5dfdf446a8829","passed","","null","","","","","","","","","","","","","","null","yesOrNo","","","","2","","","mid","1000","","80","321.3","300"
"","","","","","html-keyboard-response","224","1360413","0.0-22.0-0.8","679132978cc757ace902b1d1","6790928bebf0b969fc839b02","67929d43ace5dfdf446a8829","passed","","","","","","","","","","","","","","","","","ballFalling","500","510.8711431702997","369.03","8","fallScene","false","","","","81","",""
"","","","","","html-keyboard-response","225","1361427","0.0-22.0-1.8","679132978cc757ace902b1d1","6790928bebf0b969fc839b02","67929d43ace5dfdf446a8829","passed","","null","","","","","","","","","","","","","","null","yesOrNo","","","","8","","","gt","1000","","81","510.8711431702997","369.03"
"","","","","","html-keyboard-response","226","1362996","0.0-22.0-0.9","679132978cc757ace902b1d1","6790928bebf0b969fc839b02","67929d43ace5dfdf446a8829","passed","","","","","","","","","","","","","","","","","ballFalling","500","553.4711431702997","282.51","7","fallScene","true","","","","82","",""
"","","","","","html-keyboard-response","227","1364009","0.0-22.0-1.9","679132978cc757ace902b1d1","6790928bebf0b969fc839b02","67929d43ace5dfdf446a8829","passed","","63","","","","","","","","","","","","","","j","yesOrNo","","","","7","","","mid","1000","","82","501","300"
"","","","","","html-keyboard-response","228","1365563","0.0-22.0-0.10","679132978cc757ace902b1d1","6790928bebf0b969fc839b02","67929d43ace5dfdf446a8829","passed","","","","","","","","","","","","","","","","","ballFalling","500","453.67114317029973","210.33","5","fallScene","true","","","","83","",""
"","","","","","html-keyboard-response","229","1366572","0.0-22.0-1.10","679132978cc757ace902b1d1","6790928bebf0b969fc839b02","67929d43ace5dfdf446a8829","passed","","580","","","","","","","","","","","","","","j","yesOrNo","","","","5","","","lp","1000","","83","499","151"
"","","","","","html-keyboard-response","230","1368127","0.0-22.0-0.11","679132978cc757ace902b1d1","6790928bebf0b969fc839b02","67929d43ace5dfdf446a8829","passed","","","","","","","","","","","","","","","","","ballFalling","604.4000000000001","575.4211431702997","266.76","12","fallScene","false","","","","84","",""
"","","","","","html-keyboard-response","231","1369138","0.0-22.0-1.11","679132978cc757ace902b1d1","6790928bebf0b969fc839b02","67929d43ace5dfdf446a8829","passed","","308","","","","","","","","","","","","","","j","yesOrNo","","","","12","","","lp","1000","","84","603.4000000000001","151"
"","","","","","html-keyboard-response","232","1371143","0.0-22.0-0.12","679132978cc757ace902b1d1","6790928bebf0b969fc839b02","67929d43ace5dfdf446a8829","passed","","","","","","","","","","","","","","","","","ballFalling","500","510.8711431702997","369.03","8","fallScene","false","","","","85","",""
"","","","","","html-keyboard-response","233","1372152","0.0-22.0-1.12","679132978cc757ace902b1d1","6790928bebf0b969fc839b02","67929d43ace5dfdf446a8829","passed","","838","","","","","","","","","","","","","","f","yesOrNo","","","","8","","","lp","1000","","85","501","151"
"","","","","","html-keyboard-response","234","1373642","0.0-22.0-0.13","679132978cc757ace902b1d1","6790928bebf0b969fc839b02","67929d43ace5dfdf446a8829","passed","","","","","","","","","","","","","","","","","ballFalling","604.4000000000001","667.6211431702998","201.78","9","fallScene","false","","","","86","",""
"","","","","","html-keyboard-response","235","1374656","0.0-22.0-1.13","679132978cc757ace902b1d1","6790928bebf0b969fc839b02","67929d43ace5dfdf446a8829","passed","","null","","","","","","","","","","","","","","null","yesOrNo","","","","9","","","mid","1000","","86","605.4000000000001","300"
"","","","","","html-keyboard-response","236","1376209","0.0-22.0-0.14","679132978cc757ace902b1d1","6790928bebf0b969fc839b02","67929d43ace5dfdf446a8829","passed","","","","","","","","","","","","","","","","","ballFalling","604.4000000000001","650.0211431702996","404.58000000000004","11","fallScene","false","","","","87","",""
"","","","","","html-keyboard-response","237","1377222","0.0-22.0-1.14","679132978cc757ace902b1d1","6790928bebf0b969fc839b02","67929d43ace5dfdf446a8829","passed","","175","","","","","","","","","","","","","","f","yesOrNo","","","","11","","","lp","1000","","87","605.4000000000001","372.6340973215488"
"","","","","","html-keyboard-response","238","1378774","0.0-22.0-0.15","679132978cc757ace902b1d1","6790928bebf0b969fc839b02","67929d43ace5dfdf446a8829","passed","","","","","","","","","","","","","","","","","ballFalling","322.3","379.3711431702997","245.25","1","fallScene","false","","","","88","",""
"","","","","","html-keyboard-response","239","1379784","0.0-22.0-1.15","679132978cc757ace902b1d1","6790928bebf0b969fc839b02","67929d43ace5dfdf446a8829","passed","","486","","","","","","","","","","","","","","f","yesOrNo","","","","1","","","gt","1000","","88","379.3711431702997","245.25"
"","","","","","html-keyboard-response","240","1381340","0.0-22.0-0.16","679132978cc757ace902b1d1","6790928bebf0b969fc839b02","67929d43ace5dfdf446a8829","passed","","","","","","","","","","","","","","","","","ballFalling","322.3","356.42114317029973","357.87","4","fallScene","false","","","","89","",""
"","","","","","html-keyboard-response","241","1382351","0.0-22.0-1.16","679132978cc757ace902b1d1","6790928bebf0b969fc839b02","67929d43ace5dfdf446a8829","passed","","542","","","","","","","","","","","","","","j","yesOrNo","","","","4","","","gt","1000","","89","356.42114317029973","357.87"
"","","","","","html-keyboard-response","242","1383923","0.0-22.0-0.17","679132978cc757ace902b1d1","6790928bebf0b969fc839b02","67929d43ace5dfdf446a8829","passed","","","","","","","","","","","","","","","","","ballFalling","500","553.4711431702997","282.51","7","fallScene","false","","","","90","",""
"","","","","","html-keyboard-response","243","1384934","0.0-22.0-1.17","679132978cc757ace902b1d1","6790928bebf0b969fc839b02","67929d43ace5dfdf446a8829","passed","","658","","","","","","","","","","","","","","j","yesOrNo","","","","7","","","lp","1000","","90","501","227.2843295913261"
"","","","","","html-keyboard-response","244","1386938","0.0-22.0-0.18","679132978cc757ace902b1d1","6790928bebf0b969fc839b02","67929d43ace5dfdf446a8829","passed","","","","","","","","","","","","","","","","","ballFalling","604.4000000000001","596.8711431702998","394.5","10","fallScene","true","","","","91","",""
"","","","","","html-keyboard-response","245","1387950","0.0-22.0-1.18","679132978cc757ace902b1d1","6790928bebf0b969fc839b02","67929d43ace5dfdf446a8829","passed","","384","","","","","","","","","","","","","","j","yesOrNo","","","","10","","","gt","1000","","91","596.8711431702998","394.5"
"","","","","","html-keyboard-response","246","1389447","0.0-22.0-0.19","679132978cc757ace902b1d1","6790928bebf0b969fc839b02","67929d43ace5dfdf446a8829","passed","","","","","","","","","","","","","","","","","ballFalling","604.4000000000001","667.6211431702998","201.78","9","fallScene","true","","","","92","",""
"","","","","","html-keyboard-response","247","1390453","0.0-22.0-1.19","679132978cc757ace902b1d1","6790928bebf0b969fc839b02","67929d43ace5dfdf446a8829","passed","","140","","","","","","","","","","","","","","f","yesOrNo","","","","9","","","mid","1000","","92","605.4000000000001","300"
"","","","","","html-keyboard-response","248","1392105","0.0-22.0-0.20","679132978cc757ace902b1d1","6790928bebf0b969fc839b02","67929d43ace5dfdf446a8829","passed","","","","","","","","","","","","","","","","","ballFalling","500","479.92114317029973","330.87","6","fallScene","true","","","","93","",""
"","","","","","html-keyboard-response","249","1393115","0.0-22.0-1.20","679132978cc757ace902b1d1","6790928bebf0b969fc839b02","67929d43ace5dfdf446a8829","passed","","308","","","","","","","","","","","","","","f","yesOrNo","","","","6","","","gt","1000","","93","479.9211431702998","330.87"
"","","","","","html-keyboard-response","250","1394683","0.0-22.0-0.21","679132978cc757ace902b1d1","6790928bebf0b969fc839b02","67929d43ace5dfdf446a8829","passed","","","","","","","","","","","","","","","","","ballFalling","604.4000000000001","650.0211431702996","404.58000000000004","11","fallScene","true","","","","94","",""
"","","","","","html-keyboard-response","251","1395688","0.0-22.0-1.21","679132978cc757ace902b1d1","6790928bebf0b969fc839b02","67929d43ace5dfdf446a8829","passed","","479","","","","","","","","","","","","","","f","yesOrNo","","","","11","","","lp","1000","","94","605.4000000000001","372.6340973215488"
"","","","","","html-keyboard-response","252","1397703","0.0-22.0-0.22","679132978cc757ace902b1d1","6790928bebf0b969fc839b02","67929d43ace5dfdf446a8829","passed","","","","","","","","","","","","","","","","","ballFalling","604.4000000000001","596.8711431702998","394.5","10","fallScene","false","","","","95","",""
"","","","","","html-keyboard-response","253","1398714","0.0-22.0-1.22","679132978cc757ace902b1d1","6790928bebf0b969fc839b02","67929d43ace5dfdf446a8829","passed","","325","","","","","","","","","","","","","","j","yesOrNo","","","","10","","","mid","1000","","95","536.4288568297004","300"
"","","","","","html-keyboard-response","254","1400202","0.0-22.0-0.23","679132978cc757ace902b1d1","6790928bebf0b969fc839b02","67929d43ace5dfdf446a8829","passed","","","","","","","","","","","","","","","","","ballFalling","604.4000000000001","667.6211431702998","201.78","9","fallScene","true","","","","96","",""
"","","","","","html-keyboard-response","255","1401213","0.0-22.0-1.23","679132978cc757ace902b1d1","6790928bebf0b969fc839b02","67929d43ace5dfdf446a8829","passed","","345","","","","","","","","","","","","","","f","yesOrNo","","","","9","","","gt","1000","","96","667.6211431702998","201.78"
"","","","","","html-keyboard-response","256","1426526","0.0-23.0","679132978cc757ace902b1d1","6790928bebf0b969fc839b02","67929d43ace5dfdf446a8829","passed","","25312","","","","","","","","","","","","","<p><span style=""font-size:40px;"">BLOCK 5</span></p><p><span style=""font-size:25px;"">You have <b style=""color: #FF644F;""><strong>1 second(s)</strong></b> to respond to the following trials.</span><br></p><p></p> <!-- Blank line -->
                <p id=""blinking-text"" style=""font-weight; animation: blink 2s infinite;"">Press Space to continue</p>
                <style>
                    @keyframes blink {
                        50% {
                            opacity: 0;
                        }
                    }
                </style></p>"," ","","","","","","","","","","","","",""
"","","","","","html-keyboard-response","257","1428078","0.0-24.0-0.0","679132978cc757ace902b1d1","6790928bebf0b969fc839b02","67929d43ace5dfdf446a8829","passed","","","","","","","","","","","","","","","","","ballFalling","604.4000000000001","650.0211431702996","404.58000000000004","11","fallScene","true","","","","97","",""
"","","","","","html-keyboard-response","258","1429084","0.0-24.0-1.0","679132978cc757ace902b1d1","6790928bebf0b969fc839b02","67929d43ace5dfdf446a8829","passed","","394","","","","","","","","","","","","","","j","yesOrNo","","","","11","","","mid","1000","","97","605.4000000000001","300"
"","","","","","html-keyboard-response","259","1430643","0.0-24.0-0.1","679132978cc757ace902b1d1","6790928bebf0b969fc839b02","67929d43ace5dfdf446a8829","passed","","","","","","","","","","","","","","","","","ballFalling","322.3","356.42114317029973","357.87","4","fallScene","false","","","","98","",""
"","","","","","html-keyboard-response","260","1431657","0.0-24.0-1.1","679132978cc757ace902b1d1","6790928bebf0b969fc839b02","67929d43ace5dfdf446a8829","passed","","190","","","","","","","","","","","","","","f","yesOrNo","","","","4","","","lp","1000","","98","323.3","297.4070551689986"
"","","","","","html-keyboard-response","261","1433661","0.0-24.0-0.2","679132978cc757ace902b1d1","6790928bebf0b969fc839b02","67929d43ace5dfdf446a8829","passed","","","","","","","","","","","","","","","","","ballFalling","604.4000000000001","596.8711431702998","394.5","10","fallScene","false","","","","99","",""
"","","","","","html-keyboard-response","262","1434671","0.0-24.0-1.2","679132978cc757ace902b1d1","6790928bebf0b969fc839b02","67929d43ace5dfdf446a8829","passed","","146","","","","","","","","","","","","","","j","yesOrNo","","","","10","","","lp","1000","","99","603.4000000000001","215.50214355555383"
"","","","","","html-keyboard-response","263","1436459","0.0-24.0-0.3","679132978cc757ace902b1d1","6790928bebf0b969fc839b02","67929d43ace5dfdf446a8829","passed","","","","","","","","","","","","","","","","","ballFalling","322.3","308.07114317029976","253.89","2","fallScene","true","","","","100","",""
"","","","","","html-keyboard-response","264","1437472","0.0-24.0-1.3","679132978cc757ace902b1d1","6790928bebf0b969fc839b02","67929d43ace5dfdf446a8829","passed","","296","","","","","","","","","","","","","","j","yesOrNo","","","","2","","","lp","1000","","100","321.3","151"
"","","","","","html-keyboard-response","265","1439259","0.0-24.0-0.4","679132978cc757ace902b1d1","6790928bebf0b969fc839b02","67929d43ace5dfdf446a8829","passed","","","","","","","","","","","","","","","","","ballFalling","322.3","308.07114317029976","253.89","2","fallScene","false","","","","101","",""
"","","","","","html-keyboard-response","266","1440272","0.0-24.0-1.4","679132978cc757ace902b1d1","6790928bebf0b969fc839b02","67929d43ace5dfdf446a8829","passed","","477","","","","","","","","","","","","","","j","yesOrNo","","","","2","","","mid","1000","","101","321.3","300"
"","","","","","html-keyboard-response","267","1441825","0.0-24.0-0.5","679132978cc757ace902b1d1","6790928bebf0b969fc839b02","67929d43ace5dfdf446a8829","passed","","","","","","","","","","","","","","","","","ballFalling","322.3","379.3711431702997","245.25","1","fallScene","true","","","","102","",""
"","","","","","html-keyboard-response","268","1442835","0.0-24.0-1.5","679132978cc757ace902b1d1","6790928bebf0b969fc839b02","67929d43ace5dfdf446a8829","passed","","416","","","","","","","","","","","","","","j","yesOrNo","","","","1","","","lp","1000","","102","323.3","217.74551669457017"
"","","","","","html-keyboard-response","269","1444391","0.0-24.0-0.6","679132978cc757ace902b1d1","6790928bebf0b969fc839b02","67929d43ace5dfdf446a8829","passed","","","","","","","","","","","","","","","","","ballFalling","322.3","356.42114317029973","357.87","4","fallScene","false","","","","103","",""
"","","","","","html-keyboard-response","270","1445400","0.0-24.0-1.6","679132978cc757ace902b1d1","6790928bebf0b969fc839b02","67929d43ace5dfdf446a8829","passed","","265","","","","","","","","","","","","","","j","yesOrNo","","","","4","","","lp","1000","","103","323.3","297.4070551689986"
"","","","","","html-keyboard-response","271","1446970","0.0-24.0-0.7","679132978cc757ace902b1d1","6790928bebf0b969fc839b02","67929d43ace5dfdf446a8829","passed","","","","","","","","","","","","","","","","","ballFalling","322.3","379.3711431702997","245.25","1","fallScene","true","","","","104","",""
"","","","","","html-keyboard-response","272","1447975","0.0-24.0-1.7","679132978cc757ace902b1d1","6790928bebf0b969fc839b02","67929d43ace5dfdf446a8829","passed","","392","","","","","","","","","","","","","","j","yesOrNo","","","","1","","","lp","1000","","104","323.3","217.74551669457017"
"","","","","","html-keyboard-response","273","1449538","0.0-24.0-0.8","679132978cc757ace902b1d1","6790928bebf0b969fc839b02","67929d43ace5dfdf446a8829","passed","","","","","","","","","","","","","","","","","ballFalling","322.3","379.3711431702997","245.25","1","fallScene","true","","","","105","",""
"","","","","","html-keyboard-response","274","1450550","0.0-24.0-1.8","679132978cc757ace902b1d1","6790928bebf0b969fc839b02","67929d43ace5dfdf446a8829","passed","","359","","","","","","","","","","","","","","j","yesOrNo","","","","1","","","gt","1000","","105","379.3711431702997","245.25"
"","","","","","html-keyboard-response","275","1452106","0.0-24.0-0.9","679132978cc757ace902b1d1","6790928bebf0b969fc839b02","67929d43ace5dfdf446a8829","passed","","","","","","","","","","","","","","","","","ballFalling","500","453.67114317029973","210.33","5","fallScene","false","","","","106","",""
"","","","","","html-keyboard-response","276","1453114","0.0-24.0-1.9","679132978cc757ace902b1d1","6790928bebf0b969fc839b02","67929d43ace5dfdf446a8829","passed","","331","","","","","","","","","","","","","","f","yesOrNo","","","","5","","","gt","1000","","106","453.6711431702998","210.33"
"","","","","","html-keyboard-response","277","1455122","0.0-24.0-0.10","679132978cc757ace902b1d1","6790928bebf0b969fc839b02","67929d43ace5dfdf446a8829","passed","","","","","","","","","","","","","","","","","ballFalling","604.4000000000001","596.8711431702998","394.5","10","fallScene","false","","","","107","",""
"","","","","","html-keyboard-response","278","1456134","0.0-24.0-1.10","679132978cc757ace902b1d1","6790928bebf0b969fc839b02","67929d43ace5dfdf446a8829","passed","","16","","","","","","","","","","","","","","j","yesOrNo","","","","10","","","mid","1000","","107","536.4288568297004","300"
"","","","","","html-keyboard-response","279","1457919","0.0-24.0-0.11","679132978cc757ace902b1d1","6790928bebf0b969fc839b02","67929d43ace5dfdf446a8829","passed","","","","","","","","","","","","","","","","","ballFalling","322.3","308.07114317029976","253.89","2","fallScene","true","","","","108","",""
"","","","","","html-keyboard-response","280","1458929","0.0-24.0-1.11","679132978cc757ace902b1d1","6790928bebf0b969fc839b02","67929d43ace5dfdf446a8829","passed","","448","","","","","","","","","","","","","","j","yesOrNo","","","","2","","","gt","1000","","108","308.07114317029976","253.89"
"","","","","","html-keyboard-response","281","1460486","0.0-24.0-0.12","679132978cc757ace902b1d1","6790928bebf0b969fc839b02","67929d43ace5dfdf446a8829","passed","","","","","","","","","","","","","","","","","ballFalling","500","453.67114317029973","210.33","5","fallScene","true","","","","109","",""
"","","","","","html-keyboard-response","282","1461490","0.0-24.0-1.12","679132978cc757ace902b1d1","6790928bebf0b969fc839b02","67929d43ace5dfdf446a8829","passed","","575","","","","","","","","","","","","","","j","yesOrNo","","","","5","","","gt","1000","","109","453.6711431702998","210.33"
"","","","","","html-keyboard-response","283","1463503","0.0-24.0-0.13","679132978cc757ace902b1d1","6790928bebf0b969fc839b02","67929d43ace5dfdf446a8829","passed","","","","","","","","","","","","","","","","","ballFalling","500","510.8711431702997","369.03","8","fallScene","false","","","","110","",""
"","","","","","html-keyboard-response","284","1464514","0.0-24.0-1.13","679132978cc757ace902b1d1","6790928bebf0b969fc839b02","67929d43ace5dfdf446a8829","passed","","338","","","","","","","","","","","","","","j","yesOrNo","","","","8","","","gt","1000","","110","510.8711431702997","369.03"
"","","","","","html-keyboard-response","285","1466070","0.0-24.0-0.14","679132978cc757ace902b1d1","6790928bebf0b969fc839b02","67929d43ace5dfdf446a8829","passed","","","","","","","","","","","","","","","","","ballFalling","500","453.67114317029973","210.33","5","fallScene","true","","","","111","",""
"","","","","","html-keyboard-response","286","1467083","0.0-24.0-1.14","679132978cc757ace902b1d1","6790928bebf0b969fc839b02","67929d43ace5dfdf446a8829","passed","","608","","","","","","","","","","","","","","j","yesOrNo","","","","5","","","mid","1000","","111","499","300"
"","","","","","html-keyboard-response","287","1468633","0.0-24.0-0.15","679132978cc757ace902b1d1","6790928bebf0b969fc839b02","67929d43ace5dfdf446a8829","passed","","","","","","","","","","","","","","","","","ballFalling","322.3","296.07114317029976","371.46","3","fallScene","true","","","","112","",""
"","","","","","html-keyboard-response","288","1469637","0.0-24.0-1.15","679132978cc757ace902b1d1","6790928bebf0b969fc839b02","67929d43ace5dfdf446a8829","passed","","630","","","","","","","","","","","","","","j","yesOrNo","","","","3","","","lp","1000","","112","321.3","287.3327096511259"
"","","","","","html-keyboard-response","289","1471650","0.0-24.0-0.16","679132978cc757ace902b1d1","6790928bebf0b969fc839b02","67929d43ace5dfdf446a8829","passed","","","","","","","","","","","","","","","","","ballFalling","604.4000000000001","596.8711431702998","394.5","10","fallScene","true","","","","113","",""
"","","","","","html-keyboard-response","290","1472660","0.0-24.0-1.16","679132978cc757ace902b1d1","6790928bebf0b969fc839b02","67929d43ace5dfdf446a8829","passed","","621","","","","","","","","","","","","","","j","yesOrNo","","","","10","","","lp","1000","","113","603.4000000000001","215.50214355555383"
"","","","","","html-keyboard-response","291","1474217","0.0-24.0-0.17","679132978cc757ace902b1d1","6790928bebf0b969fc839b02","67929d43ace5dfdf446a8829","passed","","","","","","","","","","","","","","","","","ballFalling","322.3","296.07114317029976","371.46","3","fallScene","false","","","","114","",""
"","","","","","html-keyboard-response","292","1475229","0.0-24.0-1.17","679132978cc757ace902b1d1","6790928bebf0b969fc839b02","67929d43ace5dfdf446a8829","passed","","400","","","","","","","","","","","","","","j","yesOrNo","","","","3","","","gt","1000","","114","296.07114317029976","371.46"
"","","","","","html-keyboard-response","293","1477018","0.0-24.0-0.18","679132978cc757ace902b1d1","6790928bebf0b969fc839b02","67929d43ace5dfdf446a8829","passed","","","","","","","","","","","","","","","","","ballFalling","322.3","308.07114317029976","253.89","2","fallScene","true","","","","115","",""
"","","","","","html-keyboard-response","294","1478031","0.0-24.0-1.18","679132978cc757ace902b1d1","6790928bebf0b969fc839b02","67929d43ace5dfdf446a8829","passed","","481","","","","","","","","","","","","","","j","yesOrNo","","","","2","","","lp","1000","","115","321.3","151"
"","","","","","html-keyboard-response","295","1480032","0.0-24.0-0.19","679132978cc757ace902b1d1","6790928bebf0b969fc839b02","67929d43ace5dfdf446a8829","passed","","","","","","","","","","","","","","","","","ballFalling","500","510.8711431702997","369.03","8","fallScene","false","","","","116","",""
"","","","","","html-keyboard-response","296","1481047","0.0-24.0-1.19","679132978cc757ace902b1d1","6790928bebf0b969fc839b02","67929d43ace5dfdf446a8829","passed","","403","","","","","","","","","","","","","","j","yesOrNo","","","","8","","","lp","1000","","116","501","151"
"","","","","","html-keyboard-response","297","1482598","0.0-24.0-0.20","679132978cc757ace902b1d1","6790928bebf0b969fc839b02","67929d43ace5dfdf446a8829","passed","","","","","","","","","","","","","","","","","ballFalling","604.4000000000001","575.4211431702997","266.76","12","fallScene","false","","","","117","",""
"","","","","","html-keyboard-response","298","1483610","0.0-24.0-1.20","679132978cc757ace902b1d1","6790928bebf0b969fc839b02","67929d43ace5dfdf446a8829","passed","","894","","","","","","","","","","","","","","j","yesOrNo","","","","12","","","mid","1000","","117","536.4288568297004","300"
"","","","","","html-keyboard-response","299","1485164","0.0-24.0-0.21","679132978cc757ace902b1d1","6790928bebf0b969fc839b02","67929d43ace5dfdf446a8829","passed","","","","","","","","","","","","","","","","","ballFalling","322.3","296.07114317029976","371.46","3","fallScene","true","","","","118","",""
"","","","","","html-keyboard-response","300","1486179","0.0-24.0-1.21","679132978cc757ace902b1d1","6790928bebf0b969fc839b02","67929d43ace5dfdf446a8829","passed","","633","","","","","","","","","","","","","","f","yesOrNo","","","","3","","","gt","1000","","118","296.07114317029976","371.46"
"","","","","","html-keyboard-response","301","1487734","0.0-24.0-0.22","679132978cc757ace902b1d1","6790928bebf0b969fc839b02","67929d43ace5dfdf446a8829","passed","","","","","","","","","","","","","","","","","ballFalling","604.4000000000001","650.0211431702996","404.58000000000004","11","fallScene","false","","","","119","",""
"","","","","","html-keyboard-response","302","1488744","0.0-24.0-1.22","679132978cc757ace902b1d1","6790928bebf0b969fc839b02","67929d43ace5dfdf446a8829","passed","","844","","","","","","","","","","","","","","j","yesOrNo","","","","11","","","gt","1000","","119","650.0211431702996","404.58"
"","","","","","html-keyboard-response","303","1490295","0.0-24.0-0.23","679132978cc757ace902b1d1","6790928bebf0b969fc839b02","67929d43ace5dfdf446a8829","passed","","","","","","","","","","","","","","","","","ballFalling","322.3","379.3711431702997","245.25","1","fallScene","false","","","","120","",""
"","","","","","html-keyboard-response","304","1491298","0.0-24.0-1.23","679132978cc757ace902b1d1","6790928bebf0b969fc839b02","67929d43ace5dfdf446a8829","passed","","662","","","","","","","","","","","","","","j","yesOrNo","","","","1","","","mid","1000","","120","390.27114317029975","300"
"","","","","","html-keyboard-response","305","1510456","0.0-25.0","679132978cc757ace902b1d1","6790928bebf0b969fc839b02","67929d43ace5dfdf446a8829","passed","","19156","","","","","","","","","","","","","<p><span style=""font-size:40px;"">BLOCK 6</span></p><p><span style=""font-size:25px;"">You have <b style=""color: #FF644F;""><strong>3 second(s)</strong></b> to respond to the following trials.</span><br></p><p></p> <!-- Blank line -->
                <p id=""blinking-text"" style=""font-weight; animation: blink 2s infinite;"">Press Space to continue</p>
                <style>
                    @keyframes blink {
                        50% {
                            opacity: 0;
                        }
                    }
                </style></p>"," ","","","","","","","","","","","","",""
"","","","","","html-keyboard-response","306","1512257","0.0-26.0-0.0","679132978cc757ace902b1d1","6790928bebf0b969fc839b02","67929d43ace5dfdf446a8829","passed","","","","","","","","","","","","","","","","","ballFalling","322.3","308.07114317029976","253.89","2","fallScene","true","","","","121","",""
