"success","timeout","failed_images","failed_audio","failed_video","trial_type","trial_index","time_elapsed","internal_node_id","subject_id","study_id","session_id","practiceTestResult","view_history","rt","width","height","webaudio","browser","browser_version","mobile","os","fullscreen","vsync_rate","webcam","microphone","url","stimulus","response","task","ball_X","obstacle_groundTruth_x","obstacle_groundTruth_y","stimulus_idx","trial_name","flipped","choice","timeLimit","question_order","comprehensionCheck","currentTrial","obstacle_choice_x","obstacle_choice_y"
"true","false","[]","[]","[]","preload","0","5269","0.0-0.0","66d925cf0e6264c70bba83e4","67619bf32066d179f8b4b1ec","67895f9d974b06215f5f7d7a","passed","","","","","","","","","","","","","","","","","","","","","","","","","","","","","",""
"","","","","","instructions","1","156274","0.0-1.0","66d925cf0e6264c70bba83e4","67619bf32066d179f8b4b1ec","67895f9d974b06215f5f7d7a","passed","[{""page_index"":0,""viewing_time"":151000}]","151004","","","","","","","","","","","","","","","","","","","","","","","","","","","",""
"","","","","","browser-check","2","157277","0.0-2.0","66d925cf0e6264c70bba83e4","67619bf32066d179f8b4b1ec","67895f9d974b06215f5f7d7a","passed","","","1366","633","true","chrome","128.0.0","false","Windows 10","true","60.98","true","true","","","","","","","","","","","","","","","","",""
"","","","","","external-html","3","210258","0.0-3.0","66d925cf0e6264c70bba83e4","67619bf32066d179f8b4b1ec","67895f9d974b06215f5f7d7a","passed","","51050","","","","","","","","","","","","consent.html","","","","","","","","","","","","","","","",""
"true","","","","","fullscreen","4","246231","0.0-4.0","66d925cf0e6264c70bba83e4","67619bf32066d179f8b4b1ec","67895f9d974b06215f5f7d7a","passed","","35658","","","","","","","","","","","","","","","","","","","","","","","","","","","",""
"","","","","","browser-check","5","247225","0.0-5.0","66d925cf0e6264c70bba83e4","67619bf32066d179f8b4b1ec","67895f9d974b06215f5f7d7a","passed","","","1366","768","true","chrome","128.0.0","false","Windows 10","true","60.74","true","true","","","","","","","","","","","","","","","","",""
"","","","","","html-keyboard-response","6","260375","0.0-6.0","66d925cf0e6264c70bba83e4","67619bf32066d179f8b4b1ec","67895f9d974b06215f5f7d7a","passed","","13147","","","","","","","","","","","","","<p><b>This experiment requires keyboard input.</b></p> 
        <p><b>To ensure your response will be recorded successfully, please press 'Space' to continue.</b></p>
        <p>If you can't proceed, you won't be able to complete this study.</p>
        <p></p> <!-- Blank line -->
        <p id=""blinking-text"" style=""font-weight; animation: blink 2s infinite;"">Press Space to continue</p>
        <style>
            @keyframes blink {
                50% {
                    opacity: 0;
                }
            }
        </style>"," ","","","","","","","","","","","","","",""
"","","","","","html-keyboard-response","7","270706","0.0-7.0","66d925cf0e6264c70bba83e4","67619bf32066d179f8b4b1ec","67895f9d974b06215f5f7d7a","passed","","10324","","","","","","","","","","","","","<p><b>This experiment requires keyboard input.</b></p> 
        <p><b>To ensure your response will be recorded successfully, please press the 'f' key to continue.</b></p>
        <p>If you can't proceed, you won't be able to complete this study.</p>
        <p></p> <!-- Blank line -->
        <p id=""blinking-text"" style=""font-weight; animation: blink 2s infinite;"">Press f to continue</p>
        <style>
            @keyframes blink {
                50% {
                    opacity: 0;
                }
            }
        </style>","f","","","","","","","","","","","","","",""
"","","","","","html-keyboard-response","8","276260","0.0-8.0","66d925cf0e6264c70bba83e4","67619bf32066d179f8b4b1ec","67895f9d974b06215f5f7d7a","passed","","5546","","","","","","","","","","","","","<p><b>This experiment requires keyboard input.</b></p> 
        <p><b>To ensure your response will be recorded successfully, please press the 'j' key to continue.</b></p>
        <p>If you can't proceed, you won't be able to complete this study.</p>
        <p></p> <!-- Blank line -->
        <p id=""blinking-text"" style=""font-weight; animation: blink 2s infinite;"">Press j to continue</p>
        <style>
            @keyframes blink {
                50% {
                    opacity: 0;
                }
            }
        </style>","j","","","","","","","","","","","","","",""
"","","","","","browser-check","9","277269","0.0-9.0","66d925cf0e6264c70bba83e4","67619bf32066d179f8b4b1ec","67895f9d974b06215f5f7d7a","passed","","","1366","768","true","chrome","128.0.0","false","Windows 10","true","60.18","true","true","","","","","","","","","","","","","","","","",""
"","","","","","survey-text","10","292596","0.0-10.0","66d925cf0e6264c70bba83e4","67619bf32066d179f8b4b1ec","67895f9d974b06215f5f7d7a","passed","","15318","","","","","","","","","","","","","","{""prolificID"":""66d925cf0e6264c70bba83e4""}","","","","","","","","","","","","","",""
"","","","","","instructions","11","655219","0.0-11.0-0.0-0.0","66d925cf0e6264c70bba83e4","67619bf32066d179f8b4b1ec","67895f9d974b06215f5f7d7a","passed","[{""page_index"":0,""viewing_time"":103507},{""page_index"":1,""viewing_time"":205794},{""page_index"":2,""viewing_time"":17909},{""page_index"":3,""viewing_time"":35410}]","362621","","","","","","","","","","","","","","","","","","","","","","","","","","","",""
"","","","","","html-keyboard-response","12","694420","0.0-11.0-0.0-1.0","66d925cf0e6264c70bba83e4","67619bf32066d179f8b4b1ec","67895f9d974b06215f5f7d7a","passed","","38683","","","","","","","","","","","","","<br>Remember! After a ball falls, the screen will disappear, and you'll decide if the proposed position is where the hidden triangle was. <br>You will now practice this by watching a few videos and making decisions.<p>To respond:<br style=""margin-bottom: 5px; text-indent: -20px; padding-left: 20px;"">- Press <b style=""color: #12AD2B;"">J for Yes</b>, if you think the triangle is in the correct position.<br style=""margin-top: 0; text-indent: -20px; padding-left: 20px;"">- Press <b style=""color: orange;"">F for No</b>, if you think the triangle is not in the correct position.</p><p>In this practice round, there is no time limit. Focus on getting comfortable with the task first.<br>Press either J or F to begin your practice trials.</p><img src = ""YesOrNo_instruction.png"" style=""width: 65%;""></img>","j","","","","","","","","","","","","","",""
"","","","","","html-keyboard-response","13","696537","0.0-11.0-0.0-2.0-0.0","66d925cf0e6264c70bba83e4","67619bf32066d179f8b4b1ec","67895f9d974b06215f5f7d7a","passed","","","","","","","","","","","","","","","","","ballFalling_prac","660","666","350","3","fallScene","false","","","","","","",""
"","","","","","html-keyboard-response","14","705934","0.0-11.0-0.0-2.0-1.0","66d925cf0e6264c70bba83e4","67619bf32066d179f8b4b1ec","67895f9d974b06215f5f7d7a","passed","","9378","","","","","","","","","","","","","","j","yesOrNo_prac_noTimed","","","","3","","","wrong direction","NA","","","","",""
"","","","","","html-keyboard-response","15","707507","0.0-11.0-0.0-2.0-0.1","66d925cf0e6264c70bba83e4","67619bf32066d179f8b4b1ec","67895f9d974b06215f5f7d7a","passed","","","","","","","","","","","","","","","","","ballFalling_prac","441","414","302","5","fallScene","true","","","","","","",""
"","","","","","html-keyboard-response","16","717056","0.0-11.0-0.0-2.0-1.1","66d925cf0e6264c70bba83e4","67619bf32066d179f8b4b1ec","67895f9d974b06215f5f7d7a","passed","","9537","","","","","","","","","","","","","","f","yesOrNo_prac_noTimed","","","","5","","","close gt","NA","","","","",""
"","","","","","html-keyboard-response","17","718620","0.0-11.0-0.0-2.0-0.2","66d925cf0e6264c70bba83e4","67619bf32066d179f8b4b1ec","67895f9d974b06215f5f7d7a","passed","","","","","","","","","","","","","","","","","ballFalling_prac","416","464","296","1","fallScene","false","","","","","","",""
"","","","","","html-keyboard-response","18","720845","0.0-11.0-0.0-2.0-1.2","66d925cf0e6264c70bba83e4","67619bf32066d179f8b4b1ec","67895f9d974b06215f5f7d7a","passed","","2216","","","","","","","","","","","","","","j","yesOrNo_prac_noTimed","","","","1","","","gt","NA","","","","",""
"","","","","","instructions","19","1086774","0.0-11.0-0.0-3.0","66d925cf0e6264c70bba83e4","67619bf32066d179f8b4b1ec","67895f9d974b06215f5f7d7a","passed","[{""page_index"":0,""viewing_time"":272203},{""page_index"":1,""viewing_time"":93716}]","365919","","","","","","","","","","","","","","","","","","","","","","","","","","","",""
"","","","","","html-button-response","20","1097712","0.0-11.0-0.0-4.0","66d925cf0e6264c70bba83e4","67619bf32066d179f8b4b1ec","67895f9d974b06215f5f7d7a","passed","","10421","","","","","","","","","","","","","<p>To make sure you understood the task, we just have a <b>brief quiz</b> here.</p><p>If you need to review the instructions, click 'Previous'.</p><p>It's important to understand the task to do the study, so you have to pass the quiz to move to the study.</p>","1","","","","","","","","","","","","","",""
"","","","","","survey-multi-choice","21","1153047","0.0-11.0-1.0-0.0","66d925cf0e6264c70bba83e4","67619bf32066d179f8b4b1ec","67895f9d974b06215f5f7d7a","passed","","55327","","","","","","","","","","","","","","{""generalProcedure"":""Watch a video of a ball falling, some of it behind a gray screen. After each video, decide if the triangle is at the spot where the ball hit the triangle behind the screen. There is time limit for the response.""}","","","","","","","","","","[0]","","","",""
"","","","","","survey-multi-choice","22","1162092","0.0-11.0-1.0-1.0","66d925cf0e6264c70bba83e4","67619bf32066d179f8b4b1ec","67895f9d974b06215f5f7d7a","passed","","9036","","","","","","","","","","","","","","{""checkBallHitObstacle"":""Yes.""}","","","","","","","","","","[0]","","","",""
"","","","","","survey-multi-choice","23","1170542","0.0-11.0-1.0-2.0","66d925cf0e6264c70bba83e4","67619bf32066d179f8b4b1ec","67895f9d974b06215f5f7d7a","passed","","8444","","","","","","","","","","","","","","{""checkTriangleVisibility"":""No, the triangle is hidden behind the gray screen.""}","","","","","","","","","","[0]","","","",""
"","","","","","survey-multi-choice","24","1180659","0.0-11.0-1.0-3.0","66d925cf0e6264c70bba83e4","67619bf32066d179f8b4b1ec","67895f9d974b06215f5f7d7a","passed","","10111","","","","","","","","","","","","","","{""checkTimedResponse"":""Your response will not be recorded, and the trial will move to the next one.""}","","","","","","","","","","[0]","","","",""
"","","","","","survey-multi-choice","25","1217083","0.0-11.0-1.0-4.0","66d925cf0e6264c70bba83e4","67619bf32066d179f8b4b1ec","67895f9d974b06215f5f7d7a","passed","","36414","","","","","","","","","","","","","","{""checkTimeBlockNotice"":""At the beginning of each block.""}","","","","","","","","","","[0]","","","",""
"","","","","","survey-multi-choice","26","1231100","0.0-11.0-1.0-5.0","66d925cf0e6264c70bba83e4","67619bf32066d179f8b4b1ec","67895f9d974b06215f5f7d7a","passed","","14010","","","","","","","","","","","","","","{""checkTimeBlockSameness"":""Yes, the time limit is the same for all trials within a block.""}","","","","","","","","","","[0]","","","",""
"","","","","","survey-multi-choice","27","1281950","0.0-11.0-1.0-6.0","66d925cf0e6264c70bba83e4","67619bf32066d179f8b4b1ec","67895f9d974b06215f5f7d7a","passed","","50846","","","","","","","","","","","","","","{""checkTrianglePrecision"":""Yes. The proposed purple triangle is very close to the correct position, so I should choose 'Yes.'""}","","","","","","","","","","[0]","","","",""
"","","","","","html-button-response","28","1286282","0.0-11.0-2.0-0.0","66d925cf0e6264c70bba83e4","67619bf32066d179f8b4b1ec","67895f9d974b06215f5f7d7a","passed","","4313","","","","","","","","","","","","","<p>Oops! You did not pass the quiz.</p><p>You will now repeat the instructions and practice.</p>","0","","","","","","","","","","","failed","","",""
"","","","","","instructions","29","1364885","0.0-11.1-0.1-0.1","66d925cf0e6264c70bba83e4","67619bf32066d179f8b4b1ec","67895f9d974b06215f5f7d7a","passed","[{""page_index"":0,""viewing_time"":28113},{""page_index"":1,""viewing_time"":26731},{""page_index"":2,""viewing_time"":11939},{""page_index"":3,""viewing_time"":11816}]","78601","","","","","","","","","","","","","","","","","","","","","","","","","","","",""
"","","","","","html-keyboard-response","30","1378511","0.0-11.1-0.1-1.1","66d925cf0e6264c70bba83e4","67619bf32066d179f8b4b1ec","67895f9d974b06215f5f7d7a","passed","","13118","","","","","","","","","","","","","<br>Remember! After a ball falls, the screen will disappear, and you'll decide if the proposed position is where the hidden triangle was. <br>You will now practice this by watching a few videos and making decisions.<p>To respond:<br style=""margin-bottom: 5px; text-indent: -20px; padding-left: 20px;"">- Press <b style=""color: #12AD2B;"">J for Yes</b>, if you think the triangle is in the correct position.<br style=""margin-top: 0; text-indent: -20px; padding-left: 20px;"">- Press <b style=""color: orange;"">F for No</b>, if you think the triangle is not in the correct position.</p><p>In this practice round, there is no time limit. Focus on getting comfortable with the task first.<br>Press either J or F to begin your practice trials.</p><img src = ""YesOrNo_instruction.png"" style=""width: 65%;""></img>","j","","","","","","","","","","","","","",""
"","","","","","html-keyboard-response","31","1380059","0.0-11.1-0.1-2.1-0.3","66d925cf0e6264c70bba83e4","67619bf32066d179f8b4b1ec","67895f9d974b06215f5f7d7a","passed","","","","","","","","","","","","","","","","","ballFalling_prac","416","464","296","1","fallScene","false","","","","","","",""
"","","","","","html-keyboard-response","32","1384849","0.0-11.1-0.1-2.1-1.3","66d925cf0e6264c70bba83e4","67619bf32066d179f8b4b1ec","67895f9d974b06215f5f7d7a","passed","","4782","","","","","","","","","","","","","","j","yesOrNo_prac_noTimed","","","","1","","","gt","NA","","","","",""
"","","","","","html-keyboard-response","33","1386428","0.0-11.1-0.1-2.1-0.4","66d925cf0e6264c70bba83e4","67619bf32066d179f8b4b1ec","67895f9d974b06215f5f7d7a","passed","","","","","","","","","","","","","","","","","ballFalling_prac","441","414","302","5","fallScene","true","","","","","","",""
"","","","","","html-keyboard-response","34","1388148","0.0-11.1-0.1-2.1-1.4","66d925cf0e6264c70bba83e4","67619bf32066d179f8b4b1ec","67895f9d974b06215f5f7d7a","passed","","1711","","","","","","","","","","","","","","j","yesOrNo_prac_noTimed","","","","5","","","close gt","NA","","","","",""
"","","","","","html-keyboard-response","35","1390261","0.0-11.1-0.1-2.1-0.5","66d925cf0e6264c70bba83e4","67619bf32066d179f8b4b1ec","67895f9d974b06215f5f7d7a","passed","","","","","","","","","","","","","","","","","ballFalling_prac","660","666","350","3","fallScene","false","","","","","","",""
"","","","","","html-keyboard-response","36","1393558","0.0-11.1-0.1-2.1-1.5","66d925cf0e6264c70bba83e4","67619bf32066d179f8b4b1ec","67895f9d974b06215f5f7d7a","passed","","3290","","","","","","","","","","","","","","f","yesOrNo_prac_noTimed","","","","3","","","wrong direction","NA","","","","",""
"","","","","","instructions","37","1423929","0.0-11.1-0.1-3.1","66d925cf0e6264c70bba83e4","67619bf32066d179f8b4b1ec","67895f9d974b06215f5f7d7a","passed","[{""page_index"":0,""viewing_time"":17021},{""page_index"":1,""viewing_time"":13348}]","30370","","","","","","","","","","","","","","","","","","","","","","","","","","","",""
"","","","","","html-button-response","38","1444093","0.0-11.1-0.1-4.1","66d925cf0e6264c70bba83e4","67619bf32066d179f8b4b1ec","67895f9d974b06215f5f7d7a","passed","","19654","","","","","","","","","","","","","<p>To make sure you understood the task, we just have a <b>brief quiz</b> here.</p><p>If you need to review the instructions, click 'Previous'.</p><p>It's important to understand the task to do the study, so you have to pass the quiz to move to the study.</p>","1","","","","","","","","","","","","","",""
"","","","","","survey-multi-choice","39","1471631","0.0-11.1-1.1-0.1","66d925cf0e6264c70bba83e4","67619bf32066d179f8b4b1ec","67895f9d974b06215f5f7d7a","passed","","27533","","","","","","","","","","","","","","{""generalProcedure"":""Watch a video of a ball falling, some of it behind a gray screen. After each video, decide if the triangle is at the spot where the ball hit the triangle behind the screen. There is time limit for the response.""}","","","","","","","","","","[0]","","","",""
"","","","","","survey-multi-choice","40","1487965","0.0-11.1-1.1-1.1","66d925cf0e6264c70bba83e4","67619bf32066d179f8b4b1ec","67895f9d974b06215f5f7d7a","passed","","16330","","","","","","","","","","","","","","{""checkBallHitObstacle"":""Yes.""}","","","","","","","","","","[0]","","","",""
"","","","","","survey-multi-choice","41","1508524","0.0-11.1-1.1-2.1","66d925cf0e6264c70bba83e4","67619bf32066d179f8b4b1ec","67895f9d974b06215f5f7d7a","passed","","20554","","","","","","","","","","","","","","{""checkTriangleVisibility"":""No, the triangle is hidden behind the gray screen.""}","","","","","","","","","","[0]","","","",""
"","","","","","survey-multi-choice","42","1526824","0.0-11.1-1.1-3.1","66d925cf0e6264c70bba83e4","67619bf32066d179f8b4b1ec","67895f9d974b06215f5f7d7a","passed","","18296","","","","","","","","","","","","","","{""checkTimedResponse"":""Your response will not be recorded, and the trial will move to the next one.""}","","","","","","","","","","[0]","","","",""
"","","","","","survey-multi-choice","43","1544354","0.0-11.1-1.1-4.1","66d925cf0e6264c70bba83e4","67619bf32066d179f8b4b1ec","67895f9d974b06215f5f7d7a","passed","","17519","","","","","","","","","","","","","","{""checkTimeBlockNotice"":""At the beginning of each block.""}","","","","","","","","","","[0]","","","",""
"","","","","","survey-multi-choice","44","1559968","0.0-11.1-1.1-5.1","66d925cf0e6264c70bba83e4","67619bf32066d179f8b4b1ec","67895f9d974b06215f5f7d7a","passed","","15609","","","","","","","","","","","","","","{""checkTimeBlockSameness"":""Yes, the time limit is the same for all trials within a block.""}","","","","","","","","","","[0]","","","",""
"","","","","","survey-multi-choice","45","1593444","0.0-11.1-1.1-6.1","66d925cf0e6264c70bba83e4","67619bf32066d179f8b4b1ec","67895f9d974b06215f5f7d7a","passed","","33466","","","","","","","","","","","","","","{""checkTrianglePrecision"":""No. The proposed purple triangle is not in the correct position because it doesn't match the location of the white triangle exactly.""}","","","","","","","","","","[0]","","","",""
"","","","","","instructions","46","1816559","0.0-12.0","66d925cf0e6264c70bba83e4","67619bf32066d179f8b4b1ec","67895f9d974b06215f5f7d7a","passed","[{""page_index"":0,""viewing_time"":180987},{""page_index"":1,""viewing_time"":9890},{""page_index"":2,""viewing_time"":18315},{""page_index"":3,""viewing_time"":13911}]","223103","","","","","","","","","","","","","","","","","","","","","","","","","","","",""
"","","","","","instructions","47","1868523","0.0-13.0-0.0","66d925cf0e6264c70bba83e4","67619bf32066d179f8b4b1ec","67895f9d974b06215f5f7d7a","passed","[{""page_index"":0,""viewing_time"":51961}]","51961","","","","","","","","","","","","","","","","","","","","","","","","","","","",""
"","","","","","html-keyboard-response","48","1873686","0.0-13.0-1.0","66d925cf0e6264c70bba83e4","67619bf32066d179f8b4b1ec","67895f9d974b06215f5f7d7a","passed","","5162","","","","","","","","","","","","","<p><span style=""font-size:40px;"">Practice BLOCK 1</span></p><p><span style=""font-size:25px;"">You have <strong>3 second(s)</strong> to respond to the following trials.</span><br></p><p id=""blinking-text"" style=""font-weight; animation: blink 2s infinite;"">Press Space to continue</p><style>
                    @keyframes blink {
                        50% {
                            opacity: 0;
                        }
                    }
                </style>"," ","","","","","","","","","","","","","",""
"","","","","","html-keyboard-response","49","1875252","0.0-13.0-2.0-0.0","66d925cf0e6264c70bba83e4","67619bf32066d179f8b4b1ec","67895f9d974b06215f5f7d7a","passed","","","","","","","","","","","","","","","","","ballFalling_prac","584","536","296","1","fallScene","true","","","","","","",""
"","","","","","html-keyboard-response","50","1876291","0.0-13.0-2.0-1.0","66d925cf0e6264c70bba83e4","67619bf32066d179f8b4b1ec","67895f9d974b06215f5f7d7a","passed","","1019","","","","","","","","","","","","","","j","yesOrNo_prac","","","","1","","","close gt","3000","","","","",""
"","","","","","html-keyboard-response","51","1877869","0.0-13.0-2.0-0.1","66d925cf0e6264c70bba83e4","67619bf32066d179f8b4b1ec","67895f9d974b06215f5f7d7a","passed","","","","","","","","","","","","","","","","","ballFalling_prac","660","610","263","4","fallScene","false","","","","","","",""
"","","","","","html-keyboard-response","52","1878419","0.0-13.0-2.0-1.1","66d925cf0e6264c70bba83e4","67619bf32066d179f8b4b1ec","67895f9d974b06215f5f7d7a","passed","","542","","","","","","","","","","","","","","f","yesOrNo_prac","","","","4","","","gt","3000","","","","",""
"","","","","","html-keyboard-response","53","1879987","0.0-13.0-2.0-0.2","66d925cf0e6264c70bba83e4","67619bf32066d179f8b4b1ec","67895f9d974b06215f5f7d7a","passed","","","","","","","","","","","","","","","","","ballFalling_prac","416","464","296","1","fallScene","false","","","","","","",""
"","","","","","html-keyboard-response","54","1880722","0.0-13.0-2.0-1.2","66d925cf0e6264c70bba83e4","67619bf32066d179f8b4b1ec","67895f9d974b06215f5f7d7a","passed","","727","","","","","","","","","","","","","","j","yesOrNo_prac","","","","1","","","far gt","3000","","","","",""
"","","","","","html-keyboard-response","55","1884055","0.0-13.0-3.0","66d925cf0e6264c70bba83e4","67619bf32066d179f8b4b1ec","67895f9d974b06215f5f7d7a","passed","","3331","","","","","","","","","","","","","<p><span style=""font-size:40px;"">Practice BLOCK 2</span></p><p><span style=""font-size:25px;"">You have <strong>1 second(s)</strong> to respond to the following trials.</span><br></p><p id=""blinking-text"" style=""font-weight; animation: blink 2s infinite;"">Press Space to continue</p><style>
                    @keyframes blink {
                        50% {
                            opacity: 0;
                        }
                    }
                </style>"," ","","","","","","","","","","","","","",""
"","","","","","html-keyboard-response","56","1885633","0.0-13.0-4.0-0.0","66d925cf0e6264c70bba83e4","67619bf32066d179f8b4b1ec","67895f9d974b06215f5f7d7a","passed","","","","","","","","","","","","","","","","","ballFalling_prac","660","610","263","4","fallScene","false","","","","","","",""
"","","","","","html-keyboard-response","57","1886257","0.0-13.0-4.0-1.0","66d925cf0e6264c70bba83e4","67619bf32066d179f8b4b1ec","67895f9d974b06215f5f7d7a","passed","","615","","","","","","","","","","","","","","f","yesOrNo_prac","","","","4","","","far gt","1000","","","","",""
"","","","","","html-keyboard-response","58","1888367","0.0-13.0-4.0-0.1","66d925cf0e6264c70bba83e4","67619bf32066d179f8b4b1ec","67895f9d974b06215f5f7d7a","passed","","","","","","","","","","","","","","","","","ballFalling_prac","340","334","350","3","fallScene","true","","","","","","",""
"","","","","","html-keyboard-response","59","1889058","0.0-13.0-4.0-1.1","66d925cf0e6264c70bba83e4","67619bf32066d179f8b4b1ec","67895f9d974b06215f5f7d7a","passed","","684","","","","","","","","","","","","","","j","yesOrNo_prac","","","","3","","","close gt","1000","","","","",""
"","","","","","html-keyboard-response","60","1890616","0.0-13.0-4.0-0.2","66d925cf0e6264c70bba83e4","67619bf32066d179f8b4b1ec","67895f9d974b06215f5f7d7a","passed","","","","","","","","","","","","","","","","","ballFalling_prac","441","500","317","6","fallScene","true","","","","","","",""
"","","","","","html-keyboard-response","61","1891305","0.0-13.0-4.0-1.2","66d925cf0e6264c70bba83e4","67619bf32066d179f8b4b1ec","67895f9d974b06215f5f7d7a","passed","","680","","","","","","","","","","","","","","f","yesOrNo_prac","","","","6","","","gt","1000","","","","",""
"","","","","","instructions","62","1918266","0.0-13.0-5.0","66d925cf0e6264c70bba83e4","67619bf32066d179f8b4b1ec","67895f9d974b06215f5f7d7a","passed","[{""page_index"":0,""viewing_time"":26958}]","26959","","","","","","","","","","","","","","","","","","","","","","","","","","","",""
"","","","","","html-keyboard-response","63","1921967","0.0-13.0-6.0","66d925cf0e6264c70bba83e4","67619bf32066d179f8b4b1ec","67895f9d974b06215f5f7d7a","passed","","3698","","","","","","","","","","","","","<p><span style=""font-size:40px;"">Practice Test BLOCK 1</span></p><p><span style=""font-size:25px;"">You have <strong>1 second(s)</strong> to respond to the following trials.</span><br></p><p id=""blinking-text"" style=""font-weight; animation: blink 2s infinite;"">Press Space to continue</p><style>
                    @keyframes blink {
                        50% {
                            opacity: 0;
                        }
                    }
                </style>"," ","","","","","","","","","","","","","",""
"","","","","","html-keyboard-response","64","1923539","0.0-13.0-7.0-0.0","66d925cf0e6264c70bba83e4","67619bf32066d179f8b4b1ec","67895f9d974b06215f5f7d7a","passed","","","","","","","","","","","","","","","","","ballFalling_prac","340","390","263","4","fallScene","true","","","","","","",""
"","","","","","html-keyboard-response","65","1923980","0.0-13.0-7.0-1.0","66d925cf0e6264c70bba83e4","67619bf32066d179f8b4b1ec","67895f9d974b06215f5f7d7a","passed","","435","","","","","","","","","","","","","","f","yesOrNo_prac","","","","4","","","far gt","1000","","","","",""
"","","","","","html-keyboard-response","66","1925543","0.0-13.0-7.0-0.1","66d925cf0e6264c70bba83e4","67619bf32066d179f8b4b1ec","67895f9d974b06215f5f7d7a","passed","","","","","","","","","","","","","","","","","ballFalling_prac","441","500","317","6","fallScene","true","","","","","","",""
"","","","","","html-keyboard-response","67","1926154","0.0-13.0-7.0-1.1","66d925cf0e6264c70bba83e4","67619bf32066d179f8b4b1ec","67895f9d974b06215f5f7d7a","passed","","603","","","","","","","","","","","","","","f","yesOrNo_prac","","","","6","","","close gt","1000","","","","",""
"","","","","","html-keyboard-response","68","1927715","0.0-13.0-7.0-0.2","66d925cf0e6264c70bba83e4","67619bf32066d179f8b4b1ec","67895f9d974b06215f5f7d7a","passed","","","","","","","","","","","","","","","","","ballFalling_prac","559","586","302","5","fallScene","false","","","","","","",""
"","","","","","html-keyboard-response","69","1928220","0.0-13.0-7.0-1.2","66d925cf0e6264c70bba83e4","67619bf32066d179f8b4b1ec","67895f9d974b06215f5f7d7a","passed","","496","","","","","","","","","","","","","","j","yesOrNo_prac","","","","5","","","gt","1000","","","","",""
"","","","","","html-keyboard-response","70","1930210","0.0-13.0-8.0","66d925cf0e6264c70bba83e4","67619bf32066d179f8b4b1ec","67895f9d974b06215f5f7d7a","passed","","1986","","","","","","","","","","","","","<p><span style=""font-size:40px;"">Practice Test BLOCK 2</span></p><p><span style=""font-size:25px;"">You have <strong>3 second(s)</strong> to respond to the following trials.</span><br></p><p id=""blinking-text"" style=""font-weight; animation: blink 2s infinite;"">Press Space to continue</p><style>
                    @keyframes blink {
                        50% {
                            opacity: 0;
                        }
                    }
                </style>"," ","","","","","","","","","","","","","",""
"","","","","","html-keyboard-response","71","1931782","0.0-13.0-9.0-0.0","66d925cf0e6264c70bba83e4","67619bf32066d179f8b4b1ec","67895f9d974b06215f5f7d7a","passed","","","","","","","","","","","","","","","","","ballFalling_prac","416","365","249","2","fallScene","false","","","","","","",""
"","","","","","html-keyboard-response","72","1932151","0.0-13.0-9.0-1.0","66d925cf0e6264c70bba83e4","67619bf32066d179f8b4b1ec","67895f9d974b06215f5f7d7a","passed","","354","","","","","","","","","","","","","","j","yesOrNo_prac","","","","2","","","gt","3000","","","","",""
"","","","","","html-keyboard-response","73","1933715","0.0-13.0-9.0-0.1","66d925cf0e6264c70bba83e4","67619bf32066d179f8b4b1ec","67895f9d974b06215f5f7d7a","passed","","","","","","","","","","","","","","","","","ballFalling_prac","340","390","263","4","fallScene","true","","","","","","",""
"","","","","","html-keyboard-response","74","1934130","0.0-13.0-9.0-1.1","66d925cf0e6264c70bba83e4","67619bf32066d179f8b4b1ec","67895f9d974b06215f5f7d7a","passed","","407","","","","","","","","","","","","","","j","yesOrNo_prac","","","","4","","","close gt","3000","","","","",""
"","","","","","html-keyboard-response","75","1935697","0.0-13.0-9.0-0.2","66d925cf0e6264c70bba83e4","67619bf32066d179f8b4b1ec","67895f9d974b06215f5f7d7a","passed","","","","","","","","","","","","","","","","","ballFalling_prac","559","586","302","5","fallScene","false","","","","","","",""
"","","","","","html-keyboard-response","76","1936197","0.0-13.0-9.0-1.2","66d925cf0e6264c70bba83e4","67619bf32066d179f8b4b1ec","67895f9d974b06215f5f7d7a","passed","","492","","","","","","","","","","","","","","f","yesOrNo_prac","","","","5","","","far gt","3000","","","","",""
"","","","","","instructions","77","1968945","0.0-14.0","66d925cf0e6264c70bba83e4","67619bf32066d179f8b4b1ec","67895f9d974b06215f5f7d7a","passed","[{""page_index"":0,""viewing_time"":32741}]","32742","","","","","","","","","","","","","","","","","","","","","","","","","","","",""
"","","","","","html-keyboard-response","78","1973390","0.0-15.0","66d925cf0e6264c70bba83e4","67619bf32066d179f8b4b1ec","67895f9d974b06215f5f7d7a","passed","","4442","","","","","","","","","","","","","<p><span style=""font-size:40px;"">BLOCK 1</span></p><p><span style=""font-size:25px;"">You have <strong>3 second(s)</strong> to respond to the following trials.</span><br></p><p></p> <!-- Blank line -->
                <p id=""blinking-text"" style=""font-weight; animation: blink 2s infinite;"">Press Space to continue</p>
                <style>
                    @keyframes blink {
                        50% {
                            opacity: 0;
                        }
                    }
                </style></p>"," ","","","","","","","","","","","","","",""
"","","","","","html-keyboard-response","79","1974955","0.0-16.0-0.0","66d925cf0e6264c70bba83e4","67619bf32066d179f8b4b1ec","67895f9d974b06215f5f7d7a","passed","","","","","","","","","","","","","","","","","ballFalling","604.4000000000001","575.4211431702997","266.76","12","fallScene","false","","","","","1","",""
"","","","","","html-keyboard-response","80","1975264","0.0-16.0-1.0","66d925cf0e6264c70bba83e4","67619bf32066d179f8b4b1ec","67895f9d974b06215f5f7d7a","passed","","299","","","","","","","","","","","","","","j","yesOrNo","","","","12","","","mid","3000","","","1","536.4288568297004","300"
"","","","","","html-keyboard-response","81","1976822","0.0-16.0-0.1","66d925cf0e6264c70bba83e4","67619bf32066d179f8b4b1ec","67895f9d974b06215f5f7d7a","passed","","","","","","","","","","","","","","","","","ballFalling","604.4000000000001","650.0211431702996","404.58000000000004","11","fallScene","false","","","","","2","",""
"","","","","","html-keyboard-response","82","1977317","0.0-16.0-1.1","66d925cf0e6264c70bba83e4","67619bf32066d179f8b4b1ec","67895f9d974b06215f5f7d7a","passed","","487","","","","","","","","","","","","","","f","yesOrNo","","","","11","","","gt","3000","","","2","650.0211431702996","404.58"
"","","","","","html-keyboard-response","83","1978821","0.0-16.0-0.2","66d925cf0e6264c70bba83e4","67619bf32066d179f8b4b1ec","67895f9d974b06215f5f7d7a","passed","","","","","","","","","","","","","","","","","ballFalling","604.4000000000001","667.6211431702998","201.78","9","fallScene","true","","","","","3","",""
"","","","","","html-keyboard-response","84","1979360","0.0-16.0-1.2","66d925cf0e6264c70bba83e4","67619bf32066d179f8b4b1ec","67895f9d974b06215f5f7d7a","passed","","531","","","","","","","","","","","","","","j","yesOrNo","","","","9","","","mid","3000","","","3","605.4000000000001","300"
"","","","","","html-keyboard-response","85","1980856","0.0-16.0-0.3","66d925cf0e6264c70bba83e4","67619bf32066d179f8b4b1ec","67895f9d974b06215f5f7d7a","passed","","","","","","","","","","","","","","","","","ballFalling","604.4000000000001","667.6211431702998","201.78","9","fallScene","true","","","","","4","",""
"","","","","","html-keyboard-response","86","1981478","0.0-16.0-1.3","66d925cf0e6264c70bba83e4","67619bf32066d179f8b4b1ec","67895f9d974b06215f5f7d7a","passed","","615","","","","","","","","","","","","","","j","yesOrNo","","","","9","","","lp","3000","","","4","605.4000000000001","151"
"","","","","","html-keyboard-response","87","1983039","0.0-16.0-0.4","66d925cf0e6264c70bba83e4","67619bf32066d179f8b4b1ec","67895f9d974b06215f5f7d7a","passed","","","","","","","","","","","","","","","","","ballFalling","322.3","296.07114317029976","371.46","3","fallScene","true","","","","","5","",""
"","","","","","html-keyboard-response","88","1983593","0.0-16.0-1.4","66d925cf0e6264c70bba83e4","67619bf32066d179f8b4b1ec","67895f9d974b06215f5f7d7a","passed","","546","","","","","","","","","","","","","","j","yesOrNo","","","","3","","","lp","3000","","","5","321.3","287.3327096511259"
"","","","","","html-keyboard-response","89","1985170","0.0-16.0-0.5","66d925cf0e6264c70bba83e4","67619bf32066d179f8b4b1ec","67895f9d974b06215f5f7d7a","passed","","","","","","","","","","","","","","","","","ballFalling","500","553.4711431702997","282.51","7","fallScene","true","","","","","6","",""
"","","","","","html-keyboard-response","90","1985859","0.0-16.0-1.5","66d925cf0e6264c70bba83e4","67619bf32066d179f8b4b1ec","67895f9d974b06215f5f7d7a","passed","","682","","","","","","","","","","","","","","j","yesOrNo","","","","7","","","mid","3000","","","6","501","300"
"","","","","","html-keyboard-response","91","1987880","0.0-16.0-0.6","66d925cf0e6264c70bba83e4","67619bf32066d179f8b4b1ec","67895f9d974b06215f5f7d7a","passed","","","","","","","","","","","","","","","","","ballFalling","500","510.8711431702997","369.03","8","fallScene","true","","","","","7","",""
"","","","","","html-keyboard-response","92","1988436","0.0-16.0-1.6","66d925cf0e6264c70bba83e4","67619bf32066d179f8b4b1ec","67895f9d974b06215f5f7d7a","passed","","547","","","","","","","","","","","","","","f","yesOrNo","","","","8","","","lp","3000","","","7","501","151"
"","","","","","html-keyboard-response","93","1989997","0.0-16.0-0.7","66d925cf0e6264c70bba83e4","67619bf32066d179f8b4b1ec","67895f9d974b06215f5f7d7a","passed","","","","","","","","","","","","","","","","","ballFalling","322.3","356.42114317029973","357.87","4","fallScene","true","","","","","8","",""
"","","","","","html-keyboard-response","94","1990550","0.0-16.0-1.7","66d925cf0e6264c70bba83e4","67619bf32066d179f8b4b1ec","67895f9d974b06215f5f7d7a","passed","","546","","","","","","","","","","","","","","j","yesOrNo","","","","4","","","lp","3000","","","8","323.3","297.4070551689986"
"","","","","","html-keyboard-response","95","1992113","0.0-16.0-0.8","66d925cf0e6264c70bba83e4","67619bf32066d179f8b4b1ec","67895f9d974b06215f5f7d7a","passed","","","","","","","","","","","","","","","","","ballFalling","322.3","356.42114317029973","357.87","4","fallScene","false","","","","","9","",""
"","","","","","html-keyboard-response","96","1992635","0.0-16.0-1.8","66d925cf0e6264c70bba83e4","67619bf32066d179f8b4b1ec","67895f9d974b06215f5f7d7a","passed","","512","","","","","","","","","","","","","","f","yesOrNo","","","","4","","","gt","3000","","","9","356.42114317029973","357.87"
"","","","","","html-keyboard-response","97","1994646","0.0-16.0-0.9","66d925cf0e6264c70bba83e4","67619bf32066d179f8b4b1ec","67895f9d974b06215f5f7d7a","passed","","","","","","","","","","","","","","","","","ballFalling","604.4000000000001","596.8711431702998","394.5","10","fallScene","true","","","","","10","",""
"","","","","","html-keyboard-response","98","1995099","0.0-16.0-1.9","66d925cf0e6264c70bba83e4","67619bf32066d179f8b4b1ec","67895f9d974b06215f5f7d7a","passed","","444","","","","","","","","","","","","","","j","yesOrNo","","","","10","","","lp","3000","","","10","603.4000000000001","215.50214355555383"
"","","","","","html-keyboard-response","99","1996662","0.0-16.0-0.10","66d925cf0e6264c70bba83e4","67619bf32066d179f8b4b1ec","67895f9d974b06215f5f7d7a","passed","","","","","","","","","","","","","","","","","ballFalling","322.3","379.3711431702997","245.25","1","fallScene","false","","","","","11","",""
"","","","","","html-keyboard-response","100","1997350","0.0-16.0-1.10","66d925cf0e6264c70bba83e4","67619bf32066d179f8b4b1ec","67895f9d974b06215f5f7d7a","passed","","681","","","","","","","","","","","","","","j","yesOrNo","","","","1","","","gt","3000","","","11","379.3711431702997","245.25"
"","","","","","html-keyboard-response","101","1998912","0.0-16.0-0.11","66d925cf0e6264c70bba83e4","67619bf32066d179f8b4b1ec","67895f9d974b06215f5f7d7a","passed","","","","","","","","","","","","","","","","","ballFalling","322.3","296.07114317029976","371.46","3","fallScene","false","","","","","12","",""
"","","","","","html-keyboard-response","102","1999601","0.0-16.0-1.11","66d925cf0e6264c70bba83e4","67619bf32066d179f8b4b1ec","67895f9d974b06215f5f7d7a","passed","","680","","","","","","","","","","","","","","j","yesOrNo","","","","3","","","lp","3000","","","12","321.3","287.3327096511259"
"","","","","","html-keyboard-response","103","2001162","0.0-16.0-0.12","66d925cf0e6264c70bba83e4","67619bf32066d179f8b4b1ec","67895f9d974b06215f5f7d7a","passed","","","","","","","","","","","","","","","","","ballFalling","604.4000000000001","575.4211431702997","266.76","12","fallScene","true","","","","","13","",""
"","","","","","html-keyboard-response","104","2001897","0.0-16.0-1.12","66d925cf0e6264c70bba83e4","67619bf32066d179f8b4b1ec","67895f9d974b06215f5f7d7a","passed","","728","","","","","","","","","","","","","","j","yesOrNo","","","","12","","","gt","3000","","","13","575.4211431702997","266.76"
"","","","","","html-keyboard-response","105","2003396","0.0-16.0-0.13","66d925cf0e6264c70bba83e4","67619bf32066d179f8b4b1ec","67895f9d974b06215f5f7d7a","passed","","","","","","","","","","","","","","","","","ballFalling","604.4000000000001","667.6211431702998","201.78","9","fallScene","true","","","","","14","",""
"","","","","","html-keyboard-response","106","2004198","0.0-16.0-1.13","66d925cf0e6264c70bba83e4","67619bf32066d179f8b4b1ec","67895f9d974b06215f5f7d7a","passed","","795","","","","","","","","","","","","","","f","yesOrNo","","","","9","","","lp","3000","","","14","605.4000000000001","151"
"","","","","","html-keyboard-response","107","2005777","0.0-16.0-0.14","66d925cf0e6264c70bba83e4","67619bf32066d179f8b4b1ec","67895f9d974b06215f5f7d7a","passed","","","","","","","","","","","","","","","","","ballFalling","500","553.4711431702997","282.51","7","fallScene","false","","","","","15","",""
"","","","","","html-keyboard-response","108","2006440","0.0-16.0-1.14","66d925cf0e6264c70bba83e4","67619bf32066d179f8b4b1ec","67895f9d974b06215f5f7d7a","passed","","654","","","","","","","","","","","","","","j","yesOrNo","","","","7","","","lp","3000","","","15","501","227.2843295913261"
"","","","","","html-keyboard-response","109","2007993","0.0-16.0-0.15","66d925cf0e6264c70bba83e4","67619bf32066d179f8b4b1ec","67895f9d974b06215f5f7d7a","passed","","","","","","","","","","","","","","","","","ballFalling","604.4000000000001","575.4211431702997","266.76","12","fallScene","true","","","","","16","",""
"","","","","","html-keyboard-response","110","2008699","0.0-16.0-1.15","66d925cf0e6264c70bba83e4","67619bf32066d179f8b4b1ec","67895f9d974b06215f5f7d7a","passed","","698","","","","","","","","","","","","","","j","yesOrNo","","","","12","","","mid","3000","","","16","536.4288568297004","300"
"","","","","","html-keyboard-response","111","2010194","0.0-16.0-0.16","66d925cf0e6264c70bba83e4","67619bf32066d179f8b4b1ec","67895f9d974b06215f5f7d7a","passed","","","","","","","","","","","","","","","","","ballFalling","604.4000000000001","667.6211431702998","201.78","9","fallScene","false","","","","","17","",""
"","","","","","html-keyboard-response","112","2010882","0.0-16.0-1.16","66d925cf0e6264c70bba83e4","67619bf32066d179f8b4b1ec","67895f9d974b06215f5f7d7a","passed","","680","","","","","","","","","","","","","","j","yesOrNo","","","","9","","","gt","3000","","","17","667.6211431702998","201.78"
"","","","","","html-keyboard-response","113","2012893","0.0-16.0-0.17","66d925cf0e6264c70bba83e4","67619bf32066d179f8b4b1ec","67895f9d974b06215f5f7d7a","passed","","","","","","","","","","","","","","","","","ballFalling","604.4000000000001","596.8711431702998","394.5","10","fallScene","false","","","","","18","",""
"","","","","","html-keyboard-response","114","2013418","0.0-16.0-1.17","66d925cf0e6264c70bba83e4","67619bf32066d179f8b4b1ec","67895f9d974b06215f5f7d7a","passed","","518","","","","","","","","","","","","","","j","yesOrNo","","","","10","","","lp","3000","","","18","603.4000000000001","215.50214355555383"
"","","","","","html-keyboard-response","115","2014993","0.0-16.0-0.18","66d925cf0e6264c70bba83e4","67619bf32066d179f8b4b1ec","67895f9d974b06215f5f7d7a","passed","","","","","","","","","","","","","","","","","ballFalling","500","553.4711431702997","282.51","7","fallScene","true","","","","","19","",""
"","","","","","html-keyboard-response","116","2015598","0.0-16.0-1.18","66d925cf0e6264c70bba83e4","67619bf32066d179f8b4b1ec","67895f9d974b06215f5f7d7a","passed","","597","","","","","","","","","","","","","","j","yesOrNo","","","","7","","","lp","3000","","","19","501","227.2843295913261"
"","","","","","html-keyboard-response","117","2017160","0.0-16.0-0.19","66d925cf0e6264c70bba83e4","67619bf32066d179f8b4b1ec","67895f9d974b06215f5f7d7a","passed","","","","","","","","","","","","","","","","","ballFalling","322.3","379.3711431702997","245.25","1","fallScene","true","","","","","20","",""
"","","","","","html-keyboard-response","118","2017892","0.0-16.0-1.19","66d925cf0e6264c70bba83e4","67619bf32066d179f8b4b1ec","67895f9d974b06215f5f7d7a","passed","","725","","","","","","","","","","","","","","f","yesOrNo","","","","1","","","mid","3000","","","20","390.27114317029975","300"
"","","","","","html-keyboard-response","119","2019458","0.0-16.0-0.20","66d925cf0e6264c70bba83e4","67619bf32066d179f8b4b1ec","67895f9d974b06215f5f7d7a","passed","","","","","","","","","","","","","","","","","ballFalling","322.3","356.42114317029973","357.87","4","fallScene","true","","","","","21","",""
"","","","","","html-keyboard-response","120","2020065","0.0-16.0-1.20","66d925cf0e6264c70bba83e4","67619bf32066d179f8b4b1ec","67895f9d974b06215f5f7d7a","passed","","598","","","","","","","","","","","","","","j","yesOrNo","","","","4","","","lp","3000","","","21","323.3","297.4070551689986"
"","","","","","html-keyboard-response","121","2022076","0.0-16.0-0.21","66d925cf0e6264c70bba83e4","67619bf32066d179f8b4b1ec","67895f9d974b06215f5f7d7a","passed","","","","","","","","","","","","","","","","","ballFalling","604.4000000000001","596.8711431702998","394.5","10","fallScene","false","","","","","22","",""
"","","","","","html-keyboard-response","122","2022531","0.0-16.0-1.21","66d925cf0e6264c70bba83e4","67619bf32066d179f8b4b1ec","67895f9d974b06215f5f7d7a","passed","","448","","","","","","","","","","","","","","j","yesOrNo","","","","10","","","gt","3000","","","22","596.8711431702998","394.5"
"","","","","","html-keyboard-response","123","2024191","0.0-16.0-0.22","66d925cf0e6264c70bba83e4","67619bf32066d179f8b4b1ec","67895f9d974b06215f5f7d7a","passed","","","","","","","","","","","","","","","","","ballFalling","500","479.92114317029973","330.87","6","fallScene","false","","","","","23","",""
"","","","","","html-keyboard-response","124","2024731","0.0-16.0-1.22","66d925cf0e6264c70bba83e4","67619bf32066d179f8b4b1ec","67895f9d974b06215f5f7d7a","passed","","532","","","","","","","","","","","","","","j","yesOrNo","","","","6","","","lp","3000","","","23","499","189.92909825697632"
"","","","","","html-keyboard-response","125","2026300","0.0-16.0-0.23","66d925cf0e6264c70bba83e4","67619bf32066d179f8b4b1ec","67895f9d974b06215f5f7d7a","passed","","","","","","","","","","","","","","","","","ballFalling","322.3","356.42114317029973","357.87","4","fallScene","true","","","","","24","",""
"","","","","","html-keyboard-response","126","2026868","0.0-16.0-1.23","66d925cf0e6264c70bba83e4","67619bf32066d179f8b4b1ec","67895f9d974b06215f5f7d7a","passed","","563","","","","","","","","","","","","","","j","yesOrNo","","","","4","","","gt","3000","","","24","356.42114317029973","357.87"
"","","","","","html-keyboard-response","127","2028678","0.0-17.0","66d925cf0e6264c70bba83e4","67619bf32066d179f8b4b1ec","67895f9d974b06215f5f7d7a","passed","","1806","","","","","","","","","","","","","<p><span style=""font-size:40px;"">BLOCK 2</span></p><p><span style=""font-size:25px;"">You have <strong>1 second(s)</strong> to respond to the following trials.</span><br></p><p></p> <!-- Blank line -->
                <p id=""blinking-text"" style=""font-weight; animation: blink 2s infinite;"">Press Space to continue</p>
                <style>
                    @keyframes blink {
                        50% {
                            opacity: 0;
                        }
                    }
                </style></p>"," ","","","","","","","","","","","","","",""
"","","","","","html-keyboard-response","128","2030339","0.0-18.0-0.0","66d925cf0e6264c70bba83e4","67619bf32066d179f8b4b1ec","67895f9d974b06215f5f7d7a","passed","","","","","","","","","","","","","","","","","ballFalling","500","479.92114317029973","330.87","6","fallScene","false","","","","","25","",""
"","","","","","html-keyboard-response","129","2030732","0.0-18.0-1.0","66d925cf0e6264c70bba83e4","67619bf32066d179f8b4b1ec","67895f9d974b06215f5f7d7a","passed","","385","","","","","","","","","","","","","","j","yesOrNo","","","","6","","","lp","1000","","","25","499","189.92909825697632"
"","","","","","html-keyboard-response","130","2032232","0.0-18.0-0.1","66d925cf0e6264c70bba83e4","67619bf32066d179f8b4b1ec","67895f9d974b06215f5f7d7a","passed","","","","","","","","","","","","","","","","","ballFalling","604.4000000000001","667.6211431702998","201.78","9","fallScene","true","","","","","26","",""
"","","","","","html-keyboard-response","131","2032886","0.0-18.0-1.1","66d925cf0e6264c70bba83e4","67619bf32066d179f8b4b1ec","67895f9d974b06215f5f7d7a","passed","","649","","","","","","","","","","","","","","j","yesOrNo","","","","9","","","mid","1000","","","26","605.4000000000001","300"
"","","","","","html-keyboard-response","132","2034687","0.0-18.0-0.2","66d925cf0e6264c70bba83e4","67619bf32066d179f8b4b1ec","67895f9d974b06215f5f7d7a","passed","","","","","","","","","","","","","","","","","ballFalling","322.3","308.07114317029976","253.89","2","fallScene","true","","","","","27","",""
"","","","","","html-keyboard-response","133","2035260","0.0-18.0-1.2","66d925cf0e6264c70bba83e4","67619bf32066d179f8b4b1ec","67895f9d974b06215f5f7d7a","passed","","568","","","","","","","","","","","","","","j","yesOrNo","","","","2","","","mid","1000","","","27","321.3","300"
"","","","","","html-keyboard-response","134","2036839","0.0-18.0-0.3","66d925cf0e6264c70bba83e4","67619bf32066d179f8b4b1ec","67895f9d974b06215f5f7d7a","passed","","","","","","","","","","","","","","","","","ballFalling","500","553.4711431702997","282.51","7","fallScene","true","","","","","28","",""
"","","","","","html-keyboard-response","135","2037694","0.0-18.0-1.3","66d925cf0e6264c70bba83e4","67619bf32066d179f8b4b1ec","67895f9d974b06215f5f7d7a","passed","","848","","","","","","","","","","","","","","j","yesOrNo","","","","7","","","mid","1000","","","28","501","300"
"","","","","","html-keyboard-response","136","2039254","0.0-18.0-0.4","66d925cf0e6264c70bba83e4","67619bf32066d179f8b4b1ec","67895f9d974b06215f5f7d7a","passed","","","","","","","","","","","","","","","","","ballFalling","604.4000000000001","575.4211431702997","266.76","12","fallScene","false","","","","","29","",""
"","","","","","html-keyboard-response","137","2039763","0.0-18.0-1.4","66d925cf0e6264c70bba83e4","67619bf32066d179f8b4b1ec","67895f9d974b06215f5f7d7a","passed","","501","","","","","","","","","","","","","","j","yesOrNo","","","","12","","","mid","1000","","","29","536.4288568297004","300"
"","","","","","html-keyboard-response","138","2041421","0.0-18.0-0.5","66d925cf0e6264c70bba83e4","67619bf32066d179f8b4b1ec","67895f9d974b06215f5f7d7a","passed","","","","","","","","","","","","","","","","","ballFalling","500","479.92114317029973","330.87","6","fallScene","true","","","","","30","",""
"","","","","","html-keyboard-response","139","2042010","0.0-18.0-1.5","66d925cf0e6264c70bba83e4","67619bf32066d179f8b4b1ec","67895f9d974b06215f5f7d7a","passed","","580","","","","","","","","","","","","","","j","yesOrNo","","","","6","","","gt","1000","","","30","479.9211431702998","330.87"
"","","","","","html-keyboard-response","140","2043582","0.0-18.0-0.6","66d925cf0e6264c70bba83e4","67619bf32066d179f8b4b1ec","67895f9d974b06215f5f7d7a","passed","","","","","","","","","","","","","","","","","ballFalling","500","453.67114317029973","210.33","5","fallScene","true","","","","","31","",""
"","","","","","html-keyboard-response","141","2044154","0.0-18.0-1.6","66d925cf0e6264c70bba83e4","67619bf32066d179f8b4b1ec","67895f9d974b06215f5f7d7a","passed","","569","","","","","","","","","","","","","","j","yesOrNo","","","","5","","","gt","1000","","","31","453.6711431702998","210.33"
"","","","","","html-keyboard-response","142","2045718","0.0-18.0-0.7","66d925cf0e6264c70bba83e4","67619bf32066d179f8b4b1ec","67895f9d974b06215f5f7d7a","passed","","","","","","","","","","","","","","","","","ballFalling","500","453.67114317029973","210.33","5","fallScene","true","","","","","32","",""
"","","","","","html-keyboard-response","143","2046377","0.0-18.0-1.7","66d925cf0e6264c70bba83e4","67619bf32066d179f8b4b1ec","67895f9d974b06215f5f7d7a","passed","","649","","","","","","","","","","","","","","j","yesOrNo","","","","5","","","lp","1000","","","32","499","151"
"","","","","","html-keyboard-response","144","2048384","0.0-18.0-0.8","66d925cf0e6264c70bba83e4","67619bf32066d179f8b4b1ec","67895f9d974b06215f5f7d7a","passed","","","","","","","","","","","","","","","","","ballFalling","604.4000000000001","596.8711431702998","394.5","10","fallScene","false","","","","","33","",""
"","","","","","html-keyboard-response","145","2048957","0.0-18.0-1.8","66d925cf0e6264c70bba83e4","67619bf32066d179f8b4b1ec","67895f9d974b06215f5f7d7a","passed","","565","","","","","","","","","","","","","","j","yesOrNo","","","","10","","","mid","1000","","","33","536.4288568297004","300"
"","","","","","html-keyboard-response","146","2050517","0.0-18.0-0.9","66d925cf0e6264c70bba83e4","67619bf32066d179f8b4b1ec","67895f9d974b06215f5f7d7a","passed","","","","","","","","","","","","","","","","","ballFalling","322.3","379.3711431702997","245.25","1","fallScene","true","","","","","34","",""
"","","","","","html-keyboard-response","147","2051234","0.0-18.0-1.9","66d925cf0e6264c70bba83e4","67619bf32066d179f8b4b1ec","67895f9d974b06215f5f7d7a","passed","","710","","","","","","","","","","","","","","j","yesOrNo","","","","1","","","lp","1000","","","34","323.3","217.74551669457017"
"","","","","","html-keyboard-response","148","2052815","0.0-18.0-0.10","66d925cf0e6264c70bba83e4","67619bf32066d179f8b4b1ec","67895f9d974b06215f5f7d7a","passed","","","","","","","","","","","","","","","","","ballFalling","500","553.4711431702997","282.51","7","fallScene","true","","","","","35","",""
"","","","","","html-keyboard-response","149","2053366","0.0-18.0-1.10","66d925cf0e6264c70bba83e4","67619bf32066d179f8b4b1ec","67895f9d974b06215f5f7d7a","passed","","543","","","","","","","","","","","","","","j","yesOrNo","","","","7","","","mid","1000","","","35","501","300"
"","","","","","html-keyboard-response","150","2054865","0.0-18.0-0.11","66d925cf0e6264c70bba83e4","67619bf32066d179f8b4b1ec","67895f9d974b06215f5f7d7a","passed","","","","","","","","","","","","","","","","","ballFalling","604.4000000000001","667.6211431702998","201.78","9","fallScene","false","","","","","36","",""
"","","","","","html-keyboard-response","151","2055604","0.0-18.0-1.11","66d925cf0e6264c70bba83e4","67619bf32066d179f8b4b1ec","67895f9d974b06215f5f7d7a","passed","","732","","","","","","","","","","","","","","j","yesOrNo","","","","9","","","lp","1000","","","36","605.4000000000001","151"
"","","","","","html-keyboard-response","152","2057164","0.0-18.0-0.12","66d925cf0e6264c70bba83e4","67619bf32066d179f8b4b1ec","67895f9d974b06215f5f7d7a","passed","","","","","","","","","","","","","","","","","ballFalling","604.4000000000001","575.4211431702997","266.76","12","fallScene","false","","","","","37","",""
"","","","","","html-keyboard-response","153","2057792","0.0-18.0-1.12","66d925cf0e6264c70bba83e4","67619bf32066d179f8b4b1ec","67895f9d974b06215f5f7d7a","passed","","620","","","","","","","","","","","","","","j","yesOrNo","","","","12","","","mid","1000","","","37","536.4288568297004","300"
"","","","","","html-keyboard-response","154","2059590","0.0-18.0-0.13","66d925cf0e6264c70bba83e4","67619bf32066d179f8b4b1ec","67895f9d974b06215f5f7d7a","passed","","","","","","","","","","","","","","","","","ballFalling","322.3","308.07114317029976","253.89","2","fallScene","true","","","","","38","",""
"","","","","","html-keyboard-response","155","2060350","0.0-18.0-1.13","66d925cf0e6264c70bba83e4","67619bf32066d179f8b4b1ec","67895f9d974b06215f5f7d7a","passed","","754","","","","","","","","","","","","","","j","yesOrNo","","","","2","","","lp","1000","","","38","321.3","151"
"","","","","","html-keyboard-response","156","2061914","0.0-18.0-0.14","66d925cf0e6264c70bba83e4","67619bf32066d179f8b4b1ec","67895f9d974b06215f5f7d7a","passed","","","","","","","","","","","","","","","","","ballFalling","322.3","379.3711431702997","245.25","1","fallScene","false","","","","","39","",""
"","","","","","html-keyboard-response","157","2062924","0.0-18.0-1.14","66d925cf0e6264c70bba83e4","67619bf32066d179f8b4b1ec","67895f9d974b06215f5f7d7a","passed","","null","","","","","","","","","","","","","","null","yesOrNo","","","","1","","","gt","1000","","","39","379.3711431702997","245.25"
"","","","","","html-keyboard-response","158","2064479","0.0-18.0-0.15","66d925cf0e6264c70bba83e4","67619bf32066d179f8b4b1ec","67895f9d974b06215f5f7d7a","passed","","","","","","","","","","","","","","","","","ballFalling","604.4000000000001","575.4211431702997","266.76","12","fallScene","false","","","","","40","",""
"","","","","","html-keyboard-response","159","2065249","0.0-18.0-1.15","66d925cf0e6264c70bba83e4","67619bf32066d179f8b4b1ec","67895f9d974b06215f5f7d7a","passed","","761","","","","","","","","","","","","","","j","yesOrNo","","","","12","","","gt","1000","","","40","575.4211431702997","266.76"
"","","","","","html-keyboard-response","160","2066813","0.0-18.0-0.16","66d925cf0e6264c70bba83e4","67619bf32066d179f8b4b1ec","67895f9d974b06215f5f7d7a","passed","","","","","","","","","","","","","","","","","ballFalling","322.3","379.3711431702997","245.25","1","fallScene","true","","","","","41","",""
"","","","","","html-keyboard-response","161","2067432","0.0-18.0-1.16","66d925cf0e6264c70bba83e4","67619bf32066d179f8b4b1ec","67895f9d974b06215f5f7d7a","passed","","612","","","","","","","","","","","","","","j","yesOrNo","","","","1","","","gt","1000","","","41","379.3711431702997","245.25"
"","","","","","html-keyboard-response","162","2068996","0.0-18.0-0.17","66d925cf0e6264c70bba83e4","67619bf32066d179f8b4b1ec","67895f9d974b06215f5f7d7a","passed","","","","","","","","","","","","","","","","","ballFalling","322.3","296.07114317029976","371.46","3","fallScene","false","","","","","42","",""
"","","","","","html-keyboard-response","163","2069623","0.0-18.0-1.17","66d925cf0e6264c70bba83e4","67619bf32066d179f8b4b1ec","67895f9d974b06215f5f7d7a","passed","","618","","","","","","","","","","","","","","j","yesOrNo","","","","3","","","lp","1000","","","42","321.3","287.3327096511259"
"","","","","","html-keyboard-response","164","2071179","0.0-18.0-0.18","66d925cf0e6264c70bba83e4","67619bf32066d179f8b4b1ec","67895f9d974b06215f5f7d7a","passed","","","","","","","","","","","","","","","","","ballFalling","322.3","379.3711431702997","245.25","1","fallScene","true","","","","","43","",""
"","","","","","html-keyboard-response","165","2071772","0.0-18.0-1.18","66d925cf0e6264c70bba83e4","67619bf32066d179f8b4b1ec","67895f9d974b06215f5f7d7a","passed","","584","","","","","","","","","","","","","","j","yesOrNo","","","","1","","","mid","1000","","","43","390.27114317029975","300"
"","","","","","html-keyboard-response","166","2073328","0.0-18.0-0.19","66d925cf0e6264c70bba83e4","67619bf32066d179f8b4b1ec","67895f9d974b06215f5f7d7a","passed","","","","","","","","","","","","","","","","","ballFalling","604.4000000000001","575.4211431702997","266.76","12","fallScene","false","","","","","44","",""
"","","","","","html-keyboard-response","167","2074082","0.0-18.0-1.19","66d925cf0e6264c70bba83e4","67619bf32066d179f8b4b1ec","67895f9d974b06215f5f7d7a","passed","","747","","","","","","","","","","","","","","f","yesOrNo","","","","12","","","lp","1000","","","44","603.4000000000001","151"
"","","","","","html-keyboard-response","168","2075644","0.0-18.0-0.20","66d925cf0e6264c70bba83e4","67619bf32066d179f8b4b1ec","67895f9d974b06215f5f7d7a","passed","","","","","","","","","","","","","","","","","ballFalling","604.4000000000001","650.0211431702996","404.58000000000004","11","fallScene","true","","","","","45","",""
"","","","","","html-keyboard-response","169","2076355","0.0-18.0-1.20","66d925cf0e6264c70bba83e4","67619bf32066d179f8b4b1ec","67895f9d974b06215f5f7d7a","passed","","701","","","","","","","","","","","","","","j","yesOrNo","","","","11","","","lp","1000","","","45","605.4000000000001","372.6340973215488"
"","","","","","html-keyboard-response","170","2077844","0.0-18.0-0.21","66d925cf0e6264c70bba83e4","67619bf32066d179f8b4b1ec","67895f9d974b06215f5f7d7a","passed","","","","","","","","","","","","","","","","","ballFalling","604.4000000000001","667.6211431702998","201.78","9","fallScene","false","","","","","46","",""
"","","","","","html-keyboard-response","171","2078563","0.0-18.0-1.21","66d925cf0e6264c70bba83e4","67619bf32066d179f8b4b1ec","67895f9d974b06215f5f7d7a","passed","","711","","","","","","","","","","","","","","j","yesOrNo","","","","9","","","lp","1000","","","46","605.4000000000001","151"
"","","","","","html-keyboard-response","172","2080126","0.0-18.0-0.22","66d925cf0e6264c70bba83e4","67619bf32066d179f8b4b1ec","67895f9d974b06215f5f7d7a","passed","","","","","","","","","","","","","","","","","ballFalling","322.3","296.07114317029976","371.46","3","fallScene","true","","","","","47","",""
"","","","","","html-keyboard-response","173","2080998","0.0-18.0-1.22","66d925cf0e6264c70bba83e4","67619bf32066d179f8b4b1ec","67895f9d974b06215f5f7d7a","passed","","862","","","","","","","","","","","","","","f","yesOrNo","","","","3","","","gt","1000","","","47","296.07114317029976","371.46"
"","","","","","html-keyboard-response","174","2082559","0.0-18.0-0.23","66d925cf0e6264c70bba83e4","67619bf32066d179f8b4b1ec","67895f9d974b06215f5f7d7a","passed","","","","","","","","","","","","","","","","","ballFalling","322.3","356.42114317029973","357.87","4","fallScene","true","","","","","48","",""
"","","","","","html-keyboard-response","175","2083281","0.0-18.0-1.23","66d925cf0e6264c70bba83e4","67619bf32066d179f8b4b1ec","67895f9d974b06215f5f7d7a","passed","","716","","","","","","","","","","","","","","f","yesOrNo","","","","4","","","gt","1000","","","48","356.42114317029973","357.87"
"","","","","","html-keyboard-response","176","2084994","0.0-19.0","66d925cf0e6264c70bba83e4","67619bf32066d179f8b4b1ec","67895f9d974b06215f5f7d7a","passed","","1710","","","","","","","","","","","","","<p><span style=""font-size:40px;"">BLOCK 3</span></p><p><span style=""font-size:25px;"">You have <strong>3 second(s)</strong> to respond to the following trials.</span><br></p><p></p> <!-- Blank line -->
                <p id=""blinking-text"" style=""font-weight; animation: blink 2s infinite;"">Press Space to continue</p>
                <style>
                    @keyframes blink {
                        50% {
                            opacity: 0;
                        }
                    }
                </style></p>"," ","","","","","","","","","","","","","",""
"","","","","","html-keyboard-response","177","2086558","0.0-20.0-0.0","66d925cf0e6264c70bba83e4","67619bf32066d179f8b4b1ec","67895f9d974b06215f5f7d7a","passed","","","","","","","","","","","","","","","","","ballFalling","322.3","296.07114317029976","371.46","3","fallScene","false","","","","","49","",""
"","","","","","html-keyboard-response","178","2087182","0.0-20.0-1.0","66d925cf0e6264c70bba83e4","67619bf32066d179f8b4b1ec","67895f9d974b06215f5f7d7a","passed","","613","","","","","","","","","","","","","","j","yesOrNo","","","","3","","","gt","3000","","","49","296.07114317029976","371.46"
"","","","","","html-keyboard-response","179","2088741","0.0-20.0-0.1","66d925cf0e6264c70bba83e4","67619bf32066d179f8b4b1ec","67895f9d974b06215f5f7d7a","passed","","","","","","","","","","","","","","","","","ballFalling","500","453.67114317029973","210.33","5","fallScene","false","","","","","50","",""
"","","","","","html-keyboard-response","180","2089312","0.0-20.0-1.1","66d925cf0e6264c70bba83e4","67619bf32066d179f8b4b1ec","67895f9d974b06215f5f7d7a","passed","","562","","","","","","","","","","","","","","j","yesOrNo","","","","5","","","lp","3000","","","50","499","151"
"","","","","","html-keyboard-response","181","2091321","0.0-20.0-0.2","66d925cf0e6264c70bba83e4","67619bf32066d179f8b4b1ec","67895f9d974b06215f5f7d7a","passed","","","","","","","","","","","","","","","","","ballFalling","500","510.8711431702997","369.03","8","fallScene","true","","","","","51","",""
"","","","","","html-keyboard-response","182","2091930","0.0-20.0-1.2","66d925cf0e6264c70bba83e4","67619bf32066d179f8b4b1ec","67895f9d974b06215f5f7d7a","passed","","606","","","","","","","","","","","","","","j","yesOrNo","","","","8","","","gt","3000","","","51","510.8711431702997","369.03"
"","","","","","html-keyboard-response","183","2093940","0.0-20.0-0.3","66d925cf0e6264c70bba83e4","67619bf32066d179f8b4b1ec","67895f9d974b06215f5f7d7a","passed","","","","","","","","","","","","","","","","","ballFalling","604.4000000000001","596.8711431702998","394.5","10","fallScene","false","","","","","52","",""
"","","","","","html-keyboard-response","184","2094463","0.0-20.0-1.3","66d925cf0e6264c70bba83e4","67619bf32066d179f8b4b1ec","67895f9d974b06215f5f7d7a","passed","","513","","","","","","","","","","","","","","j","yesOrNo","","","","10","","","mid","3000","","","52","536.4288568297004","300"
"","","","","","html-keyboard-response","185","2096024","0.0-20.0-0.4","66d925cf0e6264c70bba83e4","67619bf32066d179f8b4b1ec","67895f9d974b06215f5f7d7a","passed","","","","","","","","","","","","","","","","","ballFalling","322.3","356.42114317029973","357.87","4","fallScene","true","","","","","53","",""
"","","","","","html-keyboard-response","186","2096598","0.0-20.0-1.4","66d925cf0e6264c70bba83e4","67619bf32066d179f8b4b1ec","67895f9d974b06215f5f7d7a","passed","","566","","","","","","","","","","","","","","j","yesOrNo","","","","4","","","mid","3000","","","53","390.27114317029975","300"
"","","","","","html-keyboard-response","187","2098257","0.0-20.0-0.5","66d925cf0e6264c70bba83e4","67619bf32066d179f8b4b1ec","67895f9d974b06215f5f7d7a","passed","","","","","","","","","","","","","","","","","ballFalling","500","479.92114317029973","330.87","6","fallScene","false","","","","","54","",""
"","","","","","html-keyboard-response","188","2098849","0.0-20.0-1.5","66d925cf0e6264c70bba83e4","67619bf32066d179f8b4b1ec","67895f9d974b06215f5f7d7a","passed","","584","","","","","","","","","","","","","","j","yesOrNo","","","","6","","","mid","3000","","","54","499","300"
"","","","","","html-keyboard-response","189","2100507","0.0-20.0-0.6","66d925cf0e6264c70bba83e4","67619bf32066d179f8b4b1ec","67895f9d974b06215f5f7d7a","passed","","","","","","","","","","","","","","","","","ballFalling","500","479.92114317029973","330.87","6","fallScene","true","","","","","55","",""
"","","","","","html-keyboard-response","190","2101130","0.0-20.0-1.6","66d925cf0e6264c70bba83e4","67619bf32066d179f8b4b1ec","67895f9d974b06215f5f7d7a","passed","","608","","","","","","","","","","","","","","f","yesOrNo","","","","6","","","gt","3000","","","55","479.9211431702998","330.87"
"","","","","","html-keyboard-response","191","2102706","0.0-20.0-0.7","66d925cf0e6264c70bba83e4","67619bf32066d179f8b4b1ec","67895f9d974b06215f5f7d7a","passed","","","","","","","","","","","","","","","","","ballFalling","500","553.4711431702997","282.51","7","fallScene","false","","","","","56","",""
"","","","","","html-keyboard-response","192","2103380","0.0-20.0-1.7","66d925cf0e6264c70bba83e4","67619bf32066d179f8b4b1ec","67895f9d974b06215f5f7d7a","passed","","667","","","","","","","","","","","","","","j","yesOrNo","","","","7","","","gt","3000","","","56","553.4711431702997","282.51"
"","","","","","html-keyboard-response","193","2105169","0.0-20.0-0.8","66d925cf0e6264c70bba83e4","67619bf32066d179f8b4b1ec","67895f9d974b06215f5f7d7a","passed","","","","","","","","","","","","","","","","","ballFalling","322.3","308.07114317029976","253.89","2","fallScene","true","","","","","57","",""
"","","","","","html-keyboard-response","194","2105892","0.0-20.0-1.8","66d925cf0e6264c70bba83e4","67619bf32066d179f8b4b1ec","67895f9d974b06215f5f7d7a","passed","","716","","","","","","","","","","","","","","f","yesOrNo","","","","2","","","gt","3000","","","57","308.07114317029976","253.89"
"","","","","","html-keyboard-response","195","2107905","0.0-20.0-0.9","66d925cf0e6264c70bba83e4","67619bf32066d179f8b4b1ec","67895f9d974b06215f5f7d7a","passed","","","","","","","","","","","","","","","","","ballFalling","500","510.8711431702997","369.03","8","fallScene","true","","","","","58","",""
"","","","","","html-keyboard-response","196","2108609","0.0-20.0-1.9","66d925cf0e6264c70bba83e4","67619bf32066d179f8b4b1ec","67895f9d974b06215f5f7d7a","passed","","695","","","","","","","","","","","","","","f","yesOrNo","","","","8","","","mid","3000","","","58","501","300"
"","","","","","html-keyboard-response","197","2110171","0.0-20.0-0.10","66d925cf0e6264c70bba83e4","67619bf32066d179f8b4b1ec","67895f9d974b06215f5f7d7a","passed","","","","","","","","","","","","","","","","","ballFalling","322.3","379.3711431702997","245.25","1","fallScene","true","","","","","59","",""
"","","","","","html-keyboard-response","198","2111092","0.0-20.0-1.10","66d925cf0e6264c70bba83e4","67619bf32066d179f8b4b1ec","67895f9d974b06215f5f7d7a","passed","","911","","","","","","","","","","","","","","f","yesOrNo","","","","1","","","lp","3000","","","59","323.3","217.74551669457017"
"","","","","","html-keyboard-response","199","2112653","0.0-20.0-0.11","66d925cf0e6264c70bba83e4","67619bf32066d179f8b4b1ec","67895f9d974b06215f5f7d7a","passed","","","","","","","","","","","","","","","","","ballFalling","322.3","356.42114317029973","357.87","4","fallScene","false","","","","","60","",""
"","","","","","html-keyboard-response","200","2113341","0.0-20.0-1.11","66d925cf0e6264c70bba83e4","67619bf32066d179f8b4b1ec","67895f9d974b06215f5f7d7a","passed","","681","","","","","","","","","","","","","","j","yesOrNo","","","","4","","","mid","3000","","","60","390.27114317029975","300"
"","","","","","html-keyboard-response","201","2115136","0.0-20.0-0.12","66d925cf0e6264c70bba83e4","67619bf32066d179f8b4b1ec","67895f9d974b06215f5f7d7a","passed","","","","","","","","","","","","","","","","","ballFalling","322.3","308.07114317029976","253.89","2","fallScene","false","","","","","61","",""
"","","","","","html-keyboard-response","202","2115808","0.0-20.0-1.12","66d925cf0e6264c70bba83e4","67619bf32066d179f8b4b1ec","67895f9d974b06215f5f7d7a","passed","","664","","","","","","","","","","","","","","f","yesOrNo","","","","2","","","lp","3000","","","61","321.3","151"
"","","","","","html-keyboard-response","203","2117369","0.0-20.0-0.13","66d925cf0e6264c70bba83e4","67619bf32066d179f8b4b1ec","67895f9d974b06215f5f7d7a","passed","","","","","","","","","","","","","","","","","ballFalling","322.3","296.07114317029976","371.46","3","fallScene","true","","","","","62","",""
"","","","","","html-keyboard-response","204","2118220","0.0-20.0-1.13","66d925cf0e6264c70bba83e4","67619bf32066d179f8b4b1ec","67895f9d974b06215f5f7d7a","passed","","842","","","","","","","","","","","","","","f","yesOrNo","","","","3","","","mid","3000","","","62","321.3","300"
"","","","","","html-keyboard-response","205","2119786","0.0-20.0-0.14","66d925cf0e6264c70bba83e4","67619bf32066d179f8b4b1ec","67895f9d974b06215f5f7d7a","passed","","","","","","","","","","","","","","","","","ballFalling","500","453.67114317029973","210.33","5","fallScene","true","","","","","63","",""
"","","","","","html-keyboard-response","206","2120621","0.0-20.0-1.14","66d925cf0e6264c70bba83e4","67619bf32066d179f8b4b1ec","67895f9d974b06215f5f7d7a","passed","","828","","","","","","","","","","","","","","f","yesOrNo","","","","5","","","mid","3000","","","63","499","300"
"","","","","","html-keyboard-response","207","2122187","0.0-20.0-0.15","66d925cf0e6264c70bba83e4","67619bf32066d179f8b4b1ec","67895f9d974b06215f5f7d7a","passed","","","","","","","","","","","","","","","","","ballFalling","604.4000000000001","650.0211431702996","404.58000000000004","11","fallScene","false","","","","","64","",""
"","","","","","html-keyboard-response","208","2122987","0.0-20.0-1.15","66d925cf0e6264c70bba83e4","67619bf32066d179f8b4b1ec","67895f9d974b06215f5f7d7a","passed","","793","","","","","","","","","","","","","","f","yesOrNo","","","","11","","","lp","3000","","","64","605.4000000000001","372.6340973215488"
"","","","","","html-keyboard-response","209","2124567","0.0-20.0-0.16","66d925cf0e6264c70bba83e4","67619bf32066d179f8b4b1ec","67895f9d974b06215f5f7d7a","passed","","","","","","","","","","","","","","","","","ballFalling","500","553.4711431702997","282.51","7","fallScene","false","","","","","65","",""
"","","","","","html-keyboard-response","210","2125389","0.0-20.0-1.16","66d925cf0e6264c70bba83e4","67619bf32066d179f8b4b1ec","67895f9d974b06215f5f7d7a","passed","","814","","","","","","","","","","","","","","f","yesOrNo","","","","7","","","mid","3000","","","65","501","300"
"","","","","","html-keyboard-response","211","2126951","0.0-20.0-0.17","66d925cf0e6264c70bba83e4","67619bf32066d179f8b4b1ec","67895f9d974b06215f5f7d7a","passed","","","","","","","","","","","","","","","","","ballFalling","604.4000000000001","650.0211431702996","404.58000000000004","11","fallScene","true","","","","","66","",""
"","","","","","html-keyboard-response","212","2127755","0.0-20.0-1.17","66d925cf0e6264c70bba83e4","67619bf32066d179f8b4b1ec","67895f9d974b06215f5f7d7a","passed","","797","","","","","","","","","","","","","","f","yesOrNo","","","","11","","","mid","3000","","","66","605.4000000000001","300"
"","","","","","html-keyboard-response","213","2129417","0.0-20.0-0.18","66d925cf0e6264c70bba83e4","67619bf32066d179f8b4b1ec","67895f9d974b06215f5f7d7a","passed","","","","","","","","","","","","","","","","","ballFalling","500","479.92114317029973","330.87","6","fallScene","false","","","","","67","",""
"","","","","","html-keyboard-response","214","2129986","0.0-20.0-1.18","66d925cf0e6264c70bba83e4","67619bf32066d179f8b4b1ec","67895f9d974b06215f5f7d7a","passed","","560","","","","","","","","","","","","","","j","yesOrNo","","","","6","","","gt","3000","","","67","479.9211431702998","330.87"
"","","","","","html-keyboard-response","215","2131549","0.0-20.0-0.19","66d925cf0e6264c70bba83e4","67619bf32066d179f8b4b1ec","67895f9d974b06215f5f7d7a","passed","","","","","","","","","","","","","","","","","ballFalling","604.4000000000001","650.0211431702996","404.58000000000004","11","fallScene","true","","","","","68","",""
"","","","","","html-keyboard-response","216","2132337","0.0-20.0-1.19","66d925cf0e6264c70bba83e4","67619bf32066d179f8b4b1ec","67895f9d974b06215f5f7d7a","passed","","780","","","","","","","","","","","","","","f","yesOrNo","","","","11","","","mid","3000","","","68","605.4000000000001","300"
"","","","","","html-keyboard-response","217","2133833","0.0-20.0-0.20","66d925cf0e6264c70bba83e4","67619bf32066d179f8b4b1ec","67895f9d974b06215f5f7d7a","passed","","","","","","","","","","","","","","","","","ballFalling","604.4000000000001","667.6211431702998","201.78","9","fallScene","true","","","","","69","",""
"","","","","","html-keyboard-response","218","2134489","0.0-20.0-1.20","66d925cf0e6264c70bba83e4","67619bf32066d179f8b4b1ec","67895f9d974b06215f5f7d7a","passed","","650","","","","","","","","","","","","","","j","yesOrNo","","","","9","","","gt","3000","","","69","667.6211431702998","201.78"
"","","","","","html-keyboard-response","219","2136307","0.0-20.0-0.21","66d925cf0e6264c70bba83e4","67619bf32066d179f8b4b1ec","67895f9d974b06215f5f7d7a","passed","","","","","","","","","","","","","","","","","ballFalling","322.3","308.07114317029976","253.89","2","fallScene","false","","","","","70","",""
"","","","","","html-keyboard-response","220","2137035","0.0-20.0-1.21","66d925cf0e6264c70bba83e4","67619bf32066d179f8b4b1ec","67895f9d974b06215f5f7d7a","passed","","718","","","","","","","","","","","","","","f","yesOrNo","","","","2","","","lp","3000","","","70","321.3","151"
"","","","","","html-keyboard-response","221","2138832","0.0-20.0-0.22","66d925cf0e6264c70bba83e4","67619bf32066d179f8b4b1ec","67895f9d974b06215f5f7d7a","passed","","","","","","","","","","","","","","","","","ballFalling","322.3","308.07114317029976","253.89","2","fallScene","true","","","","","71","",""
"","","","","","html-keyboard-response","222","2139770","0.0-20.0-1.22","66d925cf0e6264c70bba83e4","67619bf32066d179f8b4b1ec","67895f9d974b06215f5f7d7a","passed","","931","","","","","","","","","","","","","","j","yesOrNo","","","","2","","","mid","3000","","","71","321.3","300"
"","","","","","html-keyboard-response","223","2141331","0.0-20.0-0.23","66d925cf0e6264c70bba83e4","67619bf32066d179f8b4b1ec","67895f9d974b06215f5f7d7a","passed","","","","","","","","","","","","","","","","","ballFalling","322.3","379.3711431702997","245.25","1","fallScene","false","","","","","72","",""
"","","","","","html-keyboard-response","224","2142103","0.0-20.0-1.23","66d925cf0e6264c70bba83e4","67619bf32066d179f8b4b1ec","67895f9d974b06215f5f7d7a","passed","","762","","","","","","","","","","","","","","f","yesOrNo","","","","1","","","gt","3000","","","72","379.3711431702997","245.25"
"","","","","","html-keyboard-response","225","2143612","0.0-21.0","66d925cf0e6264c70bba83e4","67619bf32066d179f8b4b1ec","67895f9d974b06215f5f7d7a","passed","","1507","","","","","","","","","","","","","<p><span style=""font-size:40px;"">BLOCK 4</span></p><p><span style=""font-size:25px;"">You have <strong>1 second(s)</strong> to respond to the following trials.</span><br></p><p></p> <!-- Blank line -->
                <p id=""blinking-text"" style=""font-weight; animation: blink 2s infinite;"">Press Space to continue</p>
                <style>
                    @keyframes blink {
                        50% {
                            opacity: 0;
                        }
                    }
                </style></p>"," ","","","","","","","","","","","","","",""
"","","","","","html-keyboard-response","226","2145111","0.0-22.0-0.0","66d925cf0e6264c70bba83e4","67619bf32066d179f8b4b1ec","67895f9d974b06215f5f7d7a","passed","","","","","","","","","","","","","","","","","ballFalling","604.4000000000001","667.6211431702998","201.78","9","fallScene","false","","","","","73","",""
"","","","","","html-keyboard-response","227","2145691","0.0-22.0-1.0","66d925cf0e6264c70bba83e4","67619bf32066d179f8b4b1ec","67895f9d974b06215f5f7d7a","passed","","570","","","","","","","","","","","","","","f","yesOrNo","","","","9","","","gt","1000","","","73","667.6211431702998","201.78"
"","","","","","html-keyboard-response","228","2147693","0.0-22.0-0.1","66d925cf0e6264c70bba83e4","67619bf32066d179f8b4b1ec","67895f9d974b06215f5f7d7a","passed","","","","","","","","","","","","","","","","","ballFalling","604.4000000000001","596.8711431702998","394.5","10","fallScene","true","","","","","74","",""
"","","","","","html-keyboard-response","229","2148348","0.0-22.0-1.1","66d925cf0e6264c70bba83e4","67619bf32066d179f8b4b1ec","67895f9d974b06215f5f7d7a","passed","","645","","","","","","","","","","","","","","j","yesOrNo","","","","10","","","gt","1000","","","74","596.8711431702998","394.5"
"","","","","","html-keyboard-response","230","2150148","0.0-22.0-0.2","66d925cf0e6264c70bba83e4","67619bf32066d179f8b4b1ec","67895f9d974b06215f5f7d7a","passed","","","","","","","","","","","","","","","","","ballFalling","322.3","308.07114317029976","253.89","2","fallScene","true","","","","","75","",""
"","","","","","html-keyboard-response","231","2150783","0.0-22.0-1.2","66d925cf0e6264c70bba83e4","67619bf32066d179f8b4b1ec","67895f9d974b06215f5f7d7a","passed","","621","","","","","","","","","","","","","","j","yesOrNo","","","","2","","","mid","1000","","","75","321.3","300"
"","","","","","html-keyboard-response","232","2152796","0.0-22.0-0.3","66d925cf0e6264c70bba83e4","67619bf32066d179f8b4b1ec","67895f9d974b06215f5f7d7a","passed","","","","","","","","","","","","","","","","","ballFalling","500","510.8711431702997","369.03","8","fallScene","false","","","","","76","",""
"","","","","","html-keyboard-response","233","2153454","0.0-22.0-1.3","66d925cf0e6264c70bba83e4","67619bf32066d179f8b4b1ec","67895f9d974b06215f5f7d7a","passed","","651","","","","","","","","","","","","","","j","yesOrNo","","","","8","","","mid","1000","","","76","501","300"
"","","","","","html-keyboard-response","234","2155245","0.0-22.0-0.4","66d925cf0e6264c70bba83e4","67619bf32066d179f8b4b1ec","67895f9d974b06215f5f7d7a","passed","","","","","","","","","","","","","","","","","ballFalling","322.3","308.07114317029976","253.89","2","fallScene","true","","","","","77","",""
"","","","","","html-keyboard-response","235","2155914","0.0-22.0-1.4","66d925cf0e6264c70bba83e4","67619bf32066d179f8b4b1ec","67895f9d974b06215f5f7d7a","passed","","662","","","","","","","","","","","","","","j","yesOrNo","","","","2","","","gt","1000","","","77","308.07114317029976","253.89"
"","","","","","html-keyboard-response","236","2157928","0.0-22.0-0.5","66d925cf0e6264c70bba83e4","67619bf32066d179f8b4b1ec","67895f9d974b06215f5f7d7a","passed","","","","","","","","","","","","","","","","","ballFalling","500","510.8711431702997","369.03","8","fallScene","false","","","","","78","",""
"","","","","","html-keyboard-response","237","2158612","0.0-22.0-1.5","66d925cf0e6264c70bba83e4","67619bf32066d179f8b4b1ec","67895f9d974b06215f5f7d7a","passed","","677","","","","","","","","","","","","","","j","yesOrNo","","","","8","","","gt","1000","","","78","510.8711431702997","369.03"
"","","","","","html-keyboard-response","238","2160177","0.0-22.0-0.6","66d925cf0e6264c70bba83e4","67619bf32066d179f8b4b1ec","67895f9d974b06215f5f7d7a","passed","","","","","","","","","","","","","","","","","ballFalling","500","453.67114317029973","210.33","5","fallScene","false","","","","","79","",""
"","","","","","html-keyboard-response","239","2160873","0.0-22.0-1.6","66d925cf0e6264c70bba83e4","67619bf32066d179f8b4b1ec","67895f9d974b06215f5f7d7a","passed","","688","","","","","","","","","","","","","","j","yesOrNo","","","","5","","","mid","1000","","","79","499","300"
"","","","","","html-keyboard-response","240","2162427","0.0-22.0-0.7","66d925cf0e6264c70bba83e4","67619bf32066d179f8b4b1ec","67895f9d974b06215f5f7d7a","passed","","","","","","","","","","","","","","","","","ballFalling","604.4000000000001","575.4211431702997","266.76","12","fallScene","false","","","","","80","",""
"","","","","","html-keyboard-response","241","2163373","0.0-22.0-1.7","66d925cf0e6264c70bba83e4","67619bf32066d179f8b4b1ec","67895f9d974b06215f5f7d7a","passed","","939","","","","","","","","","","","","","","j","yesOrNo","","","","12","","","lp","1000","","","80","603.4000000000001","151"
"","","","","","html-keyboard-response","242","2164942","0.0-22.0-0.8","66d925cf0e6264c70bba83e4","67619bf32066d179f8b4b1ec","67895f9d974b06215f5f7d7a","passed","","","","","","","","","","","","","","","","","ballFalling","500","553.4711431702997","282.51","7","fallScene","true","","","","","81","",""
"","","","","","html-keyboard-response","243","2165296","0.0-22.0-1.8","66d925cf0e6264c70bba83e4","67619bf32066d179f8b4b1ec","67895f9d974b06215f5f7d7a","passed","","347","","","","","","","","","","","","","","j","yesOrNo","","","","7","","","lp","1000","","","81","501","227.2843295913261"
"","","","","","html-keyboard-response","244","2167092","0.0-22.0-0.9","66d925cf0e6264c70bba83e4","67619bf32066d179f8b4b1ec","67895f9d974b06215f5f7d7a","passed","","","","","","","","","","","","","","","","","ballFalling","322.3","308.07114317029976","253.89","2","fallScene","false","","","","","82","",""
"","","","","","html-keyboard-response","245","2167665","0.0-22.0-1.9","66d925cf0e6264c70bba83e4","67619bf32066d179f8b4b1ec","67895f9d974b06215f5f7d7a","passed","","568","","","","","","","","","","","","","","j","yesOrNo","","","","2","","","gt","1000","","","82","308.07114317029976","253.89"
"","","","","","html-keyboard-response","246","2169322","0.0-22.0-0.10","66d925cf0e6264c70bba83e4","67619bf32066d179f8b4b1ec","67895f9d974b06215f5f7d7a","passed","","","","","","","","","","","","","","","","","ballFalling","500","479.92114317029973","330.87","6","fallScene","false","","","","","83","",""
"","","","","","html-keyboard-response","247","2169807","0.0-22.0-1.10","66d925cf0e6264c70bba83e4","67619bf32066d179f8b4b1ec","67895f9d974b06215f5f7d7a","passed","","475","","","","","","","","","","","","","","f","yesOrNo","","","","6","","","mid","1000","","","83","499","300"
"","","","","","html-keyboard-response","248","2171472","0.0-22.0-0.11","66d925cf0e6264c70bba83e4","67619bf32066d179f8b4b1ec","67895f9d974b06215f5f7d7a","passed","","","","","","","","","","","","","","","","","ballFalling","500","479.92114317029973","330.87","6","fallScene","true","","","","","84","",""
"","","","","","html-keyboard-response","249","2172257","0.0-22.0-1.11","66d925cf0e6264c70bba83e4","67619bf32066d179f8b4b1ec","67895f9d974b06215f5f7d7a","passed","","777","","","","","","","","","","","","","","j","yesOrNo","","","","6","","","gt","1000","","","84","479.9211431702998","330.87"
"","","","","","html-keyboard-response","250","2173838","0.0-22.0-0.12","66d925cf0e6264c70bba83e4","67619bf32066d179f8b4b1ec","67895f9d974b06215f5f7d7a","passed","","","","","","","","","","","","","","","","","ballFalling","500","553.4711431702997","282.51","7","fallScene","true","","","","","85","",""
"","","","","","html-keyboard-response","251","2174330","0.0-22.0-1.12","66d925cf0e6264c70bba83e4","67619bf32066d179f8b4b1ec","67895f9d974b06215f5f7d7a","passed","","484","","","","","","","","","","","","","","j","yesOrNo","","","","7","","","gt","1000","","","85","553.4711431702997","282.51"
"","","","","","html-keyboard-response","252","2175888","0.0-22.0-0.13","66d925cf0e6264c70bba83e4","67619bf32066d179f8b4b1ec","67895f9d974b06215f5f7d7a","passed","","","","","","","","","","","","","","","","","ballFalling","604.4000000000001","650.0211431702996","404.58000000000004","11","fallScene","true","","","","","86","",""
"","","","","","html-keyboard-response","253","2176474","0.0-22.0-1.13","66d925cf0e6264c70bba83e4","67619bf32066d179f8b4b1ec","67895f9d974b06215f5f7d7a","passed","","579","","","","","","","","","","","","","","j","yesOrNo","","","","11","","","lp","1000","","","86","605.4000000000001","372.6340973215488"
"","","","","","html-keyboard-response","254","2178037","0.0-22.0-0.14","66d925cf0e6264c70bba83e4","67619bf32066d179f8b4b1ec","67895f9d974b06215f5f7d7a","passed","","","","","","","","","","","","","","","","","ballFalling","604.4000000000001","650.0211431702996","404.58000000000004","11","fallScene","true","","","","","87","",""
"","","","","","html-keyboard-response","255","2178753","0.0-22.0-1.14","66d925cf0e6264c70bba83e4","67619bf32066d179f8b4b1ec","67895f9d974b06215f5f7d7a","passed","","705","","","","","","","","","","","","","","j","yesOrNo","","","","11","","","mid","1000","","","87","605.4000000000001","300"
"","","","","","html-keyboard-response","256","2180303","0.0-22.0-0.15","66d925cf0e6264c70bba83e4","67619bf32066d179f8b4b1ec","67895f9d974b06215f5f7d7a","passed","","","","","","","","","","","","","","","","","ballFalling","322.3","356.42114317029973","357.87","4","fallScene","true","","","","","88","",""
"","","","","","html-keyboard-response","257","2180921","0.0-22.0-1.15","66d925cf0e6264c70bba83e4","67619bf32066d179f8b4b1ec","67895f9d974b06215f5f7d7a","passed","","610","","","","","","","","","","","","","","j","yesOrNo","","","","4","","","lp","1000","","","88","323.3","297.4070551689986"
"","","","","","html-keyboard-response","258","2182487","0.0-22.0-0.16","66d925cf0e6264c70bba83e4","67619bf32066d179f8b4b1ec","67895f9d974b06215f5f7d7a","passed","","","","","","","","","","","","","","","","","ballFalling","500","453.67114317029973","210.33","5","fallScene","false","","","","","89","",""
"","","","","","html-keyboard-response","259","2183072","0.0-22.0-1.16","66d925cf0e6264c70bba83e4","67619bf32066d179f8b4b1ec","67895f9d974b06215f5f7d7a","passed","","573","","","","","","","","","","","","","","f","yesOrNo","","","","5","","","mid","1000","","","89","499","300"
"","","","","","html-keyboard-response","260","2184651","0.0-22.0-0.17","66d925cf0e6264c70bba83e4","67619bf32066d179f8b4b1ec","67895f9d974b06215f5f7d7a","passed","","","","","","","","","","","","","","","","","ballFalling","500","553.4711431702997","282.51","7","fallScene","true","","","","","90","",""
"","","","","","html-keyboard-response","261","2185332","0.0-22.0-1.17","66d925cf0e6264c70bba83e4","67619bf32066d179f8b4b1ec","67895f9d974b06215f5f7d7a","passed","","673","","","","","","","","","","","","","","j","yesOrNo","","","","7","","","gt","1000","","","90","553.4711431702997","282.51"
"","","","","","html-keyboard-response","262","2186885","0.0-22.0-0.18","66d925cf0e6264c70bba83e4","67619bf32066d179f8b4b1ec","67895f9d974b06215f5f7d7a","passed","","","","","","","","","","","","","","","","","ballFalling","322.3","356.42114317029973","357.87","4","fallScene","false","","","","","91","",""
"","","","","","html-keyboard-response","263","2187505","0.0-22.0-1.18","66d925cf0e6264c70bba83e4","67619bf32066d179f8b4b1ec","67895f9d974b06215f5f7d7a","passed","","611","","","","","","","","","","","","","","j","yesOrNo","","","","4","","","mid","1000","","","91","390.27114317029975","300"
"","","","","","html-keyboard-response","264","2189068","0.0-22.0-0.19","66d925cf0e6264c70bba83e4","67619bf32066d179f8b4b1ec","67895f9d974b06215f5f7d7a","passed","","","","","","","","","","","","","","","","","ballFalling","604.4000000000001","575.4211431702997","266.76","12","fallScene","true","","","","","92","",""
"","","","","","html-keyboard-response","265","2189650","0.0-22.0-1.19","66d925cf0e6264c70bba83e4","67619bf32066d179f8b4b1ec","67895f9d974b06215f5f7d7a","passed","","572","","","","","","","","","","","","","","j","yesOrNo","","","","12","","","gt","1000","","","92","575.4211431702997","266.76"
"","","","","","html-keyboard-response","266","2191301","0.0-22.0-0.20","66d925cf0e6264c70bba83e4","67619bf32066d179f8b4b1ec","67895f9d974b06215f5f7d7a","passed","","","","","","","","","","","","","","","","","ballFalling","500","479.92114317029973","330.87","6","fallScene","true","","","","","93","",""
"","","","","","html-keyboard-response","267","2191957","0.0-22.0-1.20","66d925cf0e6264c70bba83e4","67619bf32066d179f8b4b1ec","67895f9d974b06215f5f7d7a","passed","","648","","","","","","","","","","","","","","j","yesOrNo","","","","6","","","mid","1000","","","93","499","300"
"","","","","","html-keyboard-response","268","2193517","0.0-22.0-0.21","66d925cf0e6264c70bba83e4","67619bf32066d179f8b4b1ec","67895f9d974b06215f5f7d7a","passed","","","","","","","","","","","","","","","","","ballFalling","322.3","296.07114317029976","371.46","3","fallScene","false","","","","","94","",""
"","","","","","html-keyboard-response","269","2194156","0.0-22.0-1.21","66d925cf0e6264c70bba83e4","67619bf32066d179f8b4b1ec","67895f9d974b06215f5f7d7a","passed","","628","","","","","","","","","","","","","","j","yesOrNo","","","","3","","","gt","1000","","","94","296.07114317029976","371.46"
"","","","","","html-keyboard-response","270","2195717","0.0-22.0-0.22","66d925cf0e6264c70bba83e4","67619bf32066d179f8b4b1ec","67895f9d974b06215f5f7d7a","passed","","","","","","","","","","","","","","","","","ballFalling","500","453.67114317029973","210.33","5","fallScene","true","","","","","95","",""
"","","","","","html-keyboard-response","271","2196372","0.0-22.0-1.22","66d925cf0e6264c70bba83e4","67619bf32066d179f8b4b1ec","67895f9d974b06215f5f7d7a","passed","","647","","","","","","","","","","","","","","j","yesOrNo","","","","5","","","lp","1000","","","95","499","151"
"","","","","","html-keyboard-response","272","2198384","0.0-22.0-0.23","66d925cf0e6264c70bba83e4","67619bf32066d179f8b4b1ec","67895f9d974b06215f5f7d7a","passed","","","","","","","","","","","","","","","","","ballFalling","500","510.8711431702997","369.03","8","fallScene","true","","","","","96","",""
"","","","","","html-keyboard-response","273","2198811","0.0-22.0-1.23","66d925cf0e6264c70bba83e4","67619bf32066d179f8b4b1ec","67895f9d974b06215f5f7d7a","passed","","420","","","","","","","","","","","","","","j","yesOrNo","","","","8","","","mid","1000","","","96","501","300"
"","","","","","html-keyboard-response","274","2200086","0.0-23.0","66d925cf0e6264c70bba83e4","67619bf32066d179f8b4b1ec","67895f9d974b06215f5f7d7a","passed","","1271","","","","","","","","","","","","","<p><span style=""font-size:40px;"">BLOCK 5</span></p><p><span style=""font-size:25px;"">You have <strong>3 second(s)</strong> to respond to the following trials.</span><br></p><p></p> <!-- Blank line -->
                <p id=""blinking-text"" style=""font-weight; animation: blink 2s infinite;"">Press Space to continue</p>
                <style>
                    @keyframes blink {
                        50% {
                            opacity: 0;
                        }
                    }
                </style></p>"," ","","","","","","","","","","","","","",""
"","","","","","html-keyboard-response","275","2201650","0.0-24.0-0.0","66d925cf0e6264c70bba83e4","67619bf32066d179f8b4b1ec","67895f9d974b06215f5f7d7a","passed","","","","","","","","","","","","","","","","","ballFalling","500","453.67114317029973","210.33","5","fallScene","true","","","","","97","",""
"","","","","","html-keyboard-response","276","2202042","0.0-24.0-1.0","66d925cf0e6264c70bba83e4","67619bf32066d179f8b4b1ec","67895f9d974b06215f5f7d7a","passed","","384","","","","","","","","","","","","","","j","yesOrNo","","","","5","","","lp","3000","","","97","499","151"
"","","","","","html-keyboard-response","277","2203601","0.0-24.0-0.1","66d925cf0e6264c70bba83e4","67619bf32066d179f8b4b1ec","67895f9d974b06215f5f7d7a","passed","","","","","","","","","","","","","","","","","ballFalling","604.4000000000001","650.0211431702996","404.58000000000004","11","fallScene","false","","","","","98","",""
"","","","","","html-keyboard-response","278","2204462","0.0-24.0-1.1","66d925cf0e6264c70bba83e4","67619bf32066d179f8b4b1ec","67895f9d974b06215f5f7d7a","passed","","853","","","","","","","","","","","","","","j","yesOrNo","","","","11","","","gt","3000","","","98","650.0211431702996","404.58"
"","","","","","html-keyboard-response","279","2206016","0.0-24.0-0.2","66d925cf0e6264c70bba83e4","67619bf32066d179f8b4b1ec","67895f9d974b06215f5f7d7a","passed","","","","","","","","","","","","","","","","","ballFalling","604.4000000000001","575.4211431702997","266.76","12","fallScene","false","","","","","99","",""
"","","","","","html-keyboard-response","280","2206560","0.0-24.0-1.2","66d925cf0e6264c70bba83e4","67619bf32066d179f8b4b1ec","67895f9d974b06215f5f7d7a","passed","","535","","","","","","","","","","","","","","j","yesOrNo","","","","12","","","gt","3000","","","99","575.4211431702997","266.76"
"","","","","","html-keyboard-response","281","2208116","0.0-24.0-0.3","66d925cf0e6264c70bba83e4","67619bf32066d179f8b4b1ec","67895f9d974b06215f5f7d7a","passed","","","","","","","","","","","","","","","","","ballFalling","322.3","379.3711431702997","245.25","1","fallScene","false","","","","","100","",""
"","","","","","html-keyboard-response","282","2208901","0.0-24.0-1.3","66d925cf0e6264c70bba83e4","67619bf32066d179f8b4b1ec","67895f9d974b06215f5f7d7a","passed","","777","","","","","","","","","","","","","","j","yesOrNo","","","","1","","","lp","3000","","","100","323.3","217.74551669457017"
"","","","","","html-keyboard-response","283","2210399","0.0-24.0-0.4","66d925cf0e6264c70bba83e4","67619bf32066d179f8b4b1ec","67895f9d974b06215f5f7d7a","passed","","","","","","","","","","","","","","","","","ballFalling","604.4000000000001","667.6211431702998","201.78","9","fallScene","false","","","","","101","",""
"","","","","","html-keyboard-response","284","2211023","0.0-24.0-1.4","66d925cf0e6264c70bba83e4","67619bf32066d179f8b4b1ec","67895f9d974b06215f5f7d7a","passed","","617","","","","","","","","","","","","","","j","yesOrNo","","","","9","","","mid","3000","","","101","605.4000000000001","300"
"","","","","","html-keyboard-response","285","2212592","0.0-24.0-0.5","66d925cf0e6264c70bba83e4","67619bf32066d179f8b4b1ec","67895f9d974b06215f5f7d7a","passed","","","","","","","","","","","","","","","","","ballFalling","322.3","296.07114317029976","371.46","3","fallScene","false","","","","","102","",""
"","","","","","html-keyboard-response","286","2213219","0.0-24.0-1.5","66d925cf0e6264c70bba83e4","67619bf32066d179f8b4b1ec","67895f9d974b06215f5f7d7a","passed","","620","","","","","","","","","","","","","","j","yesOrNo","","","","3","","","mid","3000","","","102","321.3","300"
"","","","","","html-keyboard-response","287","2215015","0.0-24.0-0.6","66d925cf0e6264c70bba83e4","67619bf32066d179f8b4b1ec","67895f9d974b06215f5f7d7a","passed","","","","","","","","","","","","","","","","","ballFalling","322.3","308.07114317029976","253.89","2","fallScene","false","","","","","103","",""
"","","","","","html-keyboard-response","288","2215550","0.0-24.0-1.6","66d925cf0e6264c70bba83e4","67619bf32066d179f8b4b1ec","67895f9d974b06215f5f7d7a","passed","","529","","","","","","","","","","","","","","j","yesOrNo","","","","2","","","mid","3000","","","103","321.3","300"
"","","","","","html-keyboard-response","289","2217114","0.0-24.0-0.7","66d925cf0e6264c70bba83e4","67619bf32066d179f8b4b1ec","67895f9d974b06215f5f7d7a","passed","","","","","","","","","","","","","","","","","ballFalling","604.4000000000001","575.4211431702997","266.76","12","fallScene","true","","","","","104","",""
"","","","","","html-keyboard-response","290","2217684","0.0-24.0-1.7","66d925cf0e6264c70bba83e4","67619bf32066d179f8b4b1ec","67895f9d974b06215f5f7d7a","passed","","562","","","","","","","","","","","","","","j","yesOrNo","","","","12","","","lp","3000","","","104","603.4000000000001","151"
"","","","","","html-keyboard-response","291","2219246","0.0-24.0-0.8","66d925cf0e6264c70bba83e4","67619bf32066d179f8b4b1ec","67895f9d974b06215f5f7d7a","passed","","","","","","","","","","","","","","","","","ballFalling","500","453.67114317029973","210.33","5","fallScene","true","","","","","105","",""
"","","","","","html-keyboard-response","292","2219756","0.0-24.0-1.8","66d925cf0e6264c70bba83e4","67619bf32066d179f8b4b1ec","67895f9d974b06215f5f7d7a","passed","","503","","","","","","","","","","","","","","j","yesOrNo","","","","5","","","gt","3000","","","105","453.6711431702998","210.33"
"","","","","","html-keyboard-response","293","2221544","0.0-24.0-0.9","66d925cf0e6264c70bba83e4","67619bf32066d179f8b4b1ec","67895f9d974b06215f5f7d7a","passed","","","","","","","","","","","","","","","","","ballFalling","322.3","308.07114317029976","253.89","2","fallScene","true","","","","","106","",""
"","","","","","html-keyboard-response","294","2222147","0.0-24.0-1.9","66d925cf0e6264c70bba83e4","67619bf32066d179f8b4b1ec","67895f9d974b06215f5f7d7a","passed","","600","","","","","","","","","","","","","","j","yesOrNo","","","","2","","","gt","3000","","","106","308.07114317029976","253.89"
"","","","","","html-keyboard-response","295","2223714","0.0-24.0-0.10","66d925cf0e6264c70bba83e4","67619bf32066d179f8b4b1ec","67895f9d974b06215f5f7d7a","passed","","","","","","","","","","","","","","","","","ballFalling","322.3","296.07114317029976","371.46","3","fallScene","true","","","","","107","",""
"","","","","","html-keyboard-response","296","2224297","0.0-24.0-1.10","66d925cf0e6264c70bba83e4","67619bf32066d179f8b4b1ec","67895f9d974b06215f5f7d7a","passed","","573","","","","","","","","","","","","","","j","yesOrNo","","","","3","","","gt","3000","","","107","296.07114317029976","371.46"
"","","","","","html-keyboard-response","297","2226312","0.0-24.0-0.11","66d925cf0e6264c70bba83e4","67619bf32066d179f8b4b1ec","67895f9d974b06215f5f7d7a","passed","","","","","","","","","","","","","","","","","ballFalling","500","510.8711431702997","369.03","8","fallScene","false","","","","","108","",""
"","","","","","html-keyboard-response","298","2226879","0.0-24.0-1.11","66d925cf0e6264c70bba83e4","67619bf32066d179f8b4b1ec","67895f9d974b06215f5f7d7a","passed","","558","","","","","","","","","","","","","","j","yesOrNo","","","","8","","","gt","3000","","","108","510.8711431702997","369.03"
"","","","","","html-keyboard-response","299","2228896","0.0-24.0-0.12","66d925cf0e6264c70bba83e4","67619bf32066d179f8b4b1ec","67895f9d974b06215f5f7d7a","passed","","","","","","","","","","","","","","","","","ballFalling","604.4000000000001","596.8711431702998","394.5","10","fallScene","true","","","","","109","",""
"","","","","","html-keyboard-response","300","2229304","0.0-24.0-1.12","66d925cf0e6264c70bba83e4","67619bf32066d179f8b4b1ec","67895f9d974b06215f5f7d7a","passed","","401","","","","","","","","","","","","","","j","yesOrNo","","","","10","","","gt","3000","","","109","596.8711431702998","394.5"
