"success","timeout","failed_images","failed_audio","failed_video","trial_type","trial_index","time_elapsed","internal_node_id","subject_id","study_id","session_id","practiceTestResult","view_history","rt","width","height","webaudio","browser","browser_version","mobile","os","fullscreen","vsync_rate","webcam","microphone","url","stimulus","response","task","ball_X","obstacle_groundTruth_x","obstacle_groundTruth_y","stimulus_idx","trial_name","flipped","choice","timeLimit","question_order","comprehensionCheck","currentTrial","obstacle_choice_x","obstacle_choice_y"
"true","false","[]","[]","[]","preload","0","313","0.0-0.0","66e0d867f745183388c72031","67619bf32066d179f8b4b1ec","67894f336c17c953e4726a36","passed","","","","","","","","","","","","","","","","","","","","","","","","","","","","","",""
"","","","","","instructions","1","22506","0.0-1.0","66e0d867f745183388c72031","67619bf32066d179f8b4b1ec","67894f336c17c953e4726a36","passed","[{""page_index"":0,""viewing_time"":22191}]","22192","","","","","","","","","","","","","","","","","","","","","","","","","","","",""
"","","","","","browser-check","2","23489","0.0-2.0","66e0d867f745183388c72031","67619bf32066d179f8b4b1ec","67894f336c17c953e4726a36","passed","","","1600","811","true","chrome","131.0.0","false","Windows 10","true","61.26","true","true","","","","","","","","","","","","","","","","",""
"","","","","","external-html","3","39625","0.0-3.0","66e0d867f745183388c72031","67619bf32066d179f8b4b1ec","67894f336c17c953e4726a36","passed","","16072","","","","","","","","","","","","consent.html","","","","","","","","","","","","","","","",""
"true","","","","","fullscreen","4","42198","0.0-4.0","66e0d867f745183388c72031","67619bf32066d179f8b4b1ec","67894f336c17c953e4726a36","passed","","2263","","","","","","","","","","","","","","","","","","","","","","","","","","","",""
"","","","","","browser-check","5","43186","0.0-5.0","66e0d867f745183388c72031","67619bf32066d179f8b4b1ec","67894f336c17c953e4726a36","passed","","","1600","900","true","chrome","131.0.0","false","Windows 10","true","60.83","true","true","","","","","","","","","","","","","","","","",""
"","","","","","html-keyboard-response","6","45853","0.0-6.0","66e0d867f745183388c72031","67619bf32066d179f8b4b1ec","67894f336c17c953e4726a36","passed","","2665","","","","","","","","","","","","","<p><b>This experiment requires keyboard input.</b></p> 
        <p><b>To ensure your response will be recorded successfully, please press 'Space' to continue.</b></p>
        <p>If you can't proceed, you won't be able to complete this study.</p>
        <p></p> <!-- Blank line -->
        <p id=""blinking-text"" style=""font-weight; animation: blink 2s infinite;"">Press Space to continue</p>
        <style>
            @keyframes blink {
                50% {
                    opacity: 0;
                }
            }
        </style>"," ","","","","","","","","","","","","","",""
"","","","","","html-keyboard-response","7","48477","0.0-7.0","66e0d867f745183388c72031","67619bf32066d179f8b4b1ec","67894f336c17c953e4726a36","passed","","2623","","","","","","","","","","","","","<p><b>This experiment requires keyboard input.</b></p> 
        <p><b>To ensure your response will be recorded successfully, please press the 'f' key to continue.</b></p>
        <p>If you can't proceed, you won't be able to complete this study.</p>
        <p></p> <!-- Blank line -->
        <p id=""blinking-text"" style=""font-weight; animation: blink 2s infinite;"">Press f to continue</p>
        <style>
            @keyframes blink {
                50% {
                    opacity: 0;
                }
            }
        </style>","f","","","","","","","","","","","","","",""
"","","","","","html-keyboard-response","8","49375","0.0-8.0","66e0d867f745183388c72031","67619bf32066d179f8b4b1ec","67894f336c17c953e4726a36","passed","","897","","","","","","","","","","","","","<p><b>This experiment requires keyboard input.</b></p> 
        <p><b>To ensure your response will be recorded successfully, please press the 'j' key to continue.</b></p>
        <p>If you can't proceed, you won't be able to complete this study.</p>
        <p></p> <!-- Blank line -->
        <p id=""blinking-text"" style=""font-weight; animation: blink 2s infinite;"">Press j to continue</p>
        <style>
            @keyframes blink {
                50% {
                    opacity: 0;
                }
            }
        </style>","j","","","","","","","","","","","","","",""
"","","","","","browser-check","9","50379","0.0-9.0","66e0d867f745183388c72031","67619bf32066d179f8b4b1ec","67894f336c17c953e4726a36","passed","","","1600","900","true","chrome","131.0.0","false","Windows 10","true","60.06","true","true","","","","","","","","","","","","","","","","",""
"","","","","","survey-text","10","57850","0.0-10.0","66e0d867f745183388c72031","67619bf32066d179f8b4b1ec","67894f336c17c953e4726a36","passed","","7468","","","","","","","","","","","","","","{""prolificID"":""66e0d867f745183388c72031""}","","","","","","","","","","","","","",""
"","","","","","instructions","11","108211","0.0-11.0-0.0-0.0","66e0d867f745183388c72031","67619bf32066d179f8b4b1ec","67894f336c17c953e4726a36","passed","[{""page_index"":0,""viewing_time"":19932},{""page_index"":1,""viewing_time"":10717},{""page_index"":2,""viewing_time"":10530},{""page_index"":3,""viewing_time"":9180}]","50360","","","","","","","","","","","","","","","","","","","","","","","","","","","",""
"","","","","","html-keyboard-response","12","116399","0.0-11.0-0.0-1.0","66e0d867f745183388c72031","67619bf32066d179f8b4b1ec","67894f336c17c953e4726a36","passed","","7675","","","","","","","","","","","","","<br>Remember! After a ball falls, the screen will disappear, and you'll decide if the proposed position is where the hidden triangle was. <br>You will now practice this by watching a few videos and making decisions.<p>To respond:<br style=""margin-bottom: 5px; text-indent: -20px; padding-left: 20px;"">- Press <b style=""color: #12AD2B;"">J for Yes</b>, if you think the triangle is in the correct position.<br style=""margin-top: 0; text-indent: -20px; padding-left: 20px;"">- Press <b style=""color: orange;"">F for No</b>, if you think the triangle is not in the correct position.</p><p>In this practice round, there is no time limit. Focus on getting comfortable with the task first.<br>Press either J or F to begin your practice trials.</p><img src = ""YesOrNo_instruction.png"" style=""width: 65%;""></img>","j","","","","","","","","","","","","","",""
"","","","","","html-keyboard-response","13","117931","0.0-11.0-0.0-2.0-0.0","66e0d867f745183388c72031","67619bf32066d179f8b4b1ec","67894f336c17c953e4726a36","passed","","","","","","","","","","","","","","","","","ballFalling_prac","416","464","296","1","fallScene","false","","","","","","",""
"","","","","","html-keyboard-response","14","119312","0.0-11.0-0.0-2.0-1.0","66e0d867f745183388c72031","67619bf32066d179f8b4b1ec","67894f336c17c953e4726a36","passed","","1376","","","","","","","","","","","","","","j","yesOrNo_prac_noTimed","","","","1","","","gt","NA","","","","",""
"","","","","","html-keyboard-response","15","120877","0.0-11.0-0.0-2.0-0.1","66e0d867f745183388c72031","67619bf32066d179f8b4b1ec","67894f336c17c953e4726a36","passed","","","","","","","","","","","","","","","","","ballFalling_prac","441","414","302","5","fallScene","true","","","","","","",""
"","","","","","html-keyboard-response","16","121796","0.0-11.0-0.0-2.0-1.1","66e0d867f745183388c72031","67619bf32066d179f8b4b1ec","67894f336c17c953e4726a36","passed","","917","","","","","","","","","","","","","","j","yesOrNo_prac_noTimed","","","","5","","","close gt","NA","","","","",""
"","","","","","html-keyboard-response","17","123908","0.0-11.0-0.0-2.0-0.2","66e0d867f745183388c72031","67619bf32066d179f8b4b1ec","67894f336c17c953e4726a36","passed","","","","","","","","","","","","","","","","","ballFalling_prac","660","666","350","3","fallScene","false","","","","","","",""
"","","","","","html-keyboard-response","18","124825","0.0-11.0-0.0-2.0-1.2","66e0d867f745183388c72031","67619bf32066d179f8b4b1ec","67894f336c17c953e4726a36","passed","","915","","","","","","","","","","","","","","j","yesOrNo_prac_noTimed","","","","3","","","wrong direction","NA","","","","",""
"","","","","","instructions","19","138790","0.0-11.0-0.0-3.0","66e0d867f745183388c72031","67619bf32066d179f8b4b1ec","67894f336c17c953e4726a36","passed","[{""page_index"":0,""viewing_time"":5708},{""page_index"":1,""viewing_time"":8256}]","13965","","","","","","","","","","","","","","","","","","","","","","","","","","","",""
"","","","","","html-button-response","20","142360","0.0-11.0-0.0-4.0","66e0d867f745183388c72031","67619bf32066d179f8b4b1ec","67894f336c17c953e4726a36","passed","","3067","","","","","","","","","","","","","<p>To make sure you understood the task, we just have a <b>brief quiz</b> here.</p><p>If you need to review the instructions, click 'Previous'.</p><p>It's important to understand the task to do the study, so you have to pass the quiz to move to the study.</p>","1","","","","","","","","","","","","","",""
"","","","","","survey-multi-choice","21","151157","0.0-11.0-1.0-0.0","66e0d867f745183388c72031","67619bf32066d179f8b4b1ec","67894f336c17c953e4726a36","passed","","8796","","","","","","","","","","","","","","{""generalProcedure"":""Watch a video of a ball falling, some of it behind a gray screen. After each video, decide if the triangle is at the spot where the ball hit the triangle behind the screen. There is time limit for the response.""}","","","","","","","","","","[0]","","","",""
"","","","","","survey-multi-choice","22","153258","0.0-11.0-1.0-1.0","66e0d867f745183388c72031","67619bf32066d179f8b4b1ec","67894f336c17c953e4726a36","passed","","2100","","","","","","","","","","","","","","{""checkBallHitObstacle"":""Yes.""}","","","","","","","","","","[0]","","","",""
"","","","","","survey-multi-choice","23","156187","0.0-11.0-1.0-2.0","66e0d867f745183388c72031","67619bf32066d179f8b4b1ec","67894f336c17c953e4726a36","passed","","2927","","","","","","","","","","","","","","{""checkTriangleVisibility"":""No, the triangle is hidden behind the gray screen.""}","","","","","","","","","","[0]","","","",""
"","","","","","survey-multi-choice","24","158710","0.0-11.0-1.0-3.0","66e0d867f745183388c72031","67619bf32066d179f8b4b1ec","67894f336c17c953e4726a36","passed","","2522","","","","","","","","","","","","","","{""checkTimedResponse"":""Your response will not be recorded, and the trial will move to the next one.""}","","","","","","","","","","[0]","","","",""
"","","","","","survey-multi-choice","25","162187","0.0-11.0-1.0-4.0","66e0d867f745183388c72031","67619bf32066d179f8b4b1ec","67894f336c17c953e4726a36","passed","","3476","","","","","","","","","","","","","","{""checkTimeBlockNotice"":""You won't be notified about the time limit.""}","","","","","","","","","","[0]","","","",""
"","","","","","survey-multi-choice","26","165483","0.0-11.0-1.0-5.0","66e0d867f745183388c72031","67619bf32066d179f8b4b1ec","67894f336c17c953e4726a36","passed","","3295","","","","","","","","","","","","","","{""checkTimeBlockSameness"":""Yes, the time limit is the same for all trials within a block.""}","","","","","","","","","","[0]","","","",""
"","","","","","survey-multi-choice","27","179238","0.0-11.0-1.0-6.0","66e0d867f745183388c72031","67619bf32066d179f8b4b1ec","67894f336c17c953e4726a36","passed","","13755","","","","","","","","","","","","","","{""checkTrianglePrecision"":""No. The proposed purple triangle is not in the correct position because it doesn't match the location of the white triangle exactly.""}","","","","","","","","","","[0]","","","",""
"","","","","","html-button-response","28","180552","0.0-11.0-2.0-0.0","66e0d867f745183388c72031","67619bf32066d179f8b4b1ec","67894f336c17c953e4726a36","passed","","1313","","","","","","","","","","","","","<p>Oops! You did not pass the quiz.</p><p>You will now repeat the instructions and practice.</p>","0","","","","","","","","","","","failed","","",""
"","","","","","instructions","29","186099","0.0-11.1-0.1-0.1","66e0d867f745183388c72031","67619bf32066d179f8b4b1ec","67894f336c17c953e4726a36","passed","[{""page_index"":0,""viewing_time"":2747},{""page_index"":1,""viewing_time"":1220},{""page_index"":2,""viewing_time"":961},{""page_index"":3,""viewing_time"":617}]","5546","","","","","","","","","","","","","","","","","","","","","","","","","","","",""
"","","","","","html-keyboard-response","30","189832","0.0-11.1-0.1-1.1","66e0d867f745183388c72031","67619bf32066d179f8b4b1ec","67894f336c17c953e4726a36","passed","","3229","","","","","","","","","","","","","<br>Remember! After a ball falls, the screen will disappear, and you'll decide if the proposed position is where the hidden triangle was. <br>You will now practice this by watching a few videos and making decisions.<p>To respond:<br style=""margin-bottom: 5px; text-indent: -20px; padding-left: 20px;"">- Press <b style=""color: #12AD2B;"">J for Yes</b>, if you think the triangle is in the correct position.<br style=""margin-top: 0; text-indent: -20px; padding-left: 20px;"">- Press <b style=""color: orange;"">F for No</b>, if you think the triangle is not in the correct position.</p><p>In this practice round, there is no time limit. Focus on getting comfortable with the task first.<br>Press either J or F to begin your practice trials.</p><img src = ""YesOrNo_instruction.png"" style=""width: 65%;""></img>","f","","","","","","","","","","","","","",""
"","","","","","html-keyboard-response","31","191374","0.0-11.1-0.1-2.1-0.3","66e0d867f745183388c72031","67619bf32066d179f8b4b1ec","67894f336c17c953e4726a36","passed","","","","","","","","","","","","","","","","","ballFalling_prac","416","464","296","1","fallScene","false","","","","","","",""
"","","","","","html-keyboard-response","32","194451","0.0-11.1-0.1-2.1-1.3","66e0d867f745183388c72031","67619bf32066d179f8b4b1ec","67894f336c17c953e4726a36","passed","","3075","","","","","","","","","","","","","","j","yesOrNo_prac_noTimed","","","","1","","","gt","NA","","","","",""
"","","","","","html-keyboard-response","33","196020","0.0-11.1-0.1-2.1-0.4","66e0d867f745183388c72031","67619bf32066d179f8b4b1ec","67894f336c17c953e4726a36","passed","","","","","","","","","","","","","","","","","ballFalling_prac","441","414","302","5","fallScene","true","","","","","","",""
"","","","","","html-keyboard-response","34","197940","0.0-11.1-0.1-2.1-1.4","66e0d867f745183388c72031","67619bf32066d179f8b4b1ec","67894f336c17c953e4726a36","passed","","1918","","","","","","","","","","","","","","j","yesOrNo_prac_noTimed","","","","5","","","close gt","NA","","","","",""
"","","","","","html-keyboard-response","35","200049","0.0-11.1-0.1-2.1-0.5","66e0d867f745183388c72031","67619bf32066d179f8b4b1ec","67894f336c17c953e4726a36","passed","","","","","","","","","","","","","","","","","ballFalling_prac","660","666","350","3","fallScene","false","","","","","","",""
"","","","","","html-keyboard-response","36","201185","0.0-11.1-0.1-2.1-1.5","66e0d867f745183388c72031","67619bf32066d179f8b4b1ec","67894f336c17c953e4726a36","passed","","1134","","","","","","","","","","","","","","f","yesOrNo_prac_noTimed","","","","3","","","wrong direction","NA","","","","",""
"","","","","","instructions","37","224438","0.0-11.1-0.1-3.1","66e0d867f745183388c72031","67619bf32066d179f8b4b1ec","67894f336c17c953e4726a36","passed","[{""page_index"":0,""viewing_time"":21637},{""page_index"":1,""viewing_time"":1616}]","23254","","","","","","","","","","","","","","","","","","","","","","","","","","","",""
"","","","","","html-button-response","38","225720","0.0-11.1-0.1-4.1","66e0d867f745183388c72031","67619bf32066d179f8b4b1ec","67894f336c17c953e4726a36","passed","","776","","","","","","","","","","","","","<p>To make sure you understood the task, we just have a <b>brief quiz</b> here.</p><p>If you need to review the instructions, click 'Previous'.</p><p>It's important to understand the task to do the study, so you have to pass the quiz to move to the study.</p>","1","","","","","","","","","","","","","",""
"","","","","","survey-multi-choice","39","229710","0.0-11.1-1.1-0.1","66e0d867f745183388c72031","67619bf32066d179f8b4b1ec","67894f336c17c953e4726a36","passed","","3989","","","","","","","","","","","","","","{""generalProcedure"":""Watch a video of a ball falling, some of it behind a gray screen. After each video, decide if the triangle is at the spot where the ball hit the triangle behind the screen. There is time limit for the response.""}","","","","","","","","","","[0]","","","",""
"","","","","","survey-multi-choice","40","231563","0.0-11.1-1.1-1.1","66e0d867f745183388c72031","67619bf32066d179f8b4b1ec","67894f336c17c953e4726a36","passed","","1852","","","","","","","","","","","","","","{""checkBallHitObstacle"":""Yes.""}","","","","","","","","","","[0]","","","",""
"","","","","","survey-multi-choice","41","233313","0.0-11.1-1.1-2.1","66e0d867f745183388c72031","67619bf32066d179f8b4b1ec","67894f336c17c953e4726a36","passed","","1750","","","","","","","","","","","","","","{""checkTriangleVisibility"":""No, the triangle is hidden behind the gray screen.""}","","","","","","","","","","[0]","","","",""
"","","","","","survey-multi-choice","42","235891","0.0-11.1-1.1-3.1","66e0d867f745183388c72031","67619bf32066d179f8b4b1ec","67894f336c17c953e4726a36","passed","","2577","","","","","","","","","","","","","","{""checkTimedResponse"":""Your response will not be recorded, and the trial will move to the next one.""}","","","","","","","","","","[0]","","","",""
"","","","","","survey-multi-choice","43","239343","0.0-11.1-1.1-4.1","66e0d867f745183388c72031","67619bf32066d179f8b4b1ec","67894f336c17c953e4726a36","passed","","3452","","","","","","","","","","","","","","{""checkTimeBlockNotice"":""At the beginning of each block.""}","","","","","","","","","","[0]","","","",""
"","","","","","survey-multi-choice","44","242528","0.0-11.1-1.1-5.1","66e0d867f745183388c72031","67619bf32066d179f8b4b1ec","67894f336c17c953e4726a36","passed","","3185","","","","","","","","","","","","","","{""checkTimeBlockSameness"":""Yes, the time limit is the same for all trials within a block.""}","","","","","","","","","","[0]","","","",""
"","","","","","survey-multi-choice","45","249895","0.0-11.1-1.1-6.1","66e0d867f745183388c72031","67619bf32066d179f8b4b1ec","67894f336c17c953e4726a36","passed","","7365","","","","","","","","","","","","","","{""checkTrianglePrecision"":""No. The proposed purple triangle is not in the correct position because it doesn't match the location of the white triangle exactly.""}","","","","","","","","","","[0]","","","",""
"","","","","","instructions","46","273745","0.0-12.0","66e0d867f745183388c72031","67619bf32066d179f8b4b1ec","67894f336c17c953e4726a36","passed","[{""page_index"":0,""viewing_time"":2476},{""page_index"":1,""viewing_time"":8187},{""page_index"":2,""viewing_time"":7765},{""page_index"":3,""viewing_time"":5421}]","23850","","","","","","","","","","","","","","","","","","","","","","","","","","","",""
"","","","","","instructions","47","277135","0.0-13.0-0.0","66e0d867f745183388c72031","67619bf32066d179f8b4b1ec","67894f336c17c953e4726a36","passed","[{""page_index"":0,""viewing_time"":3389}]","3389","","","","","","","","","","","","","","","","","","","","","","","","","","","",""
"","","","","","html-keyboard-response","48","280088","0.0-13.0-1.0","66e0d867f745183388c72031","67619bf32066d179f8b4b1ec","67894f336c17c953e4726a36","passed","","2952","","","","","","","","","","","","","<p><span style=""font-size:40px;"">Practice BLOCK 1</span></p><p><span style=""font-size:25px;"">You have <strong>3 second(s)</strong> to respond to the following trials.</span><br></p><p id=""blinking-text"" style=""font-weight; animation: blink 2s infinite;"">Press Space to continue</p><style>
                    @keyframes blink {
                        50% {
                            opacity: 0;
                        }
                    }
                </style>"," ","","","","","","","","","","","","","",""
"","","","","","html-keyboard-response","49","281669","0.0-13.0-2.0-0.0","66e0d867f745183388c72031","67619bf32066d179f8b4b1ec","67894f336c17c953e4726a36","passed","","","","","","","","","","","","","","","","","ballFalling_prac","660","610","263","4","fallScene","false","","","","","","",""
"","","","","","html-keyboard-response","50","282986","0.0-13.0-2.0-1.0","66e0d867f745183388c72031","67619bf32066d179f8b4b1ec","67894f336c17c953e4726a36","passed","","1313","","","","","","","","","","","","","","f","yesOrNo_prac","","","","4","","","gt","3000","","","","",""
"","","","","","html-keyboard-response","51","284550","0.0-13.0-2.0-0.1","66e0d867f745183388c72031","67619bf32066d179f8b4b1ec","67894f336c17c953e4726a36","passed","","","","","","","","","","","","","","","","","ballFalling_prac","584","536","296","1","fallScene","true","","","","","","",""
"","","","","","html-keyboard-response","52","285324","0.0-13.0-2.0-1.1","66e0d867f745183388c72031","67619bf32066d179f8b4b1ec","67894f336c17c953e4726a36","passed","","773","","","","","","","","","","","","","","j","yesOrNo_prac","","","","1","","","close gt","3000","","","","",""
"","","","","","html-keyboard-response","53","286880","0.0-13.0-2.0-0.2","66e0d867f745183388c72031","67619bf32066d179f8b4b1ec","67894f336c17c953e4726a36","passed","","","","","","","","","","","","","","","","","ballFalling_prac","416","464","296","1","fallScene","false","","","","","","",""
"","","","","","html-keyboard-response","54","287520","0.0-13.0-2.0-1.2","66e0d867f745183388c72031","67619bf32066d179f8b4b1ec","67894f336c17c953e4726a36","passed","","636","","","","","","","","","","","","","","f","yesOrNo_prac","","","","1","","","far gt","3000","","","","",""
"","","","","","html-keyboard-response","55","289324","0.0-13.0-3.0","66e0d867f745183388c72031","67619bf32066d179f8b4b1ec","67894f336c17c953e4726a36","passed","","1803","","","","","","","","","","","","","<p><span style=""font-size:40px;"">Practice BLOCK 2</span></p><p><span style=""font-size:25px;"">You have <strong>1 second(s)</strong> to respond to the following trials.</span><br></p><p id=""blinking-text"" style=""font-weight; animation: blink 2s infinite;"">Press Space to continue</p><style>
                    @keyframes blink {
                        50% {
                            opacity: 0;
                        }
                    }
                </style>"," ","","","","","","","","","","","","","",""
"","","","","","html-keyboard-response","56","290892","0.0-13.0-4.0-0.0","66e0d867f745183388c72031","67619bf32066d179f8b4b1ec","67894f336c17c953e4726a36","passed","","","","","","","","","","","","","","","","","ballFalling_prac","660","610","263","4","fallScene","false","","","","","","",""
"","","","","","html-keyboard-response","57","291266","0.0-13.0-4.0-1.0","66e0d867f745183388c72031","67619bf32066d179f8b4b1ec","67894f336c17c953e4726a36","passed","","371","","","","","","","","","","","","","","j","yesOrNo_prac","","","","4","","","far gt","1000","","","","",""
"","","","","","html-keyboard-response","58","293375","0.0-13.0-4.0-0.1","66e0d867f745183388c72031","67619bf32066d179f8b4b1ec","67894f336c17c953e4726a36","passed","","","","","","","","","","","","","","","","","ballFalling_prac","340","334","350","3","fallScene","true","","","","","","",""
"","","","","","html-keyboard-response","59","294104","0.0-13.0-4.0-1.1","66e0d867f745183388c72031","67619bf32066d179f8b4b1ec","67894f336c17c953e4726a36","passed","","728","","","","","","","","","","","","","","f","yesOrNo_prac","","","","3","","","close gt","1000","","","","",""
"","","","","","html-keyboard-response","60","295655","0.0-13.0-4.0-0.2","66e0d867f745183388c72031","67619bf32066d179f8b4b1ec","67894f336c17c953e4726a36","passed","","","","","","","","","","","","","","","","","ballFalling_prac","441","500","317","6","fallScene","true","","","","","","",""
"","","","","","html-keyboard-response","61","296307","0.0-13.0-4.0-1.2","66e0d867f745183388c72031","67619bf32066d179f8b4b1ec","67894f336c17c953e4726a36","passed","","650","","","","","","","","","","","","","","j","yesOrNo_prac","","","","6","","","gt","1000","","","","",""
"","","","","","instructions","62","301193","0.0-13.0-5.0","66e0d867f745183388c72031","67619bf32066d179f8b4b1ec","67894f336c17c953e4726a36","passed","[{""page_index"":0,""viewing_time"":4885}]","4885","","","","","","","","","","","","","","","","","","","","","","","","","","","",""
"","","","","","html-keyboard-response","63","304589","0.0-13.0-6.0","66e0d867f745183388c72031","67619bf32066d179f8b4b1ec","67894f336c17c953e4726a36","passed","","3396","","","","","","","","","","","","","<p><span style=""font-size:40px;"">Practice Test BLOCK 1</span></p><p><span style=""font-size:25px;"">You have <strong>1 second(s)</strong> to respond to the following trials.</span><br></p><p id=""blinking-text"" style=""font-weight; animation: blink 2s infinite;"">Press Space to continue</p><style>
                    @keyframes blink {
                        50% {
                            opacity: 0;
                        }
                    }
                </style>"," ","","","","","","","","","","","","","",""
"","","","","","html-keyboard-response","64","306144","0.0-13.0-7.0-0.0","66e0d867f745183388c72031","67619bf32066d179f8b4b1ec","67894f336c17c953e4726a36","passed","","","","","","","","","","","","","","","","","ballFalling_prac","441","500","317","6","fallScene","true","","","","","","",""
"","","","","","html-keyboard-response","65","306896","0.0-13.0-7.0-1.0","66e0d867f745183388c72031","67619bf32066d179f8b4b1ec","67894f336c17c953e4726a36","passed","","749","","","","","","","","","","","","","","f","yesOrNo_prac","","","","6","","","close gt","1000","","","","",""
"","","","","","html-keyboard-response","66","308476","0.0-13.0-7.0-0.1","66e0d867f745183388c72031","67619bf32066d179f8b4b1ec","67894f336c17c953e4726a36","passed","","","","","","","","","","","","","","","","","ballFalling_prac","340","390","263","4","fallScene","true","","","","","","",""
"","","","","","html-keyboard-response","67","309052","0.0-13.0-7.0-1.1","66e0d867f745183388c72031","67619bf32066d179f8b4b1ec","67894f336c17c953e4726a36","passed","","574","","","","","","","","","","","","","","j","yesOrNo_prac","","","","4","","","far gt","1000","","","","",""
"","","","","","html-keyboard-response","68","310624","0.0-13.0-7.0-0.2","66e0d867f745183388c72031","67619bf32066d179f8b4b1ec","67894f336c17c953e4726a36","passed","","","","","","","","","","","","","","","","","ballFalling_prac","559","586","302","5","fallScene","false","","","","","","",""
"","","","","","html-keyboard-response","69","311251","0.0-13.0-7.0-1.2","66e0d867f745183388c72031","67619bf32066d179f8b4b1ec","67894f336c17c953e4726a36","passed","","625","","","","","","","","","","","","","","f","yesOrNo_prac","","","","5","","","gt","1000","","","","",""
"","","","","","html-keyboard-response","70","313057","0.0-13.0-8.0","66e0d867f745183388c72031","67619bf32066d179f8b4b1ec","67894f336c17c953e4726a36","passed","","1806","","","","","","","","","","","","","<p><span style=""font-size:40px;"">Practice Test BLOCK 2</span></p><p><span style=""font-size:25px;"">You have <strong>3 second(s)</strong> to respond to the following trials.</span><br></p><p id=""blinking-text"" style=""font-weight; animation: blink 2s infinite;"">Press Space to continue</p><style>
                    @keyframes blink {
                        50% {
                            opacity: 0;
                        }
                    }
                </style>"," ","","","","","","","","","","","","","",""
"","","","","","html-keyboard-response","71","314636","0.0-13.0-9.0-0.0","66e0d867f745183388c72031","67619bf32066d179f8b4b1ec","67894f336c17c953e4726a36","passed","","","","","","","","","","","","","","","","","ballFalling_prac","340","390","263","4","fallScene","true","","","","","","",""
"","","","","","html-keyboard-response","72","315570","0.0-13.0-9.0-1.0","66e0d867f745183388c72031","67619bf32066d179f8b4b1ec","67894f336c17c953e4726a36","passed","","931","","","","","","","","","","","","","","j","yesOrNo_prac","","","","4","","","close gt","3000","","","","",""
"","","","","","html-keyboard-response","73","317150","0.0-13.0-9.0-0.1","66e0d867f745183388c72031","67619bf32066d179f8b4b1ec","67894f336c17c953e4726a36","passed","","","","","","","","","","","","","","","","","ballFalling_prac","416","365","249","2","fallScene","false","","","","","","",""
"","","","","","html-keyboard-response","74","318117","0.0-13.0-9.0-1.1","66e0d867f745183388c72031","67619bf32066d179f8b4b1ec","67894f336c17c953e4726a36","passed","","965","","","","","","","","","","","","","","j","yesOrNo_prac","","","","2","","","gt","3000","","","","",""
"","","","","","html-keyboard-response","75","319699","0.0-13.0-9.0-0.2","66e0d867f745183388c72031","67619bf32066d179f8b4b1ec","67894f336c17c953e4726a36","passed","","","","","","","","","","","","","","","","","ballFalling_prac","559","586","302","5","fallScene","false","","","","","","",""
"","","","","","html-keyboard-response","76","320616","0.0-13.0-9.0-1.2","66e0d867f745183388c72031","67619bf32066d179f8b4b1ec","67894f336c17c953e4726a36","passed","","915","","","","","","","","","","","","","","f","yesOrNo_prac","","","","5","","","far gt","3000","","","","",""
"","","","","","instructions","77","326687","0.0-14.0","66e0d867f745183388c72031","67619bf32066d179f8b4b1ec","67894f336c17c953e4726a36","passed","[{""page_index"":0,""viewing_time"":6070}]","6070","","","","","","","","","","","","","","","","","","","","","","","","","","","",""
"","","","","","html-keyboard-response","78","328450","0.0-15.0","66e0d867f745183388c72031","67619bf32066d179f8b4b1ec","67894f336c17c953e4726a36","passed","","1762","","","","","","","","","","","","","<p><span style=""font-size:40px;"">BLOCK 1</span></p><p><span style=""font-size:25px;"">You have <strong>1 second(s)</strong> to respond to the following trials.</span><br></p><p></p> <!-- Blank line -->
                <p id=""blinking-text"" style=""font-weight; animation: blink 2s infinite;"">Press Space to continue</p>
                <style>
                    @keyframes blink {
                        50% {
                            opacity: 0;
                        }
                    }
                </style></p>"," ","","","","","","","","","","","","","",""
"","","","","","html-keyboard-response","79","330454","0.0-16.0-0.0","66e0d867f745183388c72031","67619bf32066d179f8b4b1ec","67894f336c17c953e4726a36","passed","","","","","","","","","","","","","","","","","ballFalling","604.4000000000001","596.8711431702998","394.5","10","fallScene","false","","","","","1","",""
"","","","","","html-keyboard-response","80","331309","0.0-16.0-1.0","66e0d867f745183388c72031","67619bf32066d179f8b4b1ec","67894f336c17c953e4726a36","passed","","853","","","","","","","","","","","","","","f","yesOrNo","","","","10","","","lp","1000","","","1","603.4000000000001","215.50214355555383"
"","","","","","html-keyboard-response","81","333102","0.0-16.0-0.1","66e0d867f745183388c72031","67619bf32066d179f8b4b1ec","67894f336c17c953e4726a36","passed","","","","","","","","","","","","","","","","","ballFalling","322.3","308.07114317029976","253.89","2","fallScene","true","","","","","2","",""
"","","","","","html-keyboard-response","82","334085","0.0-16.0-1.1","66e0d867f745183388c72031","67619bf32066d179f8b4b1ec","67894f336c17c953e4726a36","passed","","981","","","","","","","","","","","","","","f","yesOrNo","","","","2","","","mid","1000","","","2","321.3","300"
"","","","","","html-keyboard-response","83","336099","0.0-16.0-0.2","66e0d867f745183388c72031","67619bf32066d179f8b4b1ec","67894f336c17c953e4726a36","passed","","","","","","","","","","","","","","","","","ballFalling","604.4000000000001","596.8711431702998","394.5","10","fallScene","true","","","","","3","",""
"","","","","","html-keyboard-response","84","336894","0.0-16.0-1.2","66e0d867f745183388c72031","67619bf32066d179f8b4b1ec","67894f336c17c953e4726a36","passed","","793","","","","","","","","","","","","","","j","yesOrNo","","","","10","","","gt","1000","","","3","596.8711431702998","394.5"
"","","","","","html-keyboard-response","85","338446","0.0-16.0-0.3","66e0d867f745183388c72031","67619bf32066d179f8b4b1ec","67894f336c17c953e4726a36","passed","","","","","","","","","","","","","","","","","ballFalling","604.4000000000001","650.0211431702996","404.58000000000004","11","fallScene","false","","","","","4","",""
"","","","","","html-keyboard-response","86","339125","0.0-16.0-1.3","66e0d867f745183388c72031","67619bf32066d179f8b4b1ec","67894f336c17c953e4726a36","passed","","677","","","","","","","","","","","","","","j","yesOrNo","","","","11","","","lp","1000","","","4","605.4000000000001","372.6340973215488"
"","","","","","html-keyboard-response","87","340677","0.0-16.0-0.4","66e0d867f745183388c72031","67619bf32066d179f8b4b1ec","67894f336c17c953e4726a36","passed","","","","","","","","","","","","","","","","","ballFalling","322.3","296.07114317029976","371.46","3","fallScene","false","","","","","5","",""
"","","","","","html-keyboard-response","88","341467","0.0-16.0-1.4","66e0d867f745183388c72031","67619bf32066d179f8b4b1ec","67894f336c17c953e4726a36","passed","","788","","","","","","","","","","","","","","f","yesOrNo","","","","3","","","mid","1000","","","5","321.3","300"
"","","","","","html-keyboard-response","89","343025","0.0-16.0-0.5","66e0d867f745183388c72031","67619bf32066d179f8b4b1ec","67894f336c17c953e4726a36","passed","","","","","","","","","","","","","","","","","ballFalling","322.3","296.07114317029976","371.46","3","fallScene","true","","","","","6","",""
"","","","","","html-keyboard-response","90","343957","0.0-16.0-1.5","66e0d867f745183388c72031","67619bf32066d179f8b4b1ec","67894f336c17c953e4726a36","passed","","930","","","","","","","","","","","","","","f","yesOrNo","","","","3","","","gt","1000","","","6","296.07114317029976","371.46"
"","","","","","html-keyboard-response","91","345440","0.0-16.0-0.6","66e0d867f745183388c72031","67619bf32066d179f8b4b1ec","67894f336c17c953e4726a36","passed","","","","","","","","","","","","","","","","","ballFalling","604.4000000000001","667.6211431702998","201.78","9","fallScene","true","","","","","7","",""
"","","","","","html-keyboard-response","92","346454","0.0-16.0-1.6","66e0d867f745183388c72031","67619bf32066d179f8b4b1ec","67894f336c17c953e4726a36","passed","","null","","","","","","","","","","","","","","null","yesOrNo","","","","9","","","gt","1000","","","7","667.6211431702998","201.78"
"","","","","","html-keyboard-response","93","348003","0.0-16.0-0.7","66e0d867f745183388c72031","67619bf32066d179f8b4b1ec","67894f336c17c953e4726a36","passed","","","","","","","","","","","","","","","","","ballFalling","604.4000000000001","575.4211431702997","266.76","12","fallScene","false","","","","","8","",""
"","","","","","html-keyboard-response","94","348254","0.0-16.0-1.7","66e0d867f745183388c72031","67619bf32066d179f8b4b1ec","67894f336c17c953e4726a36","passed","","249","","","","","","","","","","","","","","f","yesOrNo","","","","12","","","gt","1000","","","8","575.4211431702997","266.76"
"","","","","","html-keyboard-response","95","349818","0.0-16.0-0.8","66e0d867f745183388c72031","67619bf32066d179f8b4b1ec","67894f336c17c953e4726a36","passed","","","","","","","","","","","","","","","","","ballFalling","604.4000000000001","575.4211431702997","266.76","12","fallScene","false","","","","","9","",""
"","","","","","html-keyboard-response","96","350532","0.0-16.0-1.8","66e0d867f745183388c72031","67619bf32066d179f8b4b1ec","67894f336c17c953e4726a36","passed","","711","","","","","","","","","","","","","","j","yesOrNo","","","","12","","","lp","1000","","","9","603.4000000000001","151"
"","","","","","html-keyboard-response","97","352316","0.0-16.0-0.9","66e0d867f745183388c72031","67619bf32066d179f8b4b1ec","67894f336c17c953e4726a36","passed","","","","","","","","","","","","","","","","","ballFalling","322.3","308.07114317029976","253.89","2","fallScene","false","","","","","10","",""
"","","","","","html-keyboard-response","98","352943","0.0-16.0-1.9","66e0d867f745183388c72031","67619bf32066d179f8b4b1ec","67894f336c17c953e4726a36","passed","","624","","","","","","","","","","","","","","j","yesOrNo","","","","2","","","lp","1000","","","10","321.3","151"
"","","","","","html-keyboard-response","99","354497","0.0-16.0-0.10","66e0d867f745183388c72031","67619bf32066d179f8b4b1ec","67894f336c17c953e4726a36","passed","","","","","","","","","","","","","","","","","ballFalling","604.4000000000001","650.0211431702996","404.58000000000004","11","fallScene","false","","","","","11","",""
"","","","","","html-keyboard-response","100","355381","0.0-16.0-1.10","66e0d867f745183388c72031","67619bf32066d179f8b4b1ec","67894f336c17c953e4726a36","passed","","881","","","","","","","","","","","","","","f","yesOrNo","","","","11","","","lp","1000","","","11","605.4000000000001","372.6340973215488"
"","","","","","html-keyboard-response","101","356961","0.0-16.0-0.11","66e0d867f745183388c72031","67619bf32066d179f8b4b1ec","67894f336c17c953e4726a36","passed","","","","","","","","","","","","","","","","","ballFalling","500","553.4711431702997","282.51","7","fallScene","false","","","","","12","",""
"","","","","","html-keyboard-response","102","357470","0.0-16.0-1.11","66e0d867f745183388c72031","67619bf32066d179f8b4b1ec","67894f336c17c953e4726a36","passed","","507","","","","","","","","","","","","","","j","yesOrNo","","","","7","","","lp","1000","","","12","501","227.2843295913261"
"","","","","","html-keyboard-response","103","359026","0.0-16.0-0.12","66e0d867f745183388c72031","67619bf32066d179f8b4b1ec","67894f336c17c953e4726a36","passed","","","","","","","","","","","","","","","","","ballFalling","322.3","379.3711431702997","245.25","1","fallScene","false","","","","","13","",""
"","","","","","html-keyboard-response","104","359965","0.0-16.0-1.12","66e0d867f745183388c72031","67619bf32066d179f8b4b1ec","67894f336c17c953e4726a36","passed","","937","","","","","","","","","","","","","","j","yesOrNo","","","","1","","","lp","1000","","","13","323.3","217.74551669457017"
"","","","","","html-keyboard-response","105","361523","0.0-16.0-0.13","66e0d867f745183388c72031","67619bf32066d179f8b4b1ec","67894f336c17c953e4726a36","passed","","","","","","","","","","","","","","","","","ballFalling","322.3","379.3711431702997","245.25","1","fallScene","false","","","","","14","",""
"","","","","","html-keyboard-response","106","362492","0.0-16.0-1.13","66e0d867f745183388c72031","67619bf32066d179f8b4b1ec","67894f336c17c953e4726a36","passed","","966","","","","","","","","","","","","","","j","yesOrNo","","","","1","","","mid","1000","","","14","390.27114317029975","300"
"","","","","","html-keyboard-response","107","364055","0.0-16.0-0.14","66e0d867f745183388c72031","67619bf32066d179f8b4b1ec","67894f336c17c953e4726a36","passed","","","","","","","","","","","","","","","","","ballFalling","500","453.67114317029973","210.33","5","fallScene","false","","","","","15","",""
"","","","","","html-keyboard-response","108","365069","0.0-16.0-1.14","66e0d867f745183388c72031","67619bf32066d179f8b4b1ec","67894f336c17c953e4726a36","passed","","null","","","","","","","","","","","","","","null","yesOrNo","","","","5","","","lp","1000","","","15","499","151"
"","","","","","html-keyboard-response","109","366718","0.0-16.0-0.15","66e0d867f745183388c72031","67619bf32066d179f8b4b1ec","67894f336c17c953e4726a36","passed","","","","","","","","","","","","","","","","","ballFalling","500","479.92114317029973","330.87","6","fallScene","true","","","","","16","",""
"","","","","","html-keyboard-response","110","366969","0.0-16.0-1.15","66e0d867f745183388c72031","67619bf32066d179f8b4b1ec","67894f336c17c953e4726a36","passed","","249","","","","","","","","","","","","","","f","yesOrNo","","","","6","","","mid","1000","","","16","499","300"
"","","","","","html-keyboard-response","111","368983","0.0-16.0-0.16","66e0d867f745183388c72031","67619bf32066d179f8b4b1ec","67894f336c17c953e4726a36","passed","","","","","","","","","","","","","","","","","ballFalling","604.4000000000001","596.8711431702998","394.5","10","fallScene","false","","","","","17","",""
"","","","","","html-keyboard-response","112","369696","0.0-16.0-1.16","66e0d867f745183388c72031","67619bf32066d179f8b4b1ec","67894f336c17c953e4726a36","passed","","712","","","","","","","","","","","","","","f","yesOrNo","","","","10","","","mid","1000","","","17","536.4288568297004","300"
"","","","","","html-keyboard-response","113","371181","0.0-16.0-0.17","66e0d867f745183388c72031","67619bf32066d179f8b4b1ec","67894f336c17c953e4726a36","passed","","","","","","","","","","","","","","","","","ballFalling","604.4000000000001","667.6211431702998","201.78","9","fallScene","true","","","","","18","",""
"","","","","","html-keyboard-response","114","371795","0.0-16.0-1.17","66e0d867f745183388c72031","67619bf32066d179f8b4b1ec","67894f336c17c953e4726a36","passed","","612","","","","","","","","","","","","","","f","yesOrNo","","","","9","","","gt","1000","","","18","667.6211431702998","201.78"
"","","","","","html-keyboard-response","115","373345","0.0-16.0-0.18","66e0d867f745183388c72031","67619bf32066d179f8b4b1ec","67894f336c17c953e4726a36","passed","","","","","","","","","","","","","","","","","ballFalling","322.3","356.42114317029973","357.87","4","fallScene","false","","","","","19","",""
"","","","","","html-keyboard-response","116","374333","0.0-16.0-1.18","66e0d867f745183388c72031","67619bf32066d179f8b4b1ec","67894f336c17c953e4726a36","passed","","986","","","","","","","","","","","","","","j","yesOrNo","","","","4","","","lp","1000","","","19","323.3","297.4070551689986"
"","","","","","html-keyboard-response","117","375909","0.0-16.0-0.19","66e0d867f745183388c72031","67619bf32066d179f8b4b1ec","67894f336c17c953e4726a36","passed","","","","","","","","","","","","","","","","","ballFalling","500","553.4711431702997","282.51","7","fallScene","true","","","","","20","",""
"","","","","","html-keyboard-response","118","376556","0.0-16.0-1.19","66e0d867f745183388c72031","67619bf32066d179f8b4b1ec","67894f336c17c953e4726a36","passed","","645","","","","","","","","","","","","","","f","yesOrNo","","","","7","","","lp","1000","","","20","501","227.2843295913261"
"","","","","","html-keyboard-response","119","378107","0.0-16.0-0.20","66e0d867f745183388c72031","67619bf32066d179f8b4b1ec","67894f336c17c953e4726a36","passed","","","","","","","","","","","","","","","","","ballFalling","322.3","379.3711431702997","245.25","1","fallScene","true","","","","","21","",""
"","","","","","html-keyboard-response","120","378874","0.0-16.0-1.20","66e0d867f745183388c72031","67619bf32066d179f8b4b1ec","67894f336c17c953e4726a36","passed","","765","","","","","","","","","","","","","","f","yesOrNo","","","","1","","","mid","1000","","","21","390.27114317029975","300"
"","","","","","html-keyboard-response","121","380672","0.0-16.0-0.21","66e0d867f745183388c72031","67619bf32066d179f8b4b1ec","67894f336c17c953e4726a36","passed","","","","","","","","","","","","","","","","","ballFalling","322.3","308.07114317029976","253.89","2","fallScene","false","","","","","22","",""
"","","","","","html-keyboard-response","122","381393","0.0-16.0-1.21","66e0d867f745183388c72031","67619bf32066d179f8b4b1ec","67894f336c17c953e4726a36","passed","","719","","","","","","","","","","","","","","j","yesOrNo","","","","2","","","mid","1000","","","22","321.3","300"
"","","","","","html-keyboard-response","123","383402","0.0-16.0-0.22","66e0d867f745183388c72031","67619bf32066d179f8b4b1ec","67894f336c17c953e4726a36","passed","","","","","","","","","","","","","","","","","ballFalling","500","510.8711431702997","369.03","8","fallScene","true","","","","","23","",""
"","","","","","html-keyboard-response","124","384253","0.0-16.0-1.22","66e0d867f745183388c72031","67619bf32066d179f8b4b1ec","67894f336c17c953e4726a36","passed","","849","","","","","","","","","","","","","","f","yesOrNo","","","","8","","","gt","1000","","","23","510.8711431702997","369.03"
"","","","","","html-keyboard-response","125","386266","0.0-16.0-0.23","66e0d867f745183388c72031","67619bf32066d179f8b4b1ec","67894f336c17c953e4726a36","passed","","","","","","","","","","","","","","","","","ballFalling","500","510.8711431702997","369.03","8","fallScene","true","","","","","24","",""
"","","","","","html-keyboard-response","126","387041","0.0-16.0-1.23","66e0d867f745183388c72031","67619bf32066d179f8b4b1ec","67894f336c17c953e4726a36","passed","","773","","","","","","","","","","","","","","j","yesOrNo","","","","8","","","mid","1000","","","24","501","300"
"","","","","","html-keyboard-response","127","389453","0.0-17.0","66e0d867f745183388c72031","67619bf32066d179f8b4b1ec","67894f336c17c953e4726a36","passed","","2410","","","","","","","","","","","","","<p><span style=""font-size:40px;"">BLOCK 2</span></p><p><span style=""font-size:25px;"">You have <strong>3 second(s)</strong> to respond to the following trials.</span><br></p><p></p> <!-- Blank line -->
                <p id=""blinking-text"" style=""font-weight; animation: blink 2s infinite;"">Press Space to continue</p>
                <style>
                    @keyframes blink {
                        50% {
                            opacity: 0;
                        }
                    }
                </style></p>"," ","","","","","","","","","","","","","",""
"","","","","","html-keyboard-response","128","391011","0.0-18.0-0.0","66e0d867f745183388c72031","67619bf32066d179f8b4b1ec","67894f336c17c953e4726a36","passed","","","","","","","","","","","","","","","","","ballFalling","604.4000000000001","575.4211431702997","266.76","12","fallScene","true","","","","","25","",""
"","","","","","html-keyboard-response","129","391644","0.0-18.0-1.0","66e0d867f745183388c72031","67619bf32066d179f8b4b1ec","67894f336c17c953e4726a36","passed","","632","","","","","","","","","","","","","","j","yesOrNo","","","","12","","","gt","3000","","","25","575.4211431702997","266.76"
"","","","","","html-keyboard-response","130","393443","0.0-18.0-0.1","66e0d867f745183388c72031","67619bf32066d179f8b4b1ec","67894f336c17c953e4726a36","passed","","","","","","","","","","","","","","","","","ballFalling","322.3","308.07114317029976","253.89","2","fallScene","false","","","","","26","",""
"","","","","","html-keyboard-response","131","394187","0.0-18.0-1.1","66e0d867f745183388c72031","67619bf32066d179f8b4b1ec","67894f336c17c953e4726a36","passed","","743","","","","","","","","","","","","","","f","yesOrNo","","","","2","","","gt","3000","","","26","308.07114317029976","253.89"
"","","","","","html-keyboard-response","132","395840","0.0-18.0-0.2","66e0d867f745183388c72031","67619bf32066d179f8b4b1ec","67894f336c17c953e4726a36","passed","","","","","","","","","","","","","","","","","ballFalling","500","479.92114317029973","330.87","6","fallScene","true","","","","","27","",""
"","","","","","html-keyboard-response","133","396799","0.0-18.0-1.2","66e0d867f745183388c72031","67619bf32066d179f8b4b1ec","67894f336c17c953e4726a36","passed","","957","","","","","","","","","","","","","","f","yesOrNo","","","","6","","","gt","3000","","","27","479.9211431702998","330.87"
"","","","","","html-keyboard-response","134","398354","0.0-18.0-0.3","66e0d867f745183388c72031","67619bf32066d179f8b4b1ec","67894f336c17c953e4726a36","passed","","","","","","","","","","","","","","","","","ballFalling","604.4000000000001","650.0211431702996","404.58000000000004","11","fallScene","true","","","","","28","",""
"","","","","","html-keyboard-response","135","399187","0.0-18.0-1.3","66e0d867f745183388c72031","67619bf32066d179f8b4b1ec","67894f336c17c953e4726a36","passed","","832","","","","","","","","","","","","","","f","yesOrNo","","","","11","","","lp","3000","","","28","605.4000000000001","372.6340973215488"
"","","","","","html-keyboard-response","136","400751","0.0-18.0-0.4","66e0d867f745183388c72031","67619bf32066d179f8b4b1ec","67894f336c17c953e4726a36","passed","","","","","","","","","","","","","","","","","ballFalling","322.3","379.3711431702997","245.25","1","fallScene","false","","","","","29","",""
"","","","","","html-keyboard-response","137","401715","0.0-18.0-1.4","66e0d867f745183388c72031","67619bf32066d179f8b4b1ec","67894f336c17c953e4726a36","passed","","961","","","","","","","","","","","","","","f","yesOrNo","","","","1","","","mid","3000","","","29","390.27114317029975","300"
"","","","","","html-keyboard-response","138","403266","0.0-18.0-0.5","66e0d867f745183388c72031","67619bf32066d179f8b4b1ec","67894f336c17c953e4726a36","passed","","","","","","","","","","","","","","","","","ballFalling","604.4000000000001","650.0211431702996","404.58000000000004","11","fallScene","false","","","","","30","",""
"","","","","","html-keyboard-response","139","404623","0.0-18.0-1.5","66e0d867f745183388c72031","67619bf32066d179f8b4b1ec","67894f336c17c953e4726a36","passed","","1355","","","","","","","","","","","","","","j","yesOrNo","","","","11","","","mid","3000","","","30","605.4000000000001","300"
"","","","","","html-keyboard-response","140","406179","0.0-18.0-0.6","66e0d867f745183388c72031","67619bf32066d179f8b4b1ec","67894f336c17c953e4726a36","passed","","","","","","","","","","","","","","","","","ballFalling","322.3","296.07114317029976","371.46","3","fallScene","false","","","","","31","",""
"","","","","","html-keyboard-response","141","406919","0.0-18.0-1.6","66e0d867f745183388c72031","67619bf32066d179f8b4b1ec","67894f336c17c953e4726a36","passed","","737","","","","","","","","","","","","","","f","yesOrNo","","","","3","","","gt","3000","","","31","296.07114317029976","371.46"
"","","","","","html-keyboard-response","142","408494","0.0-18.0-0.7","66e0d867f745183388c72031","67619bf32066d179f8b4b1ec","67894f336c17c953e4726a36","passed","","","","","","","","","","","","","","","","","ballFalling","500","553.4711431702997","282.51","7","fallScene","true","","","","","32","",""
"","","","","","html-keyboard-response","143","409562","0.0-18.0-1.7","66e0d867f745183388c72031","67619bf32066d179f8b4b1ec","67894f336c17c953e4726a36","passed","","1065","","","","","","","","","","","","","","j","yesOrNo","","","","7","","","lp","3000","","","32","501","227.2843295913261"
"","","","","","html-keyboard-response","144","411142","0.0-18.0-0.8","66e0d867f745183388c72031","67619bf32066d179f8b4b1ec","67894f336c17c953e4726a36","passed","","","","","","","","","","","","","","","","","ballFalling","500","553.4711431702997","282.51","7","fallScene","true","","","","","33","",""
"","","","","","html-keyboard-response","145","411823","0.0-18.0-1.8","66e0d867f745183388c72031","67619bf32066d179f8b4b1ec","67894f336c17c953e4726a36","passed","","680","","","","","","","","","","","","","","f","yesOrNo","","","","7","","","gt","3000","","","33","553.4711431702997","282.51"
"","","","","","html-keyboard-response","146","413372","0.0-18.0-0.9","66e0d867f745183388c72031","67619bf32066d179f8b4b1ec","67894f336c17c953e4726a36","passed","","","","","","","","","","","","","","","","","ballFalling","604.4000000000001","575.4211431702997","266.76","12","fallScene","false","","","","","34","",""
"","","","","","html-keyboard-response","147","414114","0.0-18.0-1.9","66e0d867f745183388c72031","67619bf32066d179f8b4b1ec","67894f336c17c953e4726a36","passed","","740","","","","","","","","","","","","","","f","yesOrNo","","","","12","","","lp","3000","","","34","603.4000000000001","151"
"","","","","","html-keyboard-response","148","416120","0.0-18.0-0.10","66e0d867f745183388c72031","67619bf32066d179f8b4b1ec","67894f336c17c953e4726a36","passed","","","","","","","","","","","","","","","","","ballFalling","604.4000000000001","596.8711431702998","394.5","10","fallScene","true","","","","","35","",""
"","","","","","html-keyboard-response","149","416805","0.0-18.0-1.10","66e0d867f745183388c72031","67619bf32066d179f8b4b1ec","67894f336c17c953e4726a36","passed","","683","","","","","","","","","","","","","","f","yesOrNo","","","","10","","","mid","3000","","","35","536.4288568297004","300"
"","","","","","html-keyboard-response","150","418367","0.0-18.0-0.11","66e0d867f745183388c72031","67619bf32066d179f8b4b1ec","67894f336c17c953e4726a36","passed","","","","","","","","","","","","","","","","","ballFalling","322.3","356.42114317029973","357.87","4","fallScene","true","","","","","36","",""
"","","","","","html-keyboard-response","151","419214","0.0-18.0-1.11","66e0d867f745183388c72031","67619bf32066d179f8b4b1ec","67894f336c17c953e4726a36","passed","","845","","","","","","","","","","","","","","j","yesOrNo","","","","4","","","mid","3000","","","36","390.27114317029975","300"
"","","","","","html-keyboard-response","152","420766","0.0-18.0-0.12","66e0d867f745183388c72031","67619bf32066d179f8b4b1ec","67894f336c17c953e4726a36","passed","","","","","","","","","","","","","","","","","ballFalling","322.3","356.42114317029973","357.87","4","fallScene","true","","","","","37","",""
"","","","","","html-keyboard-response","153","421588","0.0-18.0-1.12","66e0d867f745183388c72031","67619bf32066d179f8b4b1ec","67894f336c17c953e4726a36","passed","","821","","","","","","","","","","","","","","j","yesOrNo","","","","4","","","lp","3000","","","37","323.3","297.4070551689986"
"","","","","","html-keyboard-response","154","423146","0.0-18.0-0.13","66e0d867f745183388c72031","67619bf32066d179f8b4b1ec","67894f336c17c953e4726a36","passed","","","","","","","","","","","","","","","","","ballFalling","604.4000000000001","575.4211431702997","266.76","12","fallScene","false","","","","","38","",""
"","","","","","html-keyboard-response","155","423772","0.0-18.0-1.13","66e0d867f745183388c72031","67619bf32066d179f8b4b1ec","67894f336c17c953e4726a36","passed","","624","","","","","","","","","","","","","","f","yesOrNo","","","","12","","","gt","3000","","","38","575.4211431702997","266.76"
"","","","","","html-keyboard-response","156","425260","0.0-18.0-0.14","66e0d867f745183388c72031","67619bf32066d179f8b4b1ec","67894f336c17c953e4726a36","passed","","","","","","","","","","","","","","","","","ballFalling","604.4000000000001","667.6211431702998","201.78","9","fallScene","false","","","","","39","",""
"","","","","","html-keyboard-response","157","426551","0.0-18.0-1.14","66e0d867f745183388c72031","67619bf32066d179f8b4b1ec","67894f336c17c953e4726a36","passed","","1289","","","","","","","","","","","","","","f","yesOrNo","","","","9","","","lp","3000","","","39","605.4000000000001","151"
"","","","","","html-keyboard-response","158","428108","0.0-18.0-0.15","66e0d867f745183388c72031","67619bf32066d179f8b4b1ec","67894f336c17c953e4726a36","passed","","","","","","","","","","","","","","","","","ballFalling","604.4000000000001","575.4211431702997","266.76","12","fallScene","false","","","","","40","",""
"","","","","","html-keyboard-response","159","429087","0.0-18.0-1.15","66e0d867f745183388c72031","67619bf32066d179f8b4b1ec","67894f336c17c953e4726a36","passed","","977","","","","","","","","","","","","","","f","yesOrNo","","","","12","","","mid","3000","","","40","536.4288568297004","300"
"","","","","","html-keyboard-response","160","431088","0.0-18.0-0.16","66e0d867f745183388c72031","67619bf32066d179f8b4b1ec","67894f336c17c953e4726a36","passed","","","","","","","","","","","","","","","","","ballFalling","604.4000000000001","596.8711431702998","394.5","10","fallScene","true","","","","","41","",""
"","","","","","html-keyboard-response","161","432151","0.0-18.0-1.16","66e0d867f745183388c72031","67619bf32066d179f8b4b1ec","67894f336c17c953e4726a36","passed","","1062","","","","","","","","","","","","","","f","yesOrNo","","","","10","","","gt","3000","","","41","596.8711431702998","394.5"
"","","","","","html-keyboard-response","162","433804","0.0-18.0-0.17","66e0d867f745183388c72031","67619bf32066d179f8b4b1ec","67894f336c17c953e4726a36","passed","","","","","","","","","","","","","","","","","ballFalling","500","479.92114317029973","330.87","6","fallScene","false","","","","","42","",""
"","","","","","html-keyboard-response","163","434814","0.0-18.0-1.17","66e0d867f745183388c72031","67619bf32066d179f8b4b1ec","67894f336c17c953e4726a36","passed","","1008","","","","","","","","","","","","","","j","yesOrNo","","","","6","","","mid","3000","","","42","499","300"
"","","","","","html-keyboard-response","164","436383","0.0-18.0-0.18","66e0d867f745183388c72031","67619bf32066d179f8b4b1ec","67894f336c17c953e4726a36","passed","","","","","","","","","","","","","","","","","ballFalling","500","553.4711431702997","282.51","7","fallScene","false","","","","","43","",""
"","","","","","html-keyboard-response","165","437166","0.0-18.0-1.18","66e0d867f745183388c72031","67619bf32066d179f8b4b1ec","67894f336c17c953e4726a36","passed","","782","","","","","","","","","","","","","","f","yesOrNo","","","","7","","","lp","3000","","","43","501","227.2843295913261"
"","","","","","html-keyboard-response","166","438664","0.0-18.0-0.19","66e0d867f745183388c72031","67619bf32066d179f8b4b1ec","67894f336c17c953e4726a36","passed","","","","","","","","","","","","","","","","","ballFalling","604.4000000000001","667.6211431702998","201.78","9","fallScene","true","","","","","44","",""
"","","","","","html-keyboard-response","167","439363","0.0-18.0-1.19","66e0d867f745183388c72031","67619bf32066d179f8b4b1ec","67894f336c17c953e4726a36","passed","","696","","","","","","","","","","","","","","f","yesOrNo","","","","9","","","gt","3000","","","44","667.6211431702998","201.78"
"","","","","","html-keyboard-response","168","440912","0.0-18.0-0.20","66e0d867f745183388c72031","67619bf32066d179f8b4b1ec","67894f336c17c953e4726a36","passed","","","","","","","","","","","","","","","","","ballFalling","322.3","379.3711431702997","245.25","1","fallScene","true","","","","","45","",""
"","","","","","html-keyboard-response","169","441769","0.0-18.0-1.20","66e0d867f745183388c72031","67619bf32066d179f8b4b1ec","67894f336c17c953e4726a36","passed","","856","","","","","","","","","","","","","","j","yesOrNo","","","","1","","","lp","3000","","","45","323.3","217.74551669457017"
"","","","","","html-keyboard-response","170","443326","0.0-18.0-0.21","66e0d867f745183388c72031","67619bf32066d179f8b4b1ec","67894f336c17c953e4726a36","passed","","","","","","","","","","","","","","","","","ballFalling","322.3","296.07114317029976","371.46","3","fallScene","false","","","","","46","",""
"","","","","","html-keyboard-response","171","444316","0.0-18.0-1.21","66e0d867f745183388c72031","67619bf32066d179f8b4b1ec","67894f336c17c953e4726a36","passed","","987","","","","","","","","","","","","","","f","yesOrNo","","","","3","","","lp","3000","","","46","321.3","287.3327096511259"
"","","","","","html-keyboard-response","172","445890","0.0-18.0-0.22","66e0d867f745183388c72031","67619bf32066d179f8b4b1ec","67894f336c17c953e4726a36","passed","","","","","","","","","","","","","","","","","ballFalling","500","553.4711431702997","282.51","7","fallScene","false","","","","","47","",""
"","","","","","html-keyboard-response","173","446775","0.0-18.0-1.22","66e0d867f745183388c72031","67619bf32066d179f8b4b1ec","67894f336c17c953e4726a36","passed","","883","","","","","","","","","","","","","","f","yesOrNo","","","","7","","","gt","3000","","","47","553.4711431702997","282.51"
"","","","","","html-keyboard-response","174","448788","0.0-18.0-0.23","66e0d867f745183388c72031","67619bf32066d179f8b4b1ec","67894f336c17c953e4726a36","passed","","","","","","","","","","","","","","","","","ballFalling","500","510.8711431702997","369.03","8","fallScene","false","","","","","48","",""
"","","","","","html-keyboard-response","175","450350","0.0-18.0-1.23","66e0d867f745183388c72031","67619bf32066d179f8b4b1ec","67894f336c17c953e4726a36","passed","","1561","","","","","","","","","","","","","","j","yesOrNo","","","","8","","","gt","3000","","","48","510.8711431702997","369.03"
"","","","","","html-keyboard-response","176","452235","0.0-19.0","66e0d867f745183388c72031","67619bf32066d179f8b4b1ec","67894f336c17c953e4726a36","passed","","1884","","","","","","","","","","","","","<p><span style=""font-size:40px;"">BLOCK 3</span></p><p><span style=""font-size:25px;"">You have <strong>1 second(s)</strong> to respond to the following trials.</span><br></p><p></p> <!-- Blank line -->
                <p id=""blinking-text"" style=""font-weight; animation: blink 2s infinite;"">Press Space to continue</p>
                <style>
                    @keyframes blink {
                        50% {
                            opacity: 0;
                        }
                    }
                </style></p>"," ","","","","","","","","","","","","","",""
"","","","","","html-keyboard-response","177","453733","0.0-20.0-0.0","66e0d867f745183388c72031","67619bf32066d179f8b4b1ec","67894f336c17c953e4726a36","passed","","","","","","","","","","","","","","","","","ballFalling","604.4000000000001","667.6211431702998","201.78","9","fallScene","false","","","","","49","",""
"","","","","","html-keyboard-response","178","454238","0.0-20.0-1.0","66e0d867f745183388c72031","67619bf32066d179f8b4b1ec","67894f336c17c953e4726a36","passed","","504","","","","","","","","","","","","","","j","yesOrNo","","","","9","","","mid","1000","","","49","605.4000000000001","300"
"","","","","","html-keyboard-response","179","455797","0.0-20.0-0.1","66e0d867f745183388c72031","67619bf32066d179f8b4b1ec","67894f336c17c953e4726a36","passed","","","","","","","","","","","","","","","","","ballFalling","322.3","356.42114317029973","357.87","4","fallScene","false","","","","","50","",""
"","","","","","html-keyboard-response","180","456437","0.0-20.0-1.1","66e0d867f745183388c72031","67619bf32066d179f8b4b1ec","67894f336c17c953e4726a36","passed","","638","","","","","","","","","","","","","","f","yesOrNo","","","","4","","","gt","1000","","","50","356.42114317029973","357.87"
"","","","","","html-keyboard-response","181","457995","0.0-20.0-0.2","66e0d867f745183388c72031","67619bf32066d179f8b4b1ec","67894f336c17c953e4726a36","passed","","","","","","","","","","","","","","","","","ballFalling","604.4000000000001","650.0211431702996","404.58000000000004","11","fallScene","true","","","","","51","",""
"","","","","","html-keyboard-response","182","458640","0.0-20.0-1.2","66e0d867f745183388c72031","67619bf32066d179f8b4b1ec","67894f336c17c953e4726a36","passed","","643","","","","","","","","","","","","","","j","yesOrNo","","","","11","","","mid","1000","","","51","605.4000000000001","300"
"","","","","","html-keyboard-response","183","460193","0.0-20.0-0.3","66e0d867f745183388c72031","67619bf32066d179f8b4b1ec","67894f336c17c953e4726a36","passed","","","","","","","","","","","","","","","","","ballFalling","604.4000000000001","575.4211431702997","266.76","12","fallScene","true","","","","","52","",""
"","","","","","html-keyboard-response","184","460710","0.0-20.0-1.3","66e0d867f745183388c72031","67619bf32066d179f8b4b1ec","67894f336c17c953e4726a36","passed","","515","","","","","","","","","","","","","","f","yesOrNo","","","","12","","","mid","1000","","","52","536.4288568297004","300"
"","","","","","html-keyboard-response","185","462275","0.0-20.0-0.4","66e0d867f745183388c72031","67619bf32066d179f8b4b1ec","67894f336c17c953e4726a36","passed","","","","","","","","","","","","","","","","","ballFalling","604.4000000000001","650.0211431702996","404.58000000000004","11","fallScene","false","","","","","53","",""
"","","","","","html-keyboard-response","186","463042","0.0-20.0-1.4","66e0d867f745183388c72031","67619bf32066d179f8b4b1ec","67894f336c17c953e4726a36","passed","","764","","","","","","","","","","","","","","j","yesOrNo","","","","11","","","gt","1000","","","53","650.0211431702996","404.58"
"","","","","","html-keyboard-response","187","465055","0.0-20.0-0.5","66e0d867f745183388c72031","67619bf32066d179f8b4b1ec","67894f336c17c953e4726a36","passed","","","","","","","","","","","","","","","","","ballFalling","604.4000000000001","596.8711431702998","394.5","10","fallScene","true","","","","","54","",""
"","","","","","html-keyboard-response","188","465920","0.0-20.0-1.5","66e0d867f745183388c72031","67619bf32066d179f8b4b1ec","67894f336c17c953e4726a36","passed","","864","","","","","","","","","","","","","","f","yesOrNo","","","","10","","","lp","1000","","","54","603.4000000000001","215.50214355555383"
"","","","","","html-keyboard-response","189","467469","0.0-20.0-0.6","66e0d867f745183388c72031","67619bf32066d179f8b4b1ec","67894f336c17c953e4726a36","passed","","","","","","","","","","","","","","","","","ballFalling","322.3","296.07114317029976","371.46","3","fallScene","false","","","","","55","",""
"","","","","","html-keyboard-response","190","468251","0.0-20.0-1.6","66e0d867f745183388c72031","67619bf32066d179f8b4b1ec","67894f336c17c953e4726a36","passed","","780","","","","","","","","","","","","","","j","yesOrNo","","","","3","","","gt","1000","","","55","296.07114317029976","371.46"
"","","","","","html-keyboard-response","191","470033","0.0-20.0-0.7","66e0d867f745183388c72031","67619bf32066d179f8b4b1ec","67894f336c17c953e4726a36","passed","","","","","","","","","","","","","","","","","ballFalling","322.3","308.07114317029976","253.89","2","fallScene","false","","","","","56","",""
"","","","","","html-keyboard-response","192","470999","0.0-20.0-1.7","66e0d867f745183388c72031","67619bf32066d179f8b4b1ec","67894f336c17c953e4726a36","passed","","965","","","","","","","","","","","","","","j","yesOrNo","","","","2","","","lp","1000","","","56","321.3","151"
"","","","","","html-keyboard-response","193","472581","0.0-20.0-0.8","66e0d867f745183388c72031","67619bf32066d179f8b4b1ec","67894f336c17c953e4726a36","passed","","","","","","","","","","","","","","","","","ballFalling","500","553.4711431702997","282.51","7","fallScene","false","","","","","57","",""
"","","","","","html-keyboard-response","194","473206","0.0-20.0-1.8","66e0d867f745183388c72031","67619bf32066d179f8b4b1ec","67894f336c17c953e4726a36","passed","","623","","","","","","","","","","","","","","f","yesOrNo","","","","7","","","gt","1000","","","57","553.4711431702997","282.51"
"","","","","","html-keyboard-response","195","475211","0.0-20.0-0.9","66e0d867f745183388c72031","67619bf32066d179f8b4b1ec","67894f336c17c953e4726a36","passed","","","","","","","","","","","","","","","","","ballFalling","604.4000000000001","596.8711431702998","394.5","10","fallScene","false","","","","","58","",""
"","","","","","html-keyboard-response","196","476049","0.0-20.0-1.9","66e0d867f745183388c72031","67619bf32066d179f8b4b1ec","67894f336c17c953e4726a36","passed","","836","","","","","","","","","","","","","","f","yesOrNo","","","","10","","","mid","1000","","","58","536.4288568297004","300"
"","","","","","html-keyboard-response","197","477609","0.0-20.0-0.10","66e0d867f745183388c72031","67619bf32066d179f8b4b1ec","67894f336c17c953e4726a36","passed","","","","","","","","","","","","","","","","","ballFalling","604.4000000000001","650.0211431702996","404.58000000000004","11","fallScene","true","","","","","59","",""
"","","","","","html-keyboard-response","198","478406","0.0-20.0-1.10","66e0d867f745183388c72031","67619bf32066d179f8b4b1ec","67894f336c17c953e4726a36","passed","","795","","","","","","","","","","","","","","f","yesOrNo","","","","11","","","gt","1000","","","59","650.0211431702996","404.58"
"","","","","","html-keyboard-response","199","479957","0.0-20.0-0.11","66e0d867f745183388c72031","67619bf32066d179f8b4b1ec","67894f336c17c953e4726a36","passed","","","","","","","","","","","","","","","","","ballFalling","604.4000000000001","575.4211431702997","266.76","12","fallScene","false","","","","","60","",""
"","","","","","html-keyboard-response","200","480554","0.0-20.0-1.11","66e0d867f745183388c72031","67619bf32066d179f8b4b1ec","67894f336c17c953e4726a36","passed","","595","","","","","","","","","","","","","","j","yesOrNo","","","","12","","","mid","1000","","","60","536.4288568297004","300"
"","","","","","html-keyboard-response","201","482105","0.0-20.0-0.12","66e0d867f745183388c72031","67619bf32066d179f8b4b1ec","67894f336c17c953e4726a36","passed","","","","","","","","","","","","","","","","","ballFalling","322.3","296.07114317029976","371.46","3","fallScene","false","","","","","61","",""
"","","","","","html-keyboard-response","202","482797","0.0-20.0-1.12","66e0d867f745183388c72031","67619bf32066d179f8b4b1ec","67894f336c17c953e4726a36","passed","","690","","","","","","","","","","","","","","j","yesOrNo","","","","3","","","lp","1000","","","61","321.3","287.3327096511259"
"","","","","","html-keyboard-response","203","484352","0.0-20.0-0.13","66e0d867f745183388c72031","67619bf32066d179f8b4b1ec","67894f336c17c953e4726a36","passed","","","","","","","","","","","","","","","","","ballFalling","322.3","356.42114317029973","357.87","4","fallScene","false","","","","","62","",""
"","","","","","html-keyboard-response","204","484996","0.0-20.0-1.13","66e0d867f745183388c72031","67619bf32066d179f8b4b1ec","67894f336c17c953e4726a36","passed","","642","","","","","","","","","","","","","","j","yesOrNo","","","","4","","","lp","1000","","","62","323.3","297.4070551689986"
"","","","","","html-keyboard-response","205","486484","0.0-20.0-0.14","66e0d867f745183388c72031","67619bf32066d179f8b4b1ec","67894f336c17c953e4726a36","passed","","","","","","","","","","","","","","","","","ballFalling","604.4000000000001","667.6211431702998","201.78","9","fallScene","false","","","","","63","",""
"","","","","","html-keyboard-response","206","487286","0.0-20.0-1.14","66e0d867f745183388c72031","67619bf32066d179f8b4b1ec","67894f336c17c953e4726a36","passed","","801","","","","","","","","","","","","","","j","yesOrNo","","","","9","","","mid","1000","","","63","605.4000000000001","300"
"","","","","","html-keyboard-response","207","489297","0.0-20.0-0.15","66e0d867f745183388c72031","67619bf32066d179f8b4b1ec","67894f336c17c953e4726a36","passed","","","","","","","","","","","","","","","","","ballFalling","604.4000000000001","596.8711431702998","394.5","10","fallScene","true","","","","","64","",""
"","","","","","html-keyboard-response","208","490040","0.0-20.0-1.15","66e0d867f745183388c72031","67619bf32066d179f8b4b1ec","67894f336c17c953e4726a36","passed","","741","","","","","","","","","","","","","","f","yesOrNo","","","","10","","","gt","1000","","","64","596.8711431702998","394.5"
"","","","","","html-keyboard-response","209","491595","0.0-20.0-0.16","66e0d867f745183388c72031","67619bf32066d179f8b4b1ec","67894f336c17c953e4726a36","passed","","","","","","","","","","","","","","","","","ballFalling","500","453.67114317029973","210.33","5","fallScene","false","","","","","65","",""
"","","","","","html-keyboard-response","210","492347","0.0-20.0-1.16","66e0d867f745183388c72031","67619bf32066d179f8b4b1ec","67894f336c17c953e4726a36","passed","","750","","","","","","","","","","","","","","j","yesOrNo","","","","5","","","gt","1000","","","65","453.6711431702998","210.33"
"","","","","","html-keyboard-response","211","494360","0.0-20.0-0.17","66e0d867f745183388c72031","67619bf32066d179f8b4b1ec","67894f336c17c953e4726a36","passed","","","","","","","","","","","","","","","","","ballFalling","500","510.8711431702997","369.03","8","fallScene","true","","","","","66","",""
"","","","","","html-keyboard-response","212","495280","0.0-20.0-1.17","66e0d867f745183388c72031","67619bf32066d179f8b4b1ec","67894f336c17c953e4726a36","passed","","918","","","","","","","","","","","","","","f","yesOrNo","","","","8","","","lp","1000","","","66","501","151"
"","","","","","html-keyboard-response","213","496840","0.0-20.0-0.18","66e0d867f745183388c72031","67619bf32066d179f8b4b1ec","67894f336c17c953e4726a36","passed","","","","","","","","","","","","","","","","","ballFalling","322.3","379.3711431702997","245.25","1","fallScene","false","","","","","67","",""
"","","","","","html-keyboard-response","214","497324","0.0-20.0-1.18","66e0d867f745183388c72031","67619bf32066d179f8b4b1ec","67894f336c17c953e4726a36","passed","","482","","","","","","","","","","","","","","j","yesOrNo","","","","1","","","lp","1000","","","67","323.3","217.74551669457017"
"","","","","","html-keyboard-response","215","498987","0.0-20.0-0.19","66e0d867f745183388c72031","67619bf32066d179f8b4b1ec","67894f336c17c953e4726a36","passed","","","","","","","","","","","","","","","","","ballFalling","500","479.92114317029973","330.87","6","fallScene","true","","","","","68","",""
"","","","","","html-keyboard-response","216","499719","0.0-20.0-1.19","66e0d867f745183388c72031","67619bf32066d179f8b4b1ec","67894f336c17c953e4726a36","passed","","730","","","","","","","","","","","","","","j","yesOrNo","","","","6","","","gt","1000","","","68","479.9211431702998","330.87"
"","","","","","html-keyboard-response","217","501270","0.0-20.0-0.20","66e0d867f745183388c72031","67619bf32066d179f8b4b1ec","67894f336c17c953e4726a36","passed","","","","","","","","","","","","","","","","","ballFalling","322.3","379.3711431702997","245.25","1","fallScene","false","","","","","69","",""
"","","","","","html-keyboard-response","218","502139","0.0-20.0-1.20","66e0d867f745183388c72031","67619bf32066d179f8b4b1ec","67894f336c17c953e4726a36","passed","","868","","","","","","","","","","","","","","j","yesOrNo","","","","1","","","gt","1000","","","69","379.3711431702997","245.25"
"","","","","","html-keyboard-response","219","503700","0.0-20.0-0.21","66e0d867f745183388c72031","67619bf32066d179f8b4b1ec","67894f336c17c953e4726a36","passed","","","","","","","","","","","","","","","","","ballFalling","322.3","296.07114317029976","371.46","3","fallScene","true","","","","","70","",""
"","","","","","html-keyboard-response","220","504683","0.0-20.0-1.21","66e0d867f745183388c72031","67619bf32066d179f8b4b1ec","67894f336c17c953e4726a36","passed","","981","","","","","","","","","","","","","","f","yesOrNo","","","","3","","","lp","1000","","","70","321.3","287.3327096511259"
"","","","","","html-keyboard-response","221","506247","0.0-20.0-0.22","66e0d867f745183388c72031","67619bf32066d179f8b4b1ec","67894f336c17c953e4726a36","passed","","","","","","","","","","","","","","","","","ballFalling","500","453.67114317029973","210.33","5","fallScene","true","","","","","71","",""
"","","","","","html-keyboard-response","222","506794","0.0-20.0-1.22","66e0d867f745183388c72031","67619bf32066d179f8b4b1ec","67894f336c17c953e4726a36","passed","","545","","","","","","","","","","","","","","j","yesOrNo","","","","5","","","mid","1000","","","71","499","300"
"","","","","","html-keyboard-response","223","508578","0.0-20.0-0.23","66e0d867f745183388c72031","67619bf32066d179f8b4b1ec","67894f336c17c953e4726a36","passed","","","","","","","","","","","","","","","","","ballFalling","322.3","308.07114317029976","253.89","2","fallScene","false","","","","","72","",""
"","","","","","html-keyboard-response","224","509138","0.0-20.0-1.23","66e0d867f745183388c72031","67619bf32066d179f8b4b1ec","67894f336c17c953e4726a36","passed","","557","","","","","","","","","","","","","","j","yesOrNo","","","","2","","","gt","1000","","","72","308.07114317029976","253.89"
"","","","","","html-keyboard-response","225","510756","0.0-21.0","66e0d867f745183388c72031","67619bf32066d179f8b4b1ec","67894f336c17c953e4726a36","passed","","1618","","","","","","","","","","","","","<p><span style=""font-size:40px;"">BLOCK 4</span></p><p><span style=""font-size:25px;"">You have <strong>1 second(s)</strong> to respond to the following trials.</span><br></p><p></p> <!-- Blank line -->
                <p id=""blinking-text"" style=""font-weight; animation: blink 2s infinite;"">Press Space to continue</p>
                <style>
                    @keyframes blink {
                        50% {
                            opacity: 0;
                        }
                    }
                </style></p>"," ","","","","","","","","","","","","","",""
"","","","","","html-keyboard-response","226","512308","0.0-22.0-0.0","66e0d867f745183388c72031","67619bf32066d179f8b4b1ec","67894f336c17c953e4726a36","passed","","","","","","","","","","","","","","","","","ballFalling","604.4000000000001","650.0211431702996","404.58000000000004","11","fallScene","true","","","","","73","",""
"","","","","","html-keyboard-response","227","513104","0.0-22.0-1.0","66e0d867f745183388c72031","67619bf32066d179f8b4b1ec","67894f336c17c953e4726a36","passed","","794","","","","","","","","","","","","","","f","yesOrNo","","","","11","","","mid","1000","","","73","605.4000000000001","300"
"","","","","","html-keyboard-response","228","515105","0.0-22.0-0.1","66e0d867f745183388c72031","67619bf32066d179f8b4b1ec","67894f336c17c953e4726a36","passed","","","","","","","","","","","","","","","","","ballFalling","500","510.8711431702997","369.03","8","fallScene","true","","","","","74","",""
"","","","","","html-keyboard-response","229","515965","0.0-22.0-1.1","66e0d867f745183388c72031","67619bf32066d179f8b4b1ec","67894f336c17c953e4726a36","passed","","858","","","","","","","","","","","","","","f","yesOrNo","","","","8","","","lp","1000","","","74","501","151"
"","","","","","html-keyboard-response","230","517520","0.0-22.0-0.2","66e0d867f745183388c72031","67619bf32066d179f8b4b1ec","67894f336c17c953e4726a36","passed","","","","","","","","","","","","","","","","","ballFalling","604.4000000000001","575.4211431702997","266.76","12","fallScene","true","","","","","75","",""
"","","","","","html-keyboard-response","231","518305","0.0-22.0-1.2","66e0d867f745183388c72031","67619bf32066d179f8b4b1ec","67894f336c17c953e4726a36","passed","","783","","","","","","","","","","","","","","j","yesOrNo","","","","12","","","lp","1000","","","75","603.4000000000001","151"
"","","","","","html-keyboard-response","232","519868","0.0-22.0-0.3","66e0d867f745183388c72031","67619bf32066d179f8b4b1ec","67894f336c17c953e4726a36","passed","","","","","","","","","","","","","","","","","ballFalling","322.3","356.42114317029973","357.87","4","fallScene","true","","","","","76","",""
"","","","","","html-keyboard-response","233","520372","0.0-22.0-1.3","66e0d867f745183388c72031","67619bf32066d179f8b4b1ec","67894f336c17c953e4726a36","passed","","502","","","","","","","","","","","","","","j","yesOrNo","","","","4","","","mid","1000","","","76","390.27114317029975","300"
"","","","","","html-keyboard-response","234","521933","0.0-22.0-0.4","66e0d867f745183388c72031","67619bf32066d179f8b4b1ec","67894f336c17c953e4726a36","passed","","","","","","","","","","","","","","","","","ballFalling","322.3","296.07114317029976","371.46","3","fallScene","false","","","","","77","",""
"","","","","","html-keyboard-response","235","522471","0.0-22.0-1.4","66e0d867f745183388c72031","67619bf32066d179f8b4b1ec","67894f336c17c953e4726a36","passed","","537","","","","","","","","","","","","","","j","yesOrNo","","","","3","","","mid","1000","","","77","321.3","300"
"","","","","","html-keyboard-response","236","524130","0.0-22.0-0.5","66e0d867f745183388c72031","67619bf32066d179f8b4b1ec","67894f336c17c953e4726a36","passed","","","","","","","","","","","","","","","","","ballFalling","500","479.92114317029973","330.87","6","fallScene","true","","","","","78","",""
"","","","","","html-keyboard-response","237","524963","0.0-22.0-1.5","66e0d867f745183388c72031","67619bf32066d179f8b4b1ec","67894f336c17c953e4726a36","passed","","831","","","","","","","","","","","","","","f","yesOrNo","","","","6","","","lp","1000","","","78","499","189.92909825697632"
"","","","","","html-keyboard-response","238","526527","0.0-22.0-0.6","66e0d867f745183388c72031","67619bf32066d179f8b4b1ec","67894f336c17c953e4726a36","passed","","","","","","","","","","","","","","","","","ballFalling","500","453.67114317029973","210.33","5","fallScene","false","","","","","79","",""
"","","","","","html-keyboard-response","239","527118","0.0-22.0-1.6","66e0d867f745183388c72031","67619bf32066d179f8b4b1ec","67894f336c17c953e4726a36","passed","","589","","","","","","","","","","","","","","f","yesOrNo","","","","5","","","lp","1000","","","79","499","151"
"","","","","","html-keyboard-response","240","528676","0.0-22.0-0.7","66e0d867f745183388c72031","67619bf32066d179f8b4b1ec","67894f336c17c953e4726a36","passed","","","","","","","","","","","","","","","","","ballFalling","604.4000000000001","575.4211431702997","266.76","12","fallScene","false","","","","","80","",""
"","","","","","html-keyboard-response","241","529165","0.0-22.0-1.7","66e0d867f745183388c72031","67619bf32066d179f8b4b1ec","67894f336c17c953e4726a36","passed","","488","","","","","","","","","","","","","","j","yesOrNo","","","","12","","","gt","1000","","","80","575.4211431702997","266.76"
"","","","","","html-keyboard-response","242","530723","0.0-22.0-0.8","66e0d867f745183388c72031","67619bf32066d179f8b4b1ec","67894f336c17c953e4726a36","passed","","","","","","","","","","","","","","","","","ballFalling","500","453.67114317029973","210.33","5","fallScene","true","","","","","81","",""
"","","","","","html-keyboard-response","243","531440","0.0-22.0-1.8","66e0d867f745183388c72031","67619bf32066d179f8b4b1ec","67894f336c17c953e4726a36","passed","","715","","","","","","","","","","","","","","j","yesOrNo","","","","5","","","gt","1000","","","81","453.6711431702998","210.33"
"","","","","","html-keyboard-response","244","533105","0.0-22.0-0.9","66e0d867f745183388c72031","67619bf32066d179f8b4b1ec","67894f336c17c953e4726a36","passed","","","","","","","","","","","","","","","","","ballFalling","500","479.92114317029973","330.87","6","fallScene","false","","","","","82","",""
"","","","","","html-keyboard-response","245","533869","0.0-22.0-1.9","66e0d867f745183388c72031","67619bf32066d179f8b4b1ec","67894f336c17c953e4726a36","passed","","762","","","","","","","","","","","","","","j","yesOrNo","","","","6","","","lp","1000","","","82","499","189.92909825697632"
"","","","","","html-keyboard-response","246","535419","0.0-22.0-0.10","66e0d867f745183388c72031","67619bf32066d179f8b4b1ec","67894f336c17c953e4726a36","passed","","","","","","","","","","","","","","","","","ballFalling","500","453.67114317029973","210.33","5","fallScene","true","","","","","83","",""
"","","","","","html-keyboard-response","247","536079","0.0-22.0-1.10","66e0d867f745183388c72031","67619bf32066d179f8b4b1ec","67894f336c17c953e4726a36","passed","","658","","","","","","","","","","","","","","f","yesOrNo","","","","5","","","mid","1000","","","83","499","300"
"","","","","","html-keyboard-response","248","537650","0.0-22.0-0.11","66e0d867f745183388c72031","67619bf32066d179f8b4b1ec","67894f336c17c953e4726a36","passed","","","","","","","","","","","","","","","","","ballFalling","500","553.4711431702997","282.51","7","fallScene","false","","","","","84","",""
"","","","","","html-keyboard-response","249","538274","0.0-22.0-1.11","66e0d867f745183388c72031","67619bf32066d179f8b4b1ec","67894f336c17c953e4726a36","passed","","622","","","","","","","","","","","","","","j","yesOrNo","","","","7","","","mid","1000","","","84","501","300"
"","","","","","html-keyboard-response","250","540281","0.0-22.0-0.12","66e0d867f745183388c72031","67619bf32066d179f8b4b1ec","67894f336c17c953e4726a36","passed","","","","","","","","","","","","","","","","","ballFalling","500","510.8711431702997","369.03","8","fallScene","true","","","","","85","",""
"","","","","","html-keyboard-response","251","541222","0.0-22.0-1.12","66e0d867f745183388c72031","67619bf32066d179f8b4b1ec","67894f336c17c953e4726a36","passed","","940","","","","","","","","","","","","","","j","yesOrNo","","","","8","","","gt","1000","","","85","510.8711431702997","369.03"
"","","","","","html-keyboard-response","252","543228","0.0-22.0-0.13","66e0d867f745183388c72031","67619bf32066d179f8b4b1ec","67894f336c17c953e4726a36","passed","","","","","","","","","","","","","","","","","ballFalling","500","510.8711431702997","369.03","8","fallScene","false","","","","","86","",""
"","","","","","html-keyboard-response","253","543967","0.0-22.0-1.13","66e0d867f745183388c72031","67619bf32066d179f8b4b1ec","67894f336c17c953e4726a36","passed","","737","","","","","","","","","","","","","","j","yesOrNo","","","","8","","","mid","1000","","","86","501","300"
"","","","","","html-keyboard-response","254","545459","0.0-22.0-0.14","66e0d867f745183388c72031","67619bf32066d179f8b4b1ec","67894f336c17c953e4726a36","passed","","","","","","","","","","","","","","","","","ballFalling","604.4000000000001","667.6211431702998","201.78","9","fallScene","false","","","","","87","",""
"","","","","","html-keyboard-response","255","546439","0.0-22.0-1.14","66e0d867f745183388c72031","67619bf32066d179f8b4b1ec","67894f336c17c953e4726a36","passed","","978","","","","","","","","","","","","","","f","yesOrNo","","","","9","","","lp","1000","","","87","605.4000000000001","151"
"","","","","","html-keyboard-response","256","547923","0.0-22.0-0.15","66e0d867f745183388c72031","67619bf32066d179f8b4b1ec","67894f336c17c953e4726a36","passed","","","","","","","","","","","","","","","","","ballFalling","604.4000000000001","667.6211431702998","201.78","9","fallScene","true","","","","","88","",""
"","","","","","html-keyboard-response","257","548316","0.0-22.0-1.15","66e0d867f745183388c72031","67619bf32066d179f8b4b1ec","67894f336c17c953e4726a36","passed","","392","","","","","","","","","","","","","","f","yesOrNo","","","","9","","","lp","1000","","","88","605.4000000000001","151"
"","","","","","html-keyboard-response","258","549888","0.0-22.0-0.16","66e0d867f745183388c72031","67619bf32066d179f8b4b1ec","67894f336c17c953e4726a36","passed","","","","","","","","","","","","","","","","","ballFalling","500","553.4711431702997","282.51","7","fallScene","true","","","","","89","",""
"","","","","","html-keyboard-response","259","550552","0.0-22.0-1.16","66e0d867f745183388c72031","67619bf32066d179f8b4b1ec","67894f336c17c953e4726a36","passed","","662","","","","","","","","","","","","","","j","yesOrNo","","","","7","","","mid","1000","","","89","501","300"
"","","","","","html-keyboard-response","260","552103","0.0-22.0-0.17","66e0d867f745183388c72031","67619bf32066d179f8b4b1ec","67894f336c17c953e4726a36","passed","","","","","","","","","","","","","","","","","ballFalling","322.3","356.42114317029973","357.87","4","fallScene","true","","","","","90","",""
"","","","","","html-keyboard-response","261","552991","0.0-22.0-1.17","66e0d867f745183388c72031","67619bf32066d179f8b4b1ec","67894f336c17c953e4726a36","passed","","887","","","","","","","","","","","","","","f","yesOrNo","","","","4","","","mid","1000","","","90","390.27114317029975","300"
"","","","","","html-keyboard-response","262","554783","0.0-22.0-0.18","66e0d867f745183388c72031","67619bf32066d179f8b4b1ec","67894f336c17c953e4726a36","passed","","","","","","","","","","","","","","","","","ballFalling","322.3","308.07114317029976","253.89","2","fallScene","false","","","","","91","",""
"","","","","","html-keyboard-response","263","555259","0.0-22.0-1.18","66e0d867f745183388c72031","67619bf32066d179f8b4b1ec","67894f336c17c953e4726a36","passed","","474","","","","","","","","","","","","","","f","yesOrNo","","","","2","","","gt","1000","","","91","308.07114317029976","253.89"
"","","","","","html-keyboard-response","264","556914","0.0-22.0-0.19","66e0d867f745183388c72031","67619bf32066d179f8b4b1ec","67894f336c17c953e4726a36","passed","","","","","","","","","","","","","","","","","ballFalling","500","479.92114317029973","330.87","6","fallScene","true","","","","","92","",""
"","","","","","html-keyboard-response","265","557697","0.0-22.0-1.19","66e0d867f745183388c72031","67619bf32066d179f8b4b1ec","67894f336c17c953e4726a36","passed","","779","","","","","","","","","","","","","","f","yesOrNo","","","","6","","","mid","1000","","","92","499","300"
"","","","","","html-keyboard-response","266","559262","0.0-22.0-0.20","66e0d867f745183388c72031","67619bf32066d179f8b4b1ec","67894f336c17c953e4726a36","passed","","","","","","","","","","","","","","","","","ballFalling","322.3","356.42114317029973","357.87","4","fallScene","true","","","","","93","",""
"","","","","","html-keyboard-response","267","559851","0.0-22.0-1.20","66e0d867f745183388c72031","67619bf32066d179f8b4b1ec","67894f336c17c953e4726a36","passed","","588","","","","","","","","","","","","","","j","yesOrNo","","","","4","","","gt","1000","","","93","356.42114317029973","357.87"
"","","","","","html-keyboard-response","268","561509","0.0-22.0-0.21","66e0d867f745183388c72031","67619bf32066d179f8b4b1ec","67894f336c17c953e4726a36","passed","","","","","","","","","","","","","","","","","ballFalling","500","479.92114317029973","330.87","6","fallScene","true","","","","","94","",""
"","","","","","html-keyboard-response","269","562263","0.0-22.0-1.21","66e0d867f745183388c72031","67619bf32066d179f8b4b1ec","67894f336c17c953e4726a36","passed","","751","","","","","","","","","","","","","","f","yesOrNo","","","","6","","","gt","1000","","","94","479.9211431702998","330.87"
"","","","","","html-keyboard-response","270","563841","0.0-22.0-0.22","66e0d867f745183388c72031","67619bf32066d179f8b4b1ec","67894f336c17c953e4726a36","passed","","","","","","","","","","","","","","","","","ballFalling","500","553.4711431702997","282.51","7","fallScene","true","","","","","95","",""
"","","","","","html-keyboard-response","271","564720","0.0-22.0-1.22","66e0d867f745183388c72031","67619bf32066d179f8b4b1ec","67894f336c17c953e4726a36","passed","","877","","","","","","","","","","","","","","f","yesOrNo","","","","7","","","gt","1000","","","95","553.4711431702997","282.51"
"","","","","","html-keyboard-response","272","566271","0.0-22.0-0.23","66e0d867f745183388c72031","67619bf32066d179f8b4b1ec","67894f336c17c953e4726a36","passed","","","","","","","","","","","","","","","","","ballFalling","322.3","379.3711431702997","245.25","1","fallScene","true","","","","","96","",""
"","","","","","html-keyboard-response","273","566598","0.0-22.0-1.23","66e0d867f745183388c72031","67619bf32066d179f8b4b1ec","67894f336c17c953e4726a36","passed","","324","","","","","","","","","","","","","","j","yesOrNo","","","","1","","","gt","1000","","","96","379.3711431702997","245.25"
"","","","","","html-keyboard-response","274","575125","0.0-23.0","66e0d867f745183388c72031","67619bf32066d179f8b4b1ec","67894f336c17c953e4726a36","passed","","8525","","","","","","","","","","","","","<p><span style=""font-size:40px;"">BLOCK 5</span></p><p><span style=""font-size:25px;"">You have <strong>3 second(s)</strong> to respond to the following trials.</span><br></p><p></p> <!-- Blank line -->
                <p id=""blinking-text"" style=""font-weight; animation: blink 2s infinite;"">Press Space to continue</p>
                <style>
                    @keyframes blink {
                        50% {
                            opacity: 0;
                        }
                    }
                </style></p>"," ","","","","","","","","","","","","","",""
"","","","","","html-keyboard-response","275","577128","0.0-24.0-0.0","66e0d867f745183388c72031","67619bf32066d179f8b4b1ec","67894f336c17c953e4726a36","passed","","","","","","","","","","","","","","","","","ballFalling","500","510.8711431702997","369.03","8","fallScene","false","","","","","97","",""
"","","","","","html-keyboard-response","276","578091","0.0-24.0-1.0","66e0d867f745183388c72031","67619bf32066d179f8b4b1ec","67894f336c17c953e4726a36","passed","","961","","","","","","","","","","","","","","f","yesOrNo","","","","8","","","lp","3000","","","97","501","151"
"","","","","","html-keyboard-response","277","579576","0.0-24.0-0.1","66e0d867f745183388c72031","67619bf32066d179f8b4b1ec","67894f336c17c953e4726a36","passed","","","","","","","","","","","","","","","","","ballFalling","604.4000000000001","667.6211431702998","201.78","9","fallScene","true","","","","","98","",""
"","","","","","html-keyboard-response","278","580387","0.0-24.0-1.1","66e0d867f745183388c72031","67619bf32066d179f8b4b1ec","67894f336c17c953e4726a36","passed","","809","","","","","","","","","","","","","","j","yesOrNo","","","","9","","","mid","3000","","","98","605.4000000000001","300"
"","","","","","html-keyboard-response","279","582173","0.0-24.0-0.2","66e0d867f745183388c72031","67619bf32066d179f8b4b1ec","67894f336c17c953e4726a36","passed","","","","","","","","","","","","","","","","","ballFalling","322.3","308.07114317029976","253.89","2","fallScene","false","","","","","99","",""
"","","","","","html-keyboard-response","280","582951","0.0-24.0-1.2","66e0d867f745183388c72031","67619bf32066d179f8b4b1ec","67894f336c17c953e4726a36","passed","","776","","","","","","","","","","","","","","j","yesOrNo","","","","2","","","gt","3000","","","99","308.07114317029976","253.89"
"","","","","","html-keyboard-response","281","584604","0.0-24.0-0.3","66e0d867f745183388c72031","67619bf32066d179f8b4b1ec","67894f336c17c953e4726a36","passed","","","","","","","","","","","","","","","","","ballFalling","500","479.92114317029973","330.87","6","fallScene","false","","","","","100","",""
"","","","","","html-keyboard-response","282","585379","0.0-24.0-1.3","66e0d867f745183388c72031","67619bf32066d179f8b4b1ec","67894f336c17c953e4726a36","passed","","774","","","","","","","","","","","","","","f","yesOrNo","","","","6","","","gt","3000","","","100","479.9211431702998","330.87"
"","","","","","html-keyboard-response","283","587168","0.0-24.0-0.4","66e0d867f745183388c72031","67619bf32066d179f8b4b1ec","67894f336c17c953e4726a36","passed","","","","","","","","","","","","","","","","","ballFalling","322.3","308.07114317029976","253.89","2","fallScene","true","","","","","101","",""
"","","","","","html-keyboard-response","284","587960","0.0-24.0-1.4","66e0d867f745183388c72031","67619bf32066d179f8b4b1ec","67894f336c17c953e4726a36","passed","","790","","","","","","","","","","","","","","j","yesOrNo","","","","2","","","mid","3000","","","101","321.3","300"
"","","","","","html-keyboard-response","285","589515","0.0-24.0-0.5","66e0d867f745183388c72031","67619bf32066d179f8b4b1ec","67894f336c17c953e4726a36","passed","","","","","","","","","","","","","","","","","ballFalling","604.4000000000001","650.0211431702996","404.58000000000004","11","fallScene","false","","","","","102","",""
"","","","","","html-keyboard-response","286","590271","0.0-24.0-1.5","66e0d867f745183388c72031","67619bf32066d179f8b4b1ec","67894f336c17c953e4726a36","passed","","754","","","","","","","","","","","","","","f","yesOrNo","","","","11","","","gt","3000","","","102","650.0211431702996","404.58"
"","","","","","html-keyboard-response","287","591830","0.0-24.0-0.6","66e0d867f745183388c72031","67619bf32066d179f8b4b1ec","67894f336c17c953e4726a36","passed","","","","","","","","","","","","","","","","","ballFalling","322.3","356.42114317029973","357.87","4","fallScene","false","","","","","103","",""
"","","","","","html-keyboard-response","288","592347","0.0-24.0-1.6","66e0d867f745183388c72031","67619bf32066d179f8b4b1ec","67894f336c17c953e4726a36","passed","","516","","","","","","","","","","","","","","j","yesOrNo","","","","4","","","gt","3000","","","103","356.42114317029973","357.87"
"","","","","","html-keyboard-response","289","594361","0.0-24.0-0.7","66e0d867f745183388c72031","67619bf32066d179f8b4b1ec","67894f336c17c953e4726a36","passed","","","","","","","","","","","","","","","","","ballFalling","604.4000000000001","596.8711431702998","394.5","10","fallScene","false","","","","","104","",""
"","","","","","html-keyboard-response","290","595361","0.0-24.0-1.7","66e0d867f745183388c72031","67619bf32066d179f8b4b1ec","67894f336c17c953e4726a36","passed","","998","","","","","","","","","","","","","","f","yesOrNo","","","","10","","","lp","3000","","","104","603.4000000000001","215.50214355555383"
"","","","","","html-keyboard-response","291","597375","0.0-24.0-0.8","66e0d867f745183388c72031","67619bf32066d179f8b4b1ec","67894f336c17c953e4726a36","passed","","","","","","","","","","","","","","","","","ballFalling","500","510.8711431702997","369.03","8","fallScene","false","","","","","105","",""
"","","","","","html-keyboard-response","292","598029","0.0-24.0-1.8","66e0d867f745183388c72031","67619bf32066d179f8b4b1ec","67894f336c17c953e4726a36","passed","","653","","","","","","","","","","","","","","j","yesOrNo","","","","8","","","mid","3000","","","105","501","300"
"","","","","","html-keyboard-response","293","599822","0.0-24.0-0.9","66e0d867f745183388c72031","67619bf32066d179f8b4b1ec","67894f336c17c953e4726a36","passed","","","","","","","","","","","","","","","","","ballFalling","322.3","308.07114317029976","253.89","2","fallScene","true","","","","","106","",""
"","","","","","html-keyboard-response","294","600923","0.0-24.0-1.9","66e0d867f745183388c72031","67619bf32066d179f8b4b1ec","67894f336c17c953e4726a36","passed","","1099","","","","","","","","","","","","","","j","yesOrNo","","","","2","","","mid","3000","","","106","321.3","300"
"","","","","","html-keyboard-response","295","602486","0.0-24.0-0.10","66e0d867f745183388c72031","67619bf32066d179f8b4b1ec","67894f336c17c953e4726a36","passed","","","","","","","","","","","","","","","","","ballFalling","500","453.67114317029973","210.33","5","fallScene","false","","","","","107","",""
"","","","","","html-keyboard-response","296","603136","0.0-24.0-1.10","66e0d867f745183388c72031","67619bf32066d179f8b4b1ec","67894f336c17c953e4726a36","passed","","648","","","","","","","","","","","","","","f","yesOrNo","","","","5","","","lp","3000","","","107","499","151"
"","","","","","html-keyboard-response","297","604634","0.0-24.0-0.11","66e0d867f745183388c72031","67619bf32066d179f8b4b1ec","67894f336c17c953e4726a36","passed","","","","","","","","","","","","","","","","","ballFalling","604.4000000000001","667.6211431702998","201.78","9","fallScene","false","","","","","108","",""
"","","","","","html-keyboard-response","298","606212","0.0-24.0-1.11","66e0d867f745183388c72031","67619bf32066d179f8b4b1ec","67894f336c17c953e4726a36","passed","","1576","","","","","","","","","","","","","","j","yesOrNo","","","","9","","","lp","3000","","","108","605.4000000000001","151"
"","","","","","html-keyboard-response","299","607764","0.0-24.0-0.12","66e0d867f745183388c72031","67619bf32066d179f8b4b1ec","67894f336c17c953e4726a36","passed","","","","","","","","","","","","","","","","","ballFalling","322.3","296.07114317029976","371.46","3","fallScene","false","","","","","109","",""
"","","","","","html-keyboard-response","300","608571","0.0-24.0-1.12","66e0d867f745183388c72031","67619bf32066d179f8b4b1ec","67894f336c17c953e4726a36","passed","","805","","","","","","","","","","","","","","f","yesOrNo","","","","3","","","mid","3000","","","109","321.3","300"
"","","","","","html-keyboard-response","301","610145","0.0-24.0-0.13","66e0d867f745183388c72031","67619bf32066d179f8b4b1ec","67894f336c17c953e4726a36","passed","","","","","","","","","","","","","","","","","ballFalling","500","553.4711431702997","282.51","7","fallScene","false","","","","","110","",""
