"success","timeout","failed_images","failed_audio","failed_video","trial_type","trial_index","time_elapsed","internal_node_id","subject_id","study_id","session_id","practiceTestResult","view_history","rt","width","height","webaudio","browser","browser_version","mobile","os","fullscreen","vsync_rate","webcam","microphone","url","stimulus","response","task","ball_X","obstacle_groundTruth_x","obstacle_groundTruth_y","stimulus_idx","trial_name","flipped","choice","timeLimit","question_order","currentTrial","obstacle_choice_x","obstacle_choice_y"
"true","false","[]","[]","[]","preload","0","53","0.0-0.0","","","","passed","","","","","","","","","","","","","","","","","","","","","","","","","","","","",""
"","","","","","instructions","1","26664","0.0-1.0","","","","passed","[{""page_index"":0,""viewing_time"":26610}]","26611","","","","","","","","","","","","","","","","","","","","","","","","","","",""
"","","","","","browser-check","2","27652","0.0-2.0","","","","passed","","","1430","822","true","chrome","131.0.0","false","Mac OS","true","61.1","true","true","","","","","","","","","","","","","","","",""
"","","","","","external-html","3","74912","0.0-3.0","","","","passed","","47216","","","","","","","","","","","","consent.html","","","","","","","","","","","","","","",""
"true","","","","","fullscreen","4","78290","0.0-4.0","","","","passed","","3076","","","","","","","","","","","","","","","","","","","","","","","","","","",""
"","","","","","browser-check","5","79284","0.0-5.0","","","","passed","","","2133","1200","true","chrome","131.0.0","false","Mac OS","true","60.47","true","true","","","","","","","","","","","","","","","",""
"","","","","","html-keyboard-response","6","81873","0.0-6.0","","","","passed","","2588","","","","","","","","","","","","","<p><b>This experiment requires keyboard input.</b></p> 
        <p><b>To ensure your response will be recorded successfully, please press 'Space' to continue.</b></p>
        <p>If you can't proceed, you won't be able to complete this study.</p>
        <p></p> <!-- Blank line -->
        <p id=""blinking-text"" style=""font-weight; animation: blink 2s infinite;"">Press Space to continue</p>
        <style>
            @keyframes blink {
                50% {
                    opacity: 0;
                }
            }
        </style>"," ","","","","","","","","","","","","",""
"","","","","","html-keyboard-response","7","83896","0.0-7.0","","","","passed","","2022","","","","","","","","","","","","","<p><b>This experiment requires keyboard input.</b></p> 
        <p><b>To ensure your response will be recorded successfully, please press the 'f' key to continue.</b></p>
        <p>If you can't proceed, you won't be able to complete this study.</p>
        <p></p> <!-- Blank line -->
        <p id=""blinking-text"" style=""font-weight; animation: blink 2s infinite;"">Press f to continue</p>
        <style>
            @keyframes blink {
                50% {
                    opacity: 0;
                }
            }
        </style>","f","","","","","","","","","","","","",""
"","","","","","html-keyboard-response","8","85236","0.0-8.0","","","","passed","","1339","","","","","","","","","","","","","<p><b>This experiment requires keyboard input.</b></p> 
        <p><b>To ensure your response will be recorded successfully, please press the 'j' key to continue.</b></p>
        <p>If you can't proceed, you won't be able to complete this study.</p>
        <p></p> <!-- Blank line -->
        <p id=""blinking-text"" style=""font-weight; animation: blink 2s infinite;"">Press j to continue</p>
        <style>
            @keyframes blink {
                50% {
                    opacity: 0;
                }
            }
        </style>","j","","","","","","","","","","","","",""
"","","","","","browser-check","9","86250","0.0-9.0","","","","passed","","","2133","1200","true","chrome","131.0.0","false","Mac OS","true","59.95","true","true","","","","","","","","","","","","","","","",""
"","","","","","survey-text","10","96013","0.0-10.0","","","","passed","","9758","","","","","","","","","","","","","","{""prolificID"":""cindyTestDataPip""}","","","","","","","","","","","","",""
"","","","","","instructions","11","129100","0.0-11.0-0.0-0.0","","","","passed","[{""page_index"":0,""viewing_time"":9401},{""page_index"":1,""viewing_time"":9268},{""page_index"":2,""viewing_time"":6114},{""page_index"":3,""viewing_time"":8303}]","33086","","","","","","","","","","","","","","","","","","","","","","","","","","",""
"","","","","","html-keyboard-response","12","138430","0.0-11.0-0.0-1.0","","","","passed","","8824","","","","","","","","","","","","","<br>Remember! After a ball falls, the screen will disappear, and you'll decide if the proposed position is where the hidden triangle was. <br>You will now practice this by watching a few videos and making decisions.<p>To respond:<br style=""margin-bottom: 5px; text-indent: -20px; padding-left: 20px;"">- Press <b style=""color: #12AD2B;"">J for Yes</b>, if you think the triangle is in the correct position.<br style=""margin-top: 0; text-indent: -20px; padding-left: 20px;"">- Press <b style=""color: orange;"">F for No</b>, if you think the triangle is not in the correct position.</p><p>In this practice round, there is no time limit. Focus on getting comfortable with the task first.<br>Press either J or F to begin your practice trials.</p><img src = ""YesOrNo_instruction.png"" style=""width: 65%;""></img>","j","","","","","","","","","","","","",""
"","","","","","html-keyboard-response","13","140534","0.0-11.0-0.0-2.0-0.0","","","","passed","","","","","","","","","","","","","","","","","ballFalling_prac","660","666","350","3","fallScene","false","","","","","",""
"","","","","","html-keyboard-response","14","142068","0.0-11.0-0.0-2.0-1.0","","","","passed","","1531","","","","","","","","","","","","","","f","yesOrNo_prac_noTimed","","","","3","","","wrong direction","NA","","","",""
"","","","","","html-keyboard-response","15","143650","0.0-11.0-0.0-2.0-0.1","","","","passed","","","","","","","","","","","","","","","","","ballFalling_prac","441","414","302","5","fallScene","true","","","","","",""
"","","","","","html-keyboard-response","16","144989","0.0-11.0-0.0-2.0-1.1","","","","passed","","1334","","","","","","","","","","","","","","j","yesOrNo_prac_noTimed","","","","5","","","close gt","NA","","","",""
"","","","","","html-keyboard-response","17","146550","0.0-11.0-0.0-2.0-0.2","","","","passed","","","","","","","","","","","","","","","","","ballFalling_prac","416","464","296","1","fallScene","false","","","","","",""
"","","","","","html-keyboard-response","18","147623","0.0-11.0-0.0-2.0-1.2","","","","passed","","1072","","","","","","","","","","","","","","j","yesOrNo_prac_noTimed","","","","1","","","gt","NA","","","",""
"","","","","","instructions","19","177749","0.0-11.0-0.0-3.0","","","","passed","[{""page_index"":0,""viewing_time"":20855},{""page_index"":1,""viewing_time"":9270}]","30125","","","","","","","","","","","","","","","","","","","","","","","","","","",""
"","","","","","html-button-response","20","183734","0.0-11.0-0.0-4.0","","","","passed","","5482","","","","","","","","","","","","","<p>To make sure you understood the task, we just have a <b>brief quiz</b> here.</p><p>If you need to review the instructions, click 'Previous'.</p><p>It's important to understand the task to do the study, so you have to pass the quiz to move to the study.</p>","1","","","","","","","","","","","","",""
"","","","","","survey-multi-choice","21","187233","0.0-11.0-1.0-0.0","","","","passed","","3497","","","","","","","","","","","","","","{""generalProcedure"":""Watch a video of a ball falling, some of it behind a gray screen. After each video, decide if the triangle is at the spot where the ball hit the triangle behind the screen. There is time limit for the response.""}","","","","","","","","","","[0]","","",""
"","","","","","survey-multi-choice","22","189816","0.0-11.0-1.0-1.0","","","","passed","","2582","","","","","","","","","","","","","","{""checkBallHitObstacle"":""Yes.""}","","","","","","","","","","[0]","","",""
"","","","","","survey-multi-choice","23","199448","0.0-11.0-1.0-2.0","","","","passed","","9630","","","","","","","","","","","","","","{""checkTriangleVisibility"":""No, the triangle is hidden behind the gray screen.""}","","","","","","","","","","[0]","","",""
"","","","","","survey-multi-choice","24","206180","0.0-11.0-1.0-3.0","","","","passed","","6730","","","","","","","","","","","","","","{""checkTimedResponse"":""Your response will not be recorded, and the trial will move to the next one.""}","","","","","","","","","","[0]","","",""
"","","","","","survey-multi-choice","25","208350","0.0-11.0-1.0-4.0","","","","passed","","2169","","","","","","","","","","","","","","{""checkTimeBlockNotice"":""At the beginning of each block.""}","","","","","","","","","","[0]","","",""
"","","","","","survey-multi-choice","26","217984","0.0-11.0-1.0-5.0","","","","passed","","9632","","","","","","","","","","","","","","{""checkTimeBlockSameness"":""Yes, the time limit is the same for all trials within a block.""}","","","","","","","","","","[0]","","",""
"","","","","","survey-multi-choice","27","232951","0.0-11.0-1.0-6.0","","","","passed","","14965","","","","","","","","","","","","","","{""checkTrianglePrecision"":""No. The proposed purple triangle is not in the correct position because it doesn't match the location of the white triangle exactly.""}","","","","","","","","","","[0]","","",""
"","","","","","instructions","28","264553","0.0-12.0","","","","passed","[{""page_index"":0,""viewing_time"":3429},{""page_index"":1,""viewing_time"":7100},{""page_index"":2,""viewing_time"":13199},{""page_index"":3,""viewing_time"":7873}]","31601","","","","","","","","","","","","","","","","","","","","","","","","","","",""
"","","","","","instructions","29","266563","0.0-13.0-0.0","","","","passed","[{""page_index"":0,""viewing_time"":2009}]","2010","","","","","","","","","","","","","","","","","","","","","","","","","","",""
"","","","","","html-keyboard-response","30","268534","0.0-13.0-1.0","","","","passed","","1970","","","","","","","","","","","","","<p><span style=""font-size:40px;"">Practice BLOCK 1</span></p><p><span style=""font-size:25px;"">You have <strong>3 second(s)</strong> to respond to the following trials.</span><br></p><p id=""blinking-text"" style=""font-weight; animation: blink 2s infinite;"">Press Space to continue</p><style>
                    @keyframes blink {
                        50% {
                            opacity: 0;
                        }
                    }
                </style>"," ","","","","","","","","","","","","",""
"","","","","","html-keyboard-response","31","270101","0.0-13.0-2.0-0.0","","","","passed","","","","","","","","","","","","","","","","","ballFalling_prac","660","610","263","4","fallScene","false","","","","","",""
"","","","","","html-keyboard-response","32","271383","0.0-13.0-2.0-1.0","","","","passed","","1277","","","","","","","","","","","","","","j","yesOrNo_prac","","","","4","","","gt","3000","","","",""
"","","","","","html-keyboard-response","33","272934","0.0-13.0-2.0-0.1","","","","passed","","","","","","","","","","","","","","","","","ballFalling_prac","416","464","296","1","fallScene","false","","","","","",""
"","","","","","html-keyboard-response","34","274815","0.0-13.0-2.0-1.1","","","","passed","","1880","","","","","","","","","","","","","","f","yesOrNo_prac","","","","1","","","far gt","3000","","","",""
"","","","","","html-keyboard-response","35","276368","0.0-13.0-2.0-0.2","","","","passed","","","","","","","","","","","","","","","","","ballFalling_prac","584","536","296","1","fallScene","true","","","","","",""
"","","","","","html-keyboard-response","36","278769","0.0-13.0-2.0-1.2","","","","passed","","2400","","","","","","","","","","","","","","j","yesOrNo_prac","","","","1","","","close gt","3000","","","",""
"","","","","","html-keyboard-response","37","285878","0.0-13.0-3.0","","","","passed","","7108","","","","","","","","","","","","","<p><span style=""font-size:40px;"">Practice BLOCK 2</span></p><p><span style=""font-size:25px;"">You have <strong>1 second(s)</strong> to respond to the following trials.</span><br></p><p id=""blinking-text"" style=""font-weight; animation: blink 2s infinite;"">Press Space to continue</p><style>
                    @keyframes blink {
                        50% {
                            opacity: 0;
                        }
                    }
                </style>"," ","","","","","","","","","","","","",""
"","","","","","html-keyboard-response","38","287434","0.0-13.0-4.0-0.0","","","","passed","","","","","","","","","","","","","","","","","ballFalling_prac","441","500","317","6","fallScene","true","","","","","",""
"","","","","","html-keyboard-response","39","288119","0.0-13.0-4.0-1.0","","","","passed","","680","","","","","","","","","","","","","","j","yesOrNo_prac","","","","6","","","gt","1000","","","",""
"","","","","","html-keyboard-response","40","289701","0.0-13.0-4.0-0.1","","","","passed","","","","","","","","","","","","","","","","","ballFalling_prac","660","610","263","4","fallScene","false","","","","","",""
"","","","","","html-keyboard-response","41","290446","0.0-13.0-4.0-1.1","","","","passed","","741","","","","","","","","","","","","","","f","yesOrNo_prac","","","","4","","","far gt","1000","","","",""
"","","","","","html-keyboard-response","42","292552","0.0-13.0-4.0-0.2","","","","passed","","","","","","","","","","","","","","","","","ballFalling_prac","340","334","350","3","fallScene","true","","","","","",""
"","","","","","html-keyboard-response","43","293434","0.0-13.0-4.0-1.2","","","","passed","","880","","","","","","","","","","","","","","j","yesOrNo_prac","","","","3","","","close gt","1000","","","",""
"","","","","","instructions","44","300283","0.0-13.0-5.0","","","","passed","[{""page_index"":0,""viewing_time"":6846}]","6848","","","","","","","","","","","","","","","","","","","","","","","","","","",""
"","","","","","html-keyboard-response","45","302274","0.0-13.0-6.0","","","","passed","","1990","","","","","","","","","","","","","<p><span style=""font-size:40px;"">Practice Test BLOCK 1</span></p><p><span style=""font-size:25px;"">You have <strong>1 second(s)</strong> to respond to the following trials.</span><br></p><p id=""blinking-text"" style=""font-weight; animation: blink 2s infinite;"">Press Space to continue</p><style>
                    @keyframes blink {
                        50% {
                            opacity: 0;
                        }
                    }
                </style>"," ","","","","","","","","","","","","",""
"","","","","","html-keyboard-response","46","303851","0.0-13.0-7.0-0.0","","","","passed","","","","","","","","","","","","","","","","","ballFalling_prac","559","586","302","5","fallScene","false","","","","","",""
"","","","","","html-keyboard-response","47","304389","0.0-13.0-7.0-1.0","","","","passed","","535","","","","","","","","","","","","","","j","yesOrNo_prac","","","","5","","","gt","1000","","","",""
"","","","","","html-keyboard-response","48","305967","0.0-13.0-7.0-0.1","","","","passed","","","","","","","","","","","","","","","","","ballFalling_prac","340","390","263","4","fallScene","true","","","","","",""
"","","","","","html-keyboard-response","49","306527","0.0-13.0-7.0-1.1","","","","passed","","556","","","","","","","","","","","","","","f","yesOrNo_prac","","","","4","","","far gt","1000","","","",""
"","","","","","html-keyboard-response","50","308085","0.0-13.0-7.0-0.2","","","","passed","","","","","","","","","","","","","","","","","ballFalling_prac","441","500","317","6","fallScene","true","","","","","",""
"","","","","","html-keyboard-response","51","308754","0.0-13.0-7.0-1.2","","","","passed","","666","","","","","","","","","","","","","","j","yesOrNo_prac","","","","6","","","close gt","1000","","","",""
"","","","","","html-keyboard-response","52","312292","0.0-13.0-8.0","","","","passed","","3536","","","","","","","","","","","","","<p><span style=""font-size:40px;"">Practice Test BLOCK 2</span></p><p><span style=""font-size:25px;"">You have <strong>3 second(s)</strong> to respond to the following trials.</span><br></p><p id=""blinking-text"" style=""font-weight; animation: blink 2s infinite;"">Press Space to continue</p><style>
                    @keyframes blink {
                        50% {
                            opacity: 0;
                        }
                    }
                </style>"," ","","","","","","","","","","","","",""
"","","","","","html-keyboard-response","53","313867","0.0-13.0-9.0-0.0","","","","passed","","","","","","","","","","","","","","","","","ballFalling_prac","340","390","263","4","fallScene","true","","","","","",""
"","","","","","html-keyboard-response","54","315420","0.0-13.0-9.0-1.0","","","","passed","","1552","","","","","","","","","","","","","","j","yesOrNo_prac","","","","4","","","close gt","3000","","","",""
"","","","","","html-keyboard-response","55","317001","0.0-13.0-9.0-0.1","","","","passed","","","","","","","","","","","","","","","","","ballFalling_prac","416","365","249","2","fallScene","false","","","","","",""
"","","","","","html-keyboard-response","56","317770","0.0-13.0-9.0-1.1","","","","passed","","764","","","","","","","","","","","","","","j","yesOrNo_prac","","","","2","","","gt","3000","","","",""
"","","","","","html-keyboard-response","57","319335","0.0-13.0-9.0-0.2","","","","passed","","","","","","","","","","","","","","","","","ballFalling_prac","559","586","302","5","fallScene","false","","","","","",""
"","","","","","html-keyboard-response","58","321987","0.0-13.0-9.0-1.2","","","","passed","","2650","","","","","","","","","","","","","","f","yesOrNo_prac","","","","5","","","far gt","3000","","","",""
"","","","","","instructions","59","332481","0.0-14.0","","","","passed","[{""page_index"":0,""viewing_time"":10492}]","10493","","","","","","","","","","","","","","","","","","","","","","","","","","",""
"","","","","","html-keyboard-response","60","334237","0.0-15.0","","","","passed","","1756","","","","","","","","","","","","","<p><span style=""font-size:40px;"">BLOCK 1</span></p><p><span style=""font-size:25px;"">You have <strong>3 second(s)</strong> to respond to the following trials.</span><br></p><p></p> <!-- Blank line -->
                <p id=""blinking-text"" style=""font-weight; animation: blink 2s infinite;"">Press Space to continue</p>
                <style>
                    @keyframes blink {
                        50% {
                            opacity: 0;
                        }
                    }
                </style></p>"," ","","","","","","","","","","","","",""
"","","","","","html-keyboard-response","61","335803","0.0-16.0-0.0","","","","passed","","","","","","","","","","","","","","","","","ballFalling","500","453.67114317029973","210.33","5","fallScene","true","","","","1","",""
"","","","","","html-keyboard-response","62","338321","0.0-16.0-1.0","","","","passed","","2515","","","","","","","","","","","","","","j","yesOrNo","","","","5","","","mid","3000","","1","499","300"
"","","","","","html-keyboard-response","63","339885","0.0-16.0-0.1","","","","passed","","","","","","","","","","","","","","","","","ballFalling","322.3","296.07114317029976","371.46","3","fallScene","false","","","","2","",""
"","","","","","html-keyboard-response","64","341048","0.0-16.0-1.1","","","","passed","","1159","","","","","","","","","","","","","","f","yesOrNo","","","","3","","","mid","3000","","2","321.3","300"
"","","","","","html-keyboard-response","65","342601","0.0-16.0-0.2","","","","passed","","","","","","","","","","","","","","","","","ballFalling","604.4000000000001","575.4211431702997","266.76","12","fallScene","true","","","","3","",""
"","","","","","html-keyboard-response","66","343616","0.0-16.0-1.2","","","","passed","","1012","","","","","","","","","","","","","","j","yesOrNo","","","","12","","","mid","3000","","3","536.4288568297004","300"
"","","","","","html-keyboard-response","67","345268","0.0-16.0-0.3","","","","passed","","","","","","","","","","","","","","","","","ballFalling","500","479.92114317029973","330.87","6","fallScene","false","","","","4","",""
"","","","","","html-keyboard-response","68","346017","0.0-16.0-1.3","","","","passed","","745","","","","","","","","","","","","","","f","yesOrNo","","","","6","","","mid","3000","","4","499","300"
"","","","","","html-keyboard-response","69","347586","0.0-16.0-0.4","","","","passed","","","","","","","","","","","","","","","","","ballFalling","500","553.4711431702997","282.51","7","fallScene","false","","","","5","",""
"","","","","","html-keyboard-response","70","349839","0.0-16.0-1.4","","","","passed","","2250","","","","","","","","","","","","","","j","yesOrNo","","","","7","","","mid","3000","","5","501","300"
"","","","","","html-keyboard-response","71","351400","0.0-16.0-0.5","","","","passed","","","","","","","","","","","","","","","","","ballFalling","500","453.67114317029973","210.33","5","fallScene","false","","","","6","",""
"","","","","","html-keyboard-response","72","352042","0.0-16.0-1.5","","","","passed","","639","","","","","","","","","","","","","","f","yesOrNo","","","","5","","","mid","3000","","6","499","300"
"","","","","","html-keyboard-response","73","353601","0.0-16.0-0.6","","","","passed","","","","","","","","","","","","","","","","","ballFalling","322.3","296.07114317029976","371.46","3","fallScene","true","","","","7","",""
"","","","","","html-keyboard-response","74","354042","0.0-16.0-1.6","","","","passed","","439","","","","","","","","","","","","","","j","yesOrNo","","","","3","","","lp","3000","","7","321.3","287.3327096511259"
"","","","","","html-keyboard-response","75","355602","0.0-16.0-0.7","","","","passed","","","","","","","","","","","","","","","","","ballFalling","500","453.67114317029973","210.33","5","fallScene","false","","","","8","",""
"","","","","","html-keyboard-response","76","355972","0.0-16.0-1.7","","","","passed","","366","","","","","","","","","","","","","","f","yesOrNo","","","","5","","","lp","3000","","8","499","151"
"","","","","","html-keyboard-response","77","357534","0.0-16.0-0.8","","","","passed","","","","","","","","","","","","","","","","","ballFalling","604.4000000000001","650.0211431702996","404.58000000000004","11","fallScene","false","","","","9","",""
"","","","","","html-keyboard-response","78","358123","0.0-16.0-1.8","","","","passed","","584","","","","","","","","","","","","","","j","yesOrNo","","","","11","","","mid","3000","","9","605.4000000000001","300"
"","","","","","html-keyboard-response","79","360136","0.0-16.0-0.9","","","","passed","","","","","","","","","","","","","","","","","ballFalling","500","510.8711431702997","369.03","8","fallScene","true","","","","10","",""
"","","","","","html-keyboard-response","80","360891","0.0-16.0-1.9","","","","passed","","752","","","","","","","","","","","","","","f","yesOrNo","","","","8","","","gt","3000","","10","510.8711431702997","369.03"
"","","","","","html-keyboard-response","81","362551","0.0-16.0-0.10","","","","passed","","","","","","","","","","","","","","","","","ballFalling","500","479.92114317029973","330.87","6","fallScene","false","","","","11","",""
"","","","","","html-keyboard-response","82","363634","0.0-16.0-1.10","","","","passed","","1080","","","","","","","","","","","","","","j","yesOrNo","","","","6","","","gt","3000","","11","479.9211431702998","330.87"
"","","","","","html-keyboard-response","83","365637","0.0-16.0-0.11","","","","passed","","","","","","","","","","","","","","","","","ballFalling","604.4000000000001","596.8711431702998","394.5","10","fallScene","true","","","","12","",""
"","","","","","html-keyboard-response","84","366185","0.0-16.0-1.11","","","","passed","","547","","","","","","","","","","","","","","f","yesOrNo","","","","10","","","gt","3000","","12","596.8711431702998","394.5"
"","","","","","html-keyboard-response","85","367752","0.0-16.0-0.12","","","","passed","","","","","","","","","","","","","","","","","ballFalling","322.3","356.42114317029973","357.87","4","fallScene","false","","","","13","",""
"","","","","","html-keyboard-response","86","367882","0.0-16.0-1.12","","","","passed","","128","","","","","","","","","","","","","","j","yesOrNo","","","","4","","","lp","3000","","13","323.3","297.4070551689986"
"","","","","","html-keyboard-response","87","369434","0.0-16.0-0.13","","","","passed","","","","","","","","","","","","","","","","","ballFalling","322.3","379.3711431702997","245.25","1","fallScene","false","","","","14","",""
"","","","","","html-keyboard-response","88","370254","0.0-16.0-1.13","","","","passed","","816","","","","","","","","","","","","","","f","yesOrNo","","","","1","","","gt","3000","","14","379.3711431702997","245.25"
"","","","","","html-keyboard-response","89","372269","0.0-16.0-0.14","","","","passed","","","","","","","","","","","","","","","","","ballFalling","604.4000000000001","596.8711431702998","394.5","10","fallScene","true","","","","15","",""
"","","","","","html-keyboard-response","90","373148","0.0-16.0-1.14","","","","passed","","877","","","","","","","","","","","","","","j","yesOrNo","","","","10","","","lp","3000","","15","603.4000000000001","215.50214355555383"
"","","","","","html-keyboard-response","91","374935","0.0-16.0-0.15","","","","passed","","","","","","","","","","","","","","","","","ballFalling","322.3","308.07114317029976","253.89","2","fallScene","true","","","","16","",""
"","","","","","html-keyboard-response","92","375568","0.0-16.0-1.15","","","","passed","","630","","","","","","","","","","","","","","f","yesOrNo","","","","2","","","gt","3000","","16","308.07114317029976","253.89"
"","","","","","html-keyboard-response","93","377051","0.0-16.0-0.16","","","","passed","","","","","","","","","","","","","","","","","ballFalling","604.4000000000001","667.6211431702998","201.78","9","fallScene","true","","","","17","",""
"","","","","","html-keyboard-response","94","377721","0.0-16.0-1.16","","","","passed","","666","","","","","","","","","","","","","","j","yesOrNo","","","","9","","","lp","3000","","17","605.4000000000001","151"
"","","","","","html-keyboard-response","95","379286","0.0-16.0-0.17","","","","passed","","","","","","","","","","","","","","","","","ballFalling","322.3","356.42114317029973","357.87","4","fallScene","false","","","","18","",""
"","","","","","html-keyboard-response","96","379641","0.0-16.0-1.17","","","","passed","","352","","","","","","","","","","","","","","f","yesOrNo","","","","4","","","gt","3000","","18","356.42114317029973","357.87"
"","","","","","html-keyboard-response","97","381219","0.0-16.0-0.18","","","","passed","","","","","","","","","","","","","","","","","ballFalling","500","553.4711431702997","282.51","7","fallScene","false","","","","19","",""
"","","","","","html-keyboard-response","98","381600","0.0-16.0-1.18","","","","passed","","379","","","","","","","","","","","","","","j","yesOrNo","","","","7","","","mid","3000","","19","501","300"
"","","","","","html-keyboard-response","99","383153","0.0-16.0-0.19","","","","passed","","","","","","","","","","","","","","","","","ballFalling","322.3","296.07114317029976","371.46","3","fallScene","true","","","","20","",""
"","","","","","html-keyboard-response","100","383515","0.0-16.0-1.19","","","","passed","","359","","","","","","","","","","","","","","f","yesOrNo","","","","3","","","mid","3000","","20","321.3","300"
"","","","","","html-keyboard-response","101","385068","0.0-16.0-0.20","","","","passed","","","","","","","","","","","","","","","","","ballFalling","322.3","296.07114317029976","371.46","3","fallScene","true","","","","21","",""
"","","","","","html-keyboard-response","102","385399","0.0-16.0-1.20","","","","passed","","327","","","","","","","","","","","","","","j","yesOrNo","","","","3","","","lp","3000","","21","321.3","287.3327096511259"
"","","","","","html-keyboard-response","103","386970","0.0-16.0-0.21","","","","passed","","","","","","","","","","","","","","","","","ballFalling","500","553.4711431702997","282.51","7","fallScene","true","","","","22","",""
"","","","","","html-keyboard-response","104","387650","0.0-16.0-1.21","","","","passed","","678","","","","","","","","","","","","","","f","yesOrNo","","","","7","","","lp","3000","","22","501","227.2843295913261"
"","","","","","html-keyboard-response","105","389202","0.0-16.0-0.22","","","","passed","","","","","","","","","","","","","","","","","ballFalling","322.3","356.42114317029973","357.87","4","fallScene","true","","","","23","",""
"","","","","","html-keyboard-response","106","389920","0.0-16.0-1.22","","","","passed","","715","","","","","","","","","","","","","","j","yesOrNo","","","","4","","","gt","3000","","23","356.42114317029973","357.87"
"","","","","","html-keyboard-response","107","391485","0.0-16.0-0.23","","","","passed","","","","","","","","","","","","","","","","","ballFalling","604.4000000000001","650.0211431702996","404.58000000000004","11","fallScene","false","","","","24","",""
"","","","","","html-keyboard-response","108","392103","0.0-16.0-1.23","","","","passed","","614","","","","","","","","","","","","","","f","yesOrNo","","","","11","","","mid","3000","","24","605.4000000000001","300"
"","","","","","html-keyboard-response","109","395925","0.0-17.0","","","","passed","","3820","","","","","","","","","","","","","<p><span style=""font-size:40px;"">BLOCK 2</span></p><p><span style=""font-size:25px;"">You have <strong>1 second(s)</strong> to respond to the following trials.</span><br></p><p></p> <!-- Blank line -->
                <p id=""blinking-text"" style=""font-weight; animation: blink 2s infinite;"">Press Space to continue</p>
                <style>
                    @keyframes blink {
                        50% {
                            opacity: 0;
                        }
                    }
                </style></p>"," ","","","","","","","","","","","","",""
"","","","","","html-keyboard-response","110","397486","0.0-18.0-0.0","","","","passed","","","","","","","","","","","","","","","","","ballFalling","604.4000000000001","575.4211431702997","266.76","12","fallScene","false","","","","25","",""
"","","","","","html-keyboard-response","111","397834","0.0-18.0-1.0","","","","passed","","347","","","","","","","","","","","","","","j","yesOrNo","","","","12","","","lp","1000","","25","603.4000000000001","151"
"","","","","","html-keyboard-response","112","399484","0.0-18.0-0.1","","","","passed","","","","","","","","","","","","","","","","","ballFalling","500","479.92114317029973","330.87","6","fallScene","false","","","","26","",""
"","","","","","html-keyboard-response","113","399863","0.0-18.0-1.1","","","","passed","","374","","","","","","","","","","","","","","f","yesOrNo","","","","6","","","mid","1000","","26","499","300"
"","","","","","html-keyboard-response","114","401868","0.0-18.0-0.2","","","","passed","","","","","","","","","","","","","","","","","ballFalling","604.4000000000001","596.8711431702998","394.5","10","fallScene","false","","","","27","",""
"","","","","","html-keyboard-response","115","402305","0.0-18.0-1.2","","","","passed","","435","","","","","","","","","","","","","","j","yesOrNo","","","","10","","","gt","1000","","27","596.8711431702998","394.5"
"","","","","","html-keyboard-response","116","403870","0.0-18.0-0.3","","","","passed","","","","","","","","","","","","","","","","","ballFalling","500","453.67114317029973","210.33","5","fallScene","true","","","","28","",""
"","","","","","html-keyboard-response","117","404291","0.0-18.0-1.3","","","","passed","","418","","","","","","","","","","","","","","f","yesOrNo","","","","5","","","lp","1000","","28","499","151"
"","","","","","html-keyboard-response","118","406085","0.0-18.0-0.4","","","","passed","","","","","","","","","","","","","","","","","ballFalling","322.3","308.07114317029976","253.89","2","fallScene","true","","","","29","",""
"","","","","","html-keyboard-response","119","406418","0.0-18.0-1.4","","","","passed","","328","","","","","","","","","","","","","","j","yesOrNo","","","","2","","","mid","1000","","29","321.3","300"
"","","","","","html-keyboard-response","120","407918","0.0-18.0-0.5","","","","passed","","","","","","","","","","","","","","","","","ballFalling","604.4000000000001","667.6211431702998","201.78","9","fallScene","false","","","","30","",""
"","","","","","html-keyboard-response","121","408225","0.0-18.0-1.5","","","","passed","","305","","","","","","","","","","","","","","f","yesOrNo","","","","9","","","lp","1000","","30","605.4000000000001","151"
"","","","","","html-keyboard-response","122","409787","0.0-18.0-0.6","","","","passed","","","","","","","","","","","","","","","","","ballFalling","500","453.67114317029973","210.33","5","fallScene","false","","","","31","",""
"","","","","","html-keyboard-response","123","410300","0.0-18.0-1.6","","","","passed","","511","","","","","","","","","","","","","","j","yesOrNo","","","","5","","","mid","1000","","31","499","300"
"","","","","","html-keyboard-response","124","411851","0.0-18.0-0.7","","","","passed","","","","","","","","","","","","","","","","","ballFalling","604.4000000000001","650.0211431702996","404.58000000000004","11","fallScene","false","","","","32","",""
"","","","","","html-keyboard-response","125","412437","0.0-18.0-1.7","","","","passed","","585","","","","","","","","","","","","","","f","yesOrNo","","","","11","","","gt","1000","","32","650.0211431702996","404.58"
"","","","","","html-keyboard-response","126","414102","0.0-18.0-0.8","","","","passed","","","","","","","","","","","","","","","","","ballFalling","500","479.92114317029973","330.87","6","fallScene","true","","","","33","",""
"","","","","","html-keyboard-response","127","414476","0.0-18.0-1.8","","","","passed","","371","","","","","","","","","","","","","","j","yesOrNo","","","","6","","","mid","1000","","33","499","300"
"","","","","","html-keyboard-response","128","416268","0.0-18.0-0.9","","","","passed","","","","","","","","","","","","","","","","","ballFalling","322.3","308.07114317029976","253.89","2","fallScene","true","","","","34","",""
"","","","","","html-keyboard-response","129","416772","0.0-18.0-1.9","","","","passed","","502","","","","","","","","","","","","","","f","yesOrNo","","","","2","","","lp","1000","","34","321.3","151"
"","","","","","html-keyboard-response","130","418785","0.0-18.0-0.10","","","","passed","","","","","","","","","","","","","","","","","ballFalling","500","510.8711431702997","369.03","8","fallScene","false","","","","35","",""
"","","","","","html-keyboard-response","131","419334","0.0-18.0-1.10","","","","passed","","548","","","","","","","","","","","","","","j","yesOrNo","","","","8","","","mid","1000","","35","501","300"
"","","","","","html-keyboard-response","132","421119","0.0-18.0-0.11","","","","passed","","","","","","","","","","","","","","","","","ballFalling","322.3","308.07114317029976","253.89","2","fallScene","true","","","","36","",""
"","","","","","html-keyboard-response","133","421597","0.0-18.0-1.11","","","","passed","","475","","","","","","","","","","","","","","f","yesOrNo","","","","2","","","gt","1000","","36","308.07114317029976","253.89"
"","","","","","html-keyboard-response","134","423151","0.0-18.0-0.12","","","","passed","","","","","","","","","","","","","","","","","ballFalling","604.4000000000001","650.0211431702996","404.58000000000004","11","fallScene","true","","","","37","",""
"","","","","","html-keyboard-response","135","423458","0.0-18.0-1.12","","","","passed","","303","","","","","","","","","","","","","","j","yesOrNo","","","","11","","","lp","1000","","37","605.4000000000001","372.6340973215488"
"","","","","","html-keyboard-response","136","425020","0.0-18.0-0.13","","","","passed","","","","","","","","","","","","","","","","","ballFalling","322.3","296.07114317029976","371.46","3","fallScene","false","","","","38","",""
"","","","","","html-keyboard-response","137","425297","0.0-18.0-1.13","","","","passed","","275","","","","","","","","","","","","","","f","yesOrNo","","","","3","","","gt","1000","","38","296.07114317029976","371.46"
"","","","","","html-keyboard-response","138","426852","0.0-18.0-0.14","","","","passed","","","","","","","","","","","","","","","","","ballFalling","322.3","356.42114317029973","357.87","4","fallScene","false","","","","39","",""
"","","","","","html-keyboard-response","139","427288","0.0-18.0-1.14","","","","passed","","432","","","","","","","","","","","","","","j","yesOrNo","","","","4","","","mid","1000","","39","390.27114317029975","300"
"","","","","","html-keyboard-response","140","429301","0.0-18.0-0.15","","","","passed","","","","","","","","","","","","","","","","","ballFalling","604.4000000000001","596.8711431702998","394.5","10","fallScene","true","","","","40","",""
"","","","","","html-keyboard-response","141","429709","0.0-18.0-1.15","","","","passed","","404","","","","","","","","","","","","","","f","yesOrNo","","","","10","","","gt","1000","","40","596.8711431702998","394.5"
"","","","","","html-keyboard-response","142","431268","0.0-18.0-0.16","","","","passed","","","","","","","","","","","","","","","","","ballFalling","322.3","356.42114317029973","357.87","4","fallScene","false","","","","41","",""
"","","","","","html-keyboard-response","143","431771","0.0-18.0-1.16","","","","passed","","501","","","","","","","","","","","","","","j","yesOrNo","","","","4","","","gt","1000","","41","356.42114317029973","357.87"
"","","","","","html-keyboard-response","144","433268","0.0-18.0-0.17","","","","passed","","","","","","","","","","","","","","","","","ballFalling","604.4000000000001","667.6211431702998","201.78","9","fallScene","false","","","","42","",""
"","","","","","html-keyboard-response","145","433763","0.0-18.0-1.17","","","","passed","","493","","","","","","","","","","","","","","f","yesOrNo","","","","9","","","mid","1000","","42","605.4000000000001","300"
"","","","","","html-keyboard-response","146","435254","0.0-18.0-0.18","","","","passed","","","","","","","","","","","","","","","","","ballFalling","604.4000000000001","667.6211431702998","201.78","9","fallScene","true","","","","43","",""
"","","","","","html-keyboard-response","147","435667","0.0-18.0-1.18","","","","passed","","411","","","","","","","","","","","","","","j","yesOrNo","","","","9","","","gt","1000","","43","667.6211431702998","201.78"
"","","","","","html-keyboard-response","148","437220","0.0-18.0-0.19","","","","passed","","","","","","","","","","","","","","","","","ballFalling","604.4000000000001","575.4211431702997","266.76","12","fallScene","false","","","","44","",""
"","","","","","html-keyboard-response","149","437605","0.0-18.0-1.19","","","","passed","","383","","","","","","","","","","","","","","f","yesOrNo","","","","12","","","gt","1000","","44","575.4211431702997","266.76"
"","","","","","html-keyboard-response","150","439168","0.0-18.0-0.20","","","","passed","","","","","","","","","","","","","","","","","ballFalling","604.4000000000001","575.4211431702997","266.76","12","fallScene","false","","","","45","",""
"","","","","","html-keyboard-response","151","439573","0.0-18.0-1.20","","","","passed","","401","","","","","","","","","","","","","","j","yesOrNo","","","","12","","","mid","1000","","45","536.4288568297004","300"
"","","","","","html-keyboard-response","152","441152","0.0-18.0-0.21","","","","passed","","","","","","","","","","","","","","","","","ballFalling","500","553.4711431702997","282.51","7","fallScene","false","","","","46","",""
"","","","","","html-keyboard-response","153","441553","0.0-18.0-1.21","","","","passed","","398","","","","","","","","","","","","","","f","yesOrNo","","","","7","","","mid","1000","","46","501","300"
"","","","","","html-keyboard-response","154","443120","0.0-18.0-0.22","","","","passed","","","","","","","","","","","","","","","","","ballFalling","604.4000000000001","650.0211431702996","404.58000000000004","11","fallScene","false","","","","47","",""
"","","","","","html-keyboard-response","155","443467","0.0-18.0-1.22","","","","passed","","342","","","","","","","","","","","","","","j","yesOrNo","","","","11","","","gt","1000","","47","650.0211431702996","404.58"
"","","","","","html-keyboard-response","156","445019","0.0-18.0-0.23","","","","passed","","","","","","","","","","","","","","","","","ballFalling","500","453.67114317029973","210.33","5","fallScene","false","","","","48","",""
"","","","","","html-keyboard-response","157","445332","0.0-18.0-1.23","","","","passed","","311","","","","","","","","","","","","","","f","yesOrNo","","","","5","","","gt","1000","","48","453.6711431702998","210.33"
"","","","","","html-keyboard-response","158","447125","0.0-19.0","","","","passed","","1791","","","","","","","","","","","","","<p><span style=""font-size:40px;"">BLOCK 3</span></p><p><span style=""font-size:25px;"">You have <strong>3 second(s)</strong> to respond to the following trials.</span><br></p><p></p> <!-- Blank line -->
                <p id=""blinking-text"" style=""font-weight; animation: blink 2s infinite;"">Press Space to continue</p>
                <style>
                    @keyframes blink {
                        50% {
                            opacity: 0;
                        }
                    }
                </style></p>"," ","","","","","","","","","","","","",""
"","","","","","html-keyboard-response","159","448785","0.0-20.0-0.0","","","","passed","","","","","","","","","","","","","","","","","ballFalling","500","479.92114317029973","330.87","6","fallScene","true","","","","49","",""
"","","","","","html-keyboard-response","160","449270","0.0-20.0-1.0","","","","passed","","482","","","","","","","","","","","","","","j","yesOrNo","","","","6","","","mid","3000","","49","499","300"
"","","","","","html-keyboard-response","161","450836","0.0-20.0-0.1","","","","passed","","","","","","","","","","","","","","","","","ballFalling","322.3","356.42114317029973","357.87","4","fallScene","true","","","","50","",""
"","","","","","html-keyboard-response","162","451238","0.0-20.0-1.1","","","","passed","","399","","","","","","","","","","","","","","f","yesOrNo","","","","4","","","lp","3000","","50","323.3","297.4070551689986"
"","","","","","html-keyboard-response","163","453253","0.0-20.0-0.2","","","","passed","","","","","","","","","","","","","","","","","ballFalling","604.4000000000001","596.8711431702998","394.5","10","fallScene","true","","","","51","",""
"","","","","","html-keyboard-response","164","453748","0.0-20.0-1.2","","","","passed","","493","","","","","","","","","","","","","","j","yesOrNo","","","","10","","","lp","3000","","51","603.4000000000001","215.50214355555383"
"","","","","","html-keyboard-response","165","455546","0.0-20.0-0.3","","","","passed","","","","","","","","","","","","","","","","","ballFalling","322.3","308.07114317029976","253.89","2","fallScene","true","","","","52","",""
"","","","","","html-keyboard-response","166","455950","0.0-20.0-1.3","","","","passed","","400","","","","","","","","","","","","","","f","yesOrNo","","","","2","","","mid","3000","","52","321.3","300"
"","","","","","html-keyboard-response","167","457603","0.0-20.0-0.4","","","","passed","","","","","","","","","","","","","","","","","ballFalling","500","479.92114317029973","330.87","6","fallScene","true","","","","53","",""
"","","","","","html-keyboard-response","168","458109","0.0-20.0-1.4","","","","passed","","505","","","","","","","","","","","","","","j","yesOrNo","","","","6","","","lp","3000","","53","499","189.92909825697632"
"","","","","","html-keyboard-response","169","459685","0.0-20.0-0.5","","","","passed","","","","","","","","","","","","","","","","","ballFalling","500","553.4711431702997","282.51","7","fallScene","false","","","","54","",""
"","","","","","html-keyboard-response","170","460157","0.0-20.0-1.5","","","","passed","","470","","","","","","","","","","","","","","f","yesOrNo","","","","7","","","gt","3000","","54","553.4711431702997","282.51"
"","","","","","html-keyboard-response","171","462169","0.0-20.0-0.6","","","","passed","","","","","","","","","","","","","","","","","ballFalling","500","510.8711431702997","369.03","8","fallScene","false","","","","55","",""
"","","","","","html-keyboard-response","172","462932","0.0-20.0-1.6","","","","passed","","762","","","","","","","","","","","","","","j","yesOrNo","","","","8","","","lp","3000","","55","501","151"
"","","","","","html-keyboard-response","173","464486","0.0-20.0-0.7","","","","passed","","","","","","","","","","","","","","","","","ballFalling","322.3","379.3711431702997","245.25","1","fallScene","true","","","","56","",""
"","","","","","html-keyboard-response","174","465350","0.0-20.0-1.7","","","","passed","","862","","","","","","","","","","","","","","f","yesOrNo","","","","1","","","gt","3000","","56","379.3711431702997","245.25"
"","","","","","html-keyboard-response","175","466903","0.0-20.0-0.8","","","","passed","","","","","","","","","","","","","","","","","ballFalling","500","453.67114317029973","210.33","5","fallScene","false","","","","57","",""
"","","","","","html-keyboard-response","176","467354","0.0-20.0-1.8","","","","passed","","448","","","","","","","","","","","","","","j","yesOrNo","","","","5","","","gt","3000","","57","453.6711431702998","210.33"
"","","","","","html-keyboard-response","177","468852","0.0-20.0-0.9","","","","passed","","","","","","","","","","","","","","","","","ballFalling","604.4000000000001","667.6211431702998","201.78","9","fallScene","true","","","","58","",""
"","","","","","html-keyboard-response","178","469290","0.0-20.0-1.9","","","","passed","","434","","","","","","","","","","","","","","f","yesOrNo","","","","9","","","mid","3000","","58","605.4000000000001","300"
"","","","","","html-keyboard-response","179","470852","0.0-20.0-0.10","","","","passed","","","","","","","","","","","","","","","","","ballFalling","604.4000000000001","575.4211431702997","266.76","12","fallScene","false","","","","59","",""
"","","","","","html-keyboard-response","180","471486","0.0-20.0-1.10","","","","passed","","632","","","","","","","","","","","","","","j","yesOrNo","","","","12","","","mid","3000","","59","536.4288568297004","300"
"","","","","","html-keyboard-response","181","472986","0.0-20.0-0.11","","","","passed","","","","","","","","","","","","","","","","","ballFalling","604.4000000000001","667.6211431702998","201.78","9","fallScene","false","","","","60","",""
"","","","","","html-keyboard-response","182","473383","0.0-20.0-1.11","","","","passed","","395","","","","","","","","","","","","","","f","yesOrNo","","","","9","","","lp","3000","","60","605.4000000000001","151"
"","","","","","html-keyboard-response","183","474936","0.0-20.0-0.12","","","","passed","","","","","","","","","","","","","","","","","ballFalling","322.3","379.3711431702997","245.25","1","fallScene","true","","","","61","",""
"","","","","","html-keyboard-response","184","475426","0.0-20.0-1.12","","","","passed","","486","","","","","","","","","","","","","","j","yesOrNo","","","","1","","","lp","3000","","61","323.3","217.74551669457017"
"","","","","","html-keyboard-response","185","476985","0.0-20.0-0.13","","","","passed","","","","","","","","","","","","","","","","","ballFalling","604.4000000000001","575.4211431702997","266.76","12","fallScene","true","","","","62","",""
"","","","","","html-keyboard-response","186","477406","0.0-20.0-1.13","","","","passed","","419","","","","","","","","","","","","","","f","yesOrNo","","","","12","","","gt","3000","","62","575.4211431702997","266.76"
"","","","","","html-keyboard-response","187","479069","0.0-20.0-0.14","","","","passed","","","","","","","","","","","","","","","","","ballFalling","500","479.92114317029973","330.87","6","fallScene","true","","","","63","",""
"","","","","","html-keyboard-response","188","479604","0.0-20.0-1.14","","","","passed","","531","","","","","","","","","","","","","","j","yesOrNo","","","","6","","","gt","3000","","63","479.9211431702998","330.87"
"","","","","","html-keyboard-response","189","481169","0.0-20.0-0.15","","","","passed","","","","","","","","","","","","","","","","","ballFalling","604.4000000000001","575.4211431702997","266.76","12","fallScene","true","","","","64","",""
"","","","","","html-keyboard-response","190","481609","0.0-20.0-1.15","","","","passed","","439","","","","","","","","","","","","","","f","yesOrNo","","","","12","","","gt","3000","","64","575.4211431702997","266.76"
"","","","","","html-keyboard-response","191","483169","0.0-20.0-0.16","","","","passed","","","","","","","","","","","","","","","","","ballFalling","322.3","379.3711431702997","245.25","1","fallScene","false","","","","65","",""
"","","","","","html-keyboard-response","192","483626","0.0-20.0-1.16","","","","passed","","454","","","","","","","","","","","","","","j","yesOrNo","","","","1","","","lp","3000","","65","323.3","217.74551669457017"
"","","","","","html-keyboard-response","193","485639","0.0-20.0-0.17","","","","passed","","","","","","","","","","","","","","","","","ballFalling","604.4000000000001","596.8711431702998","394.5","10","fallScene","false","","","","66","",""
"","","","","","html-keyboard-response","194","486348","0.0-20.0-1.17","","","","passed","","707","","","","","","","","","","","","","","f","yesOrNo","","","","10","","","gt","3000","","66","596.8711431702998","394.5"
"","","","","","html-keyboard-response","195","487834","0.0-20.0-0.18","","","","passed","","","","","","","","","","","","","","","","","ballFalling","604.4000000000001","667.6211431702998","201.78","9","fallScene","false","","","","67","",""
"","","","","","html-keyboard-response","196","488338","0.0-20.0-1.18","","","","passed","","500","","","","","","","","","","","","","","j","yesOrNo","","","","9","","","mid","3000","","67","605.4000000000001","300"
"","","","","","html-keyboard-response","197","489835","0.0-20.0-0.19","","","","passed","","","","","","","","","","","","","","","","","ballFalling","604.4000000000001","667.6211431702998","201.78","9","fallScene","false","","","","68","",""
"","","","","","html-keyboard-response","198","490304","0.0-20.0-1.19","","","","passed","","467","","","","","","","","","","","","","","f","yesOrNo","","","","9","","","gt","3000","","68","667.6211431702998","201.78"
"","","","","","html-keyboard-response","199","491969","0.0-20.0-0.20","","","","passed","","","","","","","","","","","","","","","","","ballFalling","500","479.92114317029973","330.87","6","fallScene","false","","","","69","",""
"","","","","","html-keyboard-response","200","492488","0.0-20.0-1.20","","","","passed","","517","","","","","","","","","","","","","","j","yesOrNo","","","","6","","","lp","3000","","69","499","189.92909825697632"
"","","","","","html-keyboard-response","201","494052","0.0-20.0-0.21","","","","passed","","","","","","","","","","","","","","","","","ballFalling","322.3","296.07114317029976","371.46","3","fallScene","true","","","","70","",""
"","","","","","html-keyboard-response","202","494552","0.0-20.0-1.21","","","","passed","","496","","","","","","","","","","","","","","f","yesOrNo","","","","3","","","gt","3000","","70","296.07114317029976","371.46"
"","","","","","html-keyboard-response","203","496569","0.0-20.0-0.22","","","","passed","","","","","","","","","","","","","","","","","ballFalling","604.4000000000001","596.8711431702998","394.5","10","fallScene","true","","","","71","",""
"","","","","","html-keyboard-response","204","496944","0.0-20.0-1.22","","","","passed","","372","","","","","","","","","","","","","","j","yesOrNo","","","","10","","","mid","3000","","71","536.4288568297004","300"
"","","","","","html-keyboard-response","205","498435","0.0-20.0-0.23","","","","passed","","","","","","","","","","","","","","","","","ballFalling","604.4000000000001","667.6211431702998","201.78","9","fallScene","false","","","","72","",""
"","","","","","html-keyboard-response","206","498822","0.0-20.0-1.23","","","","passed","","385","","","","","","","","","","","","","","f","yesOrNo","","","","9","","","gt","3000","","72","667.6211431702998","201.78"
"","","","","","html-keyboard-response","207","500775","0.0-21.0","","","","passed","","1952","","","","","","","","","","","","","<p><span style=""font-size:40px;"">BLOCK 4</span></p><p><span style=""font-size:25px;"">You have <strong>1 second(s)</strong> to respond to the following trials.</span><br></p><p></p> <!-- Blank line -->
                <p id=""blinking-text"" style=""font-weight; animation: blink 2s infinite;"">Press Space to continue</p>
                <style>
                    @keyframes blink {
                        50% {
                            opacity: 0;
                        }
                    }
                </style></p>"," ","","","","","","","","","","","","",""
"","","","","","html-keyboard-response","208","502790","0.0-22.0-0.0","","","","passed","","","","","","","","","","","","","","","","","ballFalling","500","510.8711431702997","369.03","8","fallScene","false","","","","73","",""
"","","","","","html-keyboard-response","209","503125","0.0-22.0-1.0","","","","passed","","334","","","","","","","","","","","","","","j","yesOrNo","","","","8","","","lp","1000","","73","501","151"
"","","","","","html-keyboard-response","210","504702","0.0-22.0-0.1","","","","passed","","","","","","","","","","","","","","","","","ballFalling","500","553.4711431702997","282.51","7","fallScene","false","","","","74","",""
"","","","","","html-keyboard-response","211","505049","0.0-22.0-1.1","","","","passed","","345","","","","","","","","","","","","","","f","yesOrNo","","","","7","","","gt","1000","","74","553.4711431702997","282.51"
"","","","","","html-keyboard-response","212","506601","0.0-22.0-0.2","","","","passed","","","","","","","","","","","","","","","","","ballFalling","322.3","296.07114317029976","371.46","3","fallScene","false","","","","75","",""
"","","","","","html-keyboard-response","213","506935","0.0-22.0-1.2","","","","passed","","329","","","","","","","","","","","","","","j","yesOrNo","","","","3","","","mid","1000","","75","321.3","300"
"","","","","","html-keyboard-response","214","508486","0.0-22.0-0.3","","","","passed","","","","","","","","","","","","","","","","","ballFalling","604.4000000000001","650.0211431702996","404.58000000000004","11","fallScene","false","","","","76","",""
"","","","","","html-keyboard-response","215","508792","0.0-22.0-1.3","","","","passed","","303","","","","","","","","","","","","","","f","yesOrNo","","","","11","","","lp","1000","","76","605.4000000000001","372.6340973215488"
"","","","","","html-keyboard-response","216","510352","0.0-22.0-0.4","","","","passed","","","","","","","","","","","","","","","","","ballFalling","322.3","379.3711431702997","245.25","1","fallScene","false","","","","77","",""
"","","","","","html-keyboard-response","217","510627","0.0-22.0-1.4","","","","passed","","273","","","","","","","","","","","","","","j","yesOrNo","","","","1","","","gt","1000","","77","379.3711431702997","245.25"
"","","","","","html-keyboard-response","218","512186","0.0-22.0-0.5","","","","passed","","","","","","","","","","","","","","","","","ballFalling","322.3","379.3711431702997","245.25","1","fallScene","false","","","","78","",""
"","","","","","html-keyboard-response","219","512498","0.0-22.0-1.5","","","","passed","","308","","","","","","","","","","","","","","f","yesOrNo","","","","1","","","lp","1000","","78","323.3","217.74551669457017"
"","","","","","html-keyboard-response","220","514502","0.0-22.0-0.6","","","","passed","","","","","","","","","","","","","","","","","ballFalling","500","510.8711431702997","369.03","8","fallScene","true","","","","79","",""
"","","","","","html-keyboard-response","221","514868","0.0-22.0-1.6","","","","passed","","361","","","","","","","","","","","","","","j","yesOrNo","","","","8","","","lp","1000","","79","501","151"
"","","","","","html-keyboard-response","222","516420","0.0-22.0-0.7","","","","passed","","","","","","","","","","","","","","","","","ballFalling","604.4000000000001","650.0211431702996","404.58000000000004","11","fallScene","true","","","","80","",""
"","","","","","html-keyboard-response","223","516734","0.0-22.0-1.7","","","","passed","","312","","","","","","","","","","","","","","f","yesOrNo","","","","11","","","mid","1000","","80","605.4000000000001","300"
"","","","","","html-keyboard-response","224","518518","0.0-22.0-0.8","","","","passed","","","","","","","","","","","","","","","","","ballFalling","322.3","308.07114317029976","253.89","2","fallScene","false","","","","81","",""
"","","","","","html-keyboard-response","225","518737","0.0-22.0-1.8","","","","passed","","215","","","","","","","","","","","","","","j","yesOrNo","","","","2","","","lp","1000","","81","321.3","151"
"","","","","","html-keyboard-response","226","520403","0.0-22.0-0.9","","","","passed","","","","","","","","","","","","","","","","","ballFalling","500","479.92114317029973","330.87","6","fallScene","true","","","","82","",""
"","","","","","html-keyboard-response","227","520721","0.0-22.0-1.9","","","","passed","","315","","","","","","","","","","","","","","f","yesOrNo","","","","6","","","gt","1000","","82","479.9211431702998","330.87"
"","","","","","html-keyboard-response","228","522288","0.0-22.0-0.10","","","","passed","","","","","","","","","","","","","","","","","ballFalling","322.3","296.07114317029976","371.46","3","fallScene","true","","","","83","",""
"","","","","","html-keyboard-response","229","522587","0.0-22.0-1.10","","","","passed","","297","","","","","","","","","","","","","","j","yesOrNo","","","","3","","","lp","1000","","83","321.3","287.3327096511259"
"","","","","","html-keyboard-response","230","524386","0.0-22.0-0.11","","","","passed","","","","","","","","","","","","","","","","","ballFalling","322.3","308.07114317029976","253.89","2","fallScene","false","","","","84","",""
"","","","","","html-keyboard-response","231","524719","0.0-22.0-1.11","","","","passed","","330","","","","","","","","","","","","","","f","yesOrNo","","","","2","","","gt","1000","","84","308.07114317029976","253.89"
"","","","","","html-keyboard-response","232","526303","0.0-22.0-0.12","","","","passed","","","","","","","","","","","","","","","","","ballFalling","500","553.4711431702997","282.51","7","fallScene","true","","","","85","",""
"","","","","","html-keyboard-response","233","526619","0.0-22.0-1.12","","","","passed","","312","","","","","","","","","","","","","","j","yesOrNo","","","","7","","","gt","1000","","85","553.4711431702997","282.51"
"","","","","","html-keyboard-response","234","528186","0.0-22.0-0.13","","","","passed","","","","","","","","","","","","","","","","","ballFalling","322.3","356.42114317029973","357.87","4","fallScene","false","","","","86","",""
"","","","","","html-keyboard-response","235","528506","0.0-22.0-1.13","","","","passed","","318","","","","","","","","","","","","","","f","yesOrNo","","","","4","","","mid","1000","","86","390.27114317029975","300"
"","","","","","html-keyboard-response","236","530519","0.0-22.0-0.14","","","","passed","","","","","","","","","","","","","","","","","ballFalling","604.4000000000001","596.8711431702998","394.5","10","fallScene","true","","","","87","",""
"","","","","","html-keyboard-response","237","530989","0.0-22.0-1.14","","","","passed","","467","","","","","","","","","","","","","","j","yesOrNo","","","","10","","","lp","1000","","87","603.4000000000001","215.50214355555383"
"","","","","","html-keyboard-response","238","532553","0.0-22.0-0.15","","","","passed","","","","","","","","","","","","","","","","","ballFalling","322.3","296.07114317029976","371.46","3","fallScene","false","","","","88","",""
"","","","","","html-keyboard-response","239","532924","0.0-22.0-1.15","","","","passed","","368","","","","","","","","","","","","","","f","yesOrNo","","","","3","","","mid","1000","","88","321.3","300"
"","","","","","html-keyboard-response","240","534485","0.0-22.0-0.16","","","","passed","","","","","","","","","","","","","","","","","ballFalling","604.4000000000001","575.4211431702997","266.76","12","fallScene","false","","","","89","",""
"","","","","","html-keyboard-response","241","534919","0.0-22.0-1.16","","","","passed","","430","","","","","","","","","","","","","","j","yesOrNo","","","","12","","","mid","1000","","89","536.4288568297004","300"
"","","","","","html-keyboard-response","242","536934","0.0-22.0-0.17","","","","passed","","","","","","","","","","","","","","","","","ballFalling","604.4000000000001","596.8711431702998","394.5","10","fallScene","false","","","","90","",""
"","","","","","html-keyboard-response","243","537404","0.0-22.0-1.17","","","","passed","","468","","","","","","","","","","","","","","f","yesOrNo","","","","10","","","mid","1000","","90","536.4288568297004","300"
"","","","","","html-keyboard-response","244","539418","0.0-22.0-0.18","","","","passed","","","","","","","","","","","","","","","","","ballFalling","604.4000000000001","596.8711431702998","394.5","10","fallScene","true","","","","91","",""
"","","","","","html-keyboard-response","245","539802","0.0-22.0-1.18","","","","passed","","383","","","","","","","","","","","","","","j","yesOrNo","","","","10","","","lp","1000","","91","603.4000000000001","215.50214355555383"
"","","","","","html-keyboard-response","246","541818","0.0-22.0-0.19","","","","passed","","","","","","","","","","","","","","","","","ballFalling","500","510.8711431702997","369.03","8","fallScene","false","","","","92","",""
"","","","","","html-keyboard-response","247","542170","0.0-22.0-1.19","","","","passed","","350","","","","","","","","","","","","","","f","yesOrNo","","","","8","","","gt","1000","","92","510.8711431702997","369.03"
"","","","","","html-keyboard-response","248","543835","0.0-22.0-0.20","","","","passed","","","","","","","","","","","","","","","","","ballFalling","500","479.92114317029973","330.87","6","fallScene","false","","","","93","",""
"","","","","","html-keyboard-response","249","544290","0.0-22.0-1.20","","","","passed","","450","","","","","","","","","","","","","","j","yesOrNo","","","","6","","","lp","1000","","93","499","189.92909825697632"
"","","","","","html-keyboard-response","250","545852","0.0-22.0-0.21","","","","passed","","","","","","","","","","","","","","","","","ballFalling","500","453.67114317029973","210.33","5","fallScene","false","","","","94","",""
"","","","","","html-keyboard-response","251","546207","0.0-22.0-1.21","","","","passed","","353","","","","","","","","","","","","","","f","yesOrNo","","","","5","","","lp","1000","","94","499","151"
"","","","","","html-keyboard-response","252","548219","0.0-22.0-0.22","","","","passed","","","","","","","","","","","","","","","","","ballFalling","604.4000000000001","596.8711431702998","394.5","10","fallScene","true","","","","95","",""
"","","","","","html-keyboard-response","253","548574","0.0-22.0-1.22","","","","passed","","353","","","","","","","","","","","","","","j","yesOrNo","","","","10","","","mid","1000","","95","536.4288568297004","300"
"","","","","","html-keyboard-response","254","550135","0.0-22.0-0.23","","","","passed","","","","","","","","","","","","","","","","","ballFalling","322.3","296.07114317029976","371.46","3","fallScene","false","","","","96","",""
"","","","","","html-keyboard-response","255","550517","0.0-22.0-1.23","","","","passed","","378","","","","","","","","","","","","","","f","yesOrNo","","","","3","","","lp","1000","","96","321.3","287.3327096511259"
"","","","","","html-keyboard-response","256","551922","0.0-23.0","","","","passed","","1403","","","","","","","","","","","","","<p><span style=""font-size:40px;"">BLOCK 5</span></p><p><span style=""font-size:25px;"">You have <strong>3 second(s)</strong> to respond to the following trials.</span><br></p><p></p> <!-- Blank line -->
                <p id=""blinking-text"" style=""font-weight; animation: blink 2s infinite;"">Press Space to continue</p>
                <style>
                    @keyframes blink {
                        50% {
                            opacity: 0;
                        }
                    }
                </style></p>"," ","","","","","","","","","","","","",""
"","","","","","html-keyboard-response","257","553487","0.0-24.0-0.0","","","","passed","","","","","","","","","","","","","","","","","ballFalling","322.3","356.42114317029973","357.87","4","fallScene","false","","","","97","",""
"","","","","","html-keyboard-response","258","553822","0.0-24.0-1.0","","","","passed","","332","","","","","","","","","","","","","","j","yesOrNo","","","","4","","","mid","3000","","97","390.27114317029975","300"
"","","","","","html-keyboard-response","259","555402","0.0-24.0-0.1","","","","passed","","","","","","","","","","","","","","","","","ballFalling","500","553.4711431702997","282.51","7","fallScene","true","","","","98","",""
"","","","","","html-keyboard-response","260","555667","0.0-24.0-1.1","","","","passed","","263","","","","","","","","","","","","","","f","yesOrNo","","","","7","","","gt","3000","","98","553.4711431702997","282.51"
"","","","","","html-keyboard-response","261","557218","0.0-24.0-0.2","","","","passed","","","","","","","","","","","","","","","","","ballFalling","604.4000000000001","650.0211431702996","404.58000000000004","11","fallScene","false","","","","99","",""
"","","","","","html-keyboard-response","262","557588","0.0-24.0-1.2","","","","passed","","368","","","","","","","","","","","","","","j","yesOrNo","","","","11","","","lp","3000","","99","605.4000000000001","372.6340973215488"
"","","","","","html-keyboard-response","263","559605","0.0-24.0-0.3","","","","passed","","","","","","","","","","","","","","","","","ballFalling","500","510.8711431702997","369.03","8","fallScene","false","","","","100","",""
"","","","","","html-keyboard-response","264","560834","0.0-24.0-1.3","","","","passed","","1226","","","","","","","","","","","","","","f","yesOrNo","","","","8","","","mid","3000","","100","501","300"
"","","","","","html-keyboard-response","265","562620","0.0-24.0-0.4","","","","passed","","","","","","","","","","","","","","","","","ballFalling","322.3","308.07114317029976","253.89","2","fallScene","false","","","","101","",""
"","","","","","html-keyboard-response","266","563084","0.0-24.0-1.4","","","","passed","","463","","","","","","","","","","","","","","j","yesOrNo","","","","2","","","lp","3000","","101","321.3","151"
"","","","","","html-keyboard-response","267","564869","0.0-24.0-0.5","","","","passed","","","","","","","","","","","","","","","","","ballFalling","322.3","308.07114317029976","253.89","2","fallScene","false","","","","102","",""
"","","","","","html-keyboard-response","268","565257","0.0-24.0-1.5","","","","passed","","383","","","","","","","","","","","","","","f","yesOrNo","","","","2","","","mid","3000","","102","321.3","300"
"","","","","","html-keyboard-response","269","566818","0.0-24.0-0.6","","","","passed","","","","","","","","","","","","","","","","","ballFalling","500","453.67114317029973","210.33","5","fallScene","false","","","","103","",""
"","","","","","html-keyboard-response","270","567255","0.0-24.0-1.6","","","","passed","","433","","","","","","","","","","","","","","j","yesOrNo","","","","5","","","lp","3000","","103","499","151"
"","","","","","html-keyboard-response","271","568835","0.0-24.0-0.7","","","","passed","","","","","","","","","","","","","","","","","ballFalling","500","553.4711431702997","282.51","7","fallScene","false","","","","104","",""
"","","","","","html-keyboard-response","272","569192","0.0-24.0-1.7","","","","passed","","355","","","","","","","","","","","","","","f","yesOrNo","","","","7","","","lp","3000","","104","501","227.2843295913261"
"","","","","","html-keyboard-response","273","570752","0.0-24.0-0.8","","","","passed","","","","","","","","","","","","","","","","","ballFalling","322.3","296.07114317029976","371.46","3","fallScene","false","","","","105","",""
"","","","","","html-keyboard-response","274","571338","0.0-24.0-1.8","","","","passed","","582","","","","","","","","","","","","","","j","yesOrNo","","","","3","","","gt","3000","","105","296.07114317029976","371.46"
"","","","","","html-keyboard-response","275","572902","0.0-24.0-0.9","","","","passed","","","","","","","","","","","","","","","","","ballFalling","604.4000000000001","650.0211431702996","404.58000000000004","11","fallScene","true","","","","106","",""
"","","","","","html-keyboard-response","276","574114","0.0-24.0-1.9","","","","passed","","1209","","","","","","","","","","","","","","f","yesOrNo","","","","11","","","gt","3000","","106","650.0211431702996","404.58"
"","","","","","html-keyboard-response","277","576118","0.0-24.0-0.10","","","","passed","","","","","","","","","","","","","","","","","ballFalling","500","510.8711431702997","369.03","8","fallScene","true","","","","107","",""
"","","","","","html-keyboard-response","278","576939","0.0-24.0-1.10","","","","passed","","818","","","","","","","","","","","","","","j","yesOrNo","","","","8","","","mid","3000","","107","501","300"
"","","","","","html-keyboard-response","279","578953","0.0-24.0-0.11","","","","passed","","","","","","","","","","","","","","","","","ballFalling","604.4000000000001","596.8711431702998","394.5","10","fallScene","true","","","","108","",""
"","","","","","html-keyboard-response","280","579810","0.0-24.0-1.11","","","","passed","","854","","","","","","","","","","","","","","f","yesOrNo","","","","10","","","mid","3000","","108","536.4288568297004","300"
"","","","","","html-keyboard-response","281","581369","0.0-24.0-0.12","","","","passed","","","","","","","","","","","","","","","","","ballFalling","604.4000000000001","650.0211431702996","404.58000000000004","11","fallScene","true","","","","109","",""
"","","","","","html-keyboard-response","282","581908","0.0-24.0-1.12","","","","passed","","538","","","","","","","","","","","","","","j","yesOrNo","","","","11","","","lp","3000","","109","605.4000000000001","372.6340973215488"
"","","","","","html-keyboard-response","283","583701","0.0-24.0-0.13","","","","passed","","","","","","","","","","","","","","","","","ballFalling","322.3","308.07114317029976","253.89","2","fallScene","true","","","","110","",""
"","","","","","html-keyboard-response","284","584171","0.0-24.0-1.13","","","","passed","","466","","","","","","","","","","","","","","f","yesOrNo","","","","2","","","lp","3000","","110","321.3","151"
"","","","","","html-keyboard-response","285","585738","0.0-24.0-0.14","","","","passed","","","","","","","","","","","","","","","","","ballFalling","322.3","379.3711431702997","245.25","1","fallScene","true","","","","111","",""
"","","","","","html-keyboard-response","286","586357","0.0-24.0-1.14","","","","passed","","618","","","","","","","","","","","","","","j","yesOrNo","","","","1","","","mid","3000","","111","390.27114317029975","300"
"","","","","","html-keyboard-response","287","587918","0.0-24.0-0.15","","","","passed","","","","","","","","","","","","","","","","","ballFalling","604.4000000000001","575.4211431702997","266.76","12","fallScene","false","","","","112","",""
"","","","","","html-keyboard-response","288","588460","0.0-24.0-1.15","","","","passed","","541","","","","","","","","","","","","","","f","yesOrNo","","","","12","","","lp","3000","","112","603.4000000000001","151"
"","","","","","html-keyboard-response","289","590020","0.0-24.0-0.16","","","","passed","","","","","","","","","","","","","","","","","ballFalling","322.3","356.42114317029973","357.87","4","fallScene","false","","","","113","",""
"","","","","","html-keyboard-response","290","590699","0.0-24.0-1.16","","","","passed","","675","","","","","","","","","","","","","","j","yesOrNo","","","","4","","","mid","3000","","113","390.27114317029975","300"
"","","","","","html-keyboard-response","291","592253","0.0-24.0-0.17","","","","passed","","","","","","","","","","","","","","","","","ballFalling","500","453.67114317029973","210.33","5","fallScene","false","","","","114","",""
"","","","","","html-keyboard-response","292","592667","0.0-24.0-1.17","","","","passed","","413","","","","","","","","","","","","","","f","yesOrNo","","","","5","","","gt","3000","","114","453.6711431702998","210.33"
"","","","","","html-keyboard-response","293","594220","0.0-24.0-0.18","","","","passed","","","","","","","","","","","","","","","","","ballFalling","322.3","379.3711431702997","245.25","1","fallScene","false","","","","115","",""
"","","","","","html-keyboard-response","294","594572","0.0-24.0-1.18","","","","passed","","348","","","","","","","","","","","","","","j","yesOrNo","","","","1","","","mid","3000","","115","390.27114317029975","300"
"","","","","","html-keyboard-response","295","596135","0.0-24.0-0.19","","","","passed","","","","","","","","","","","","","","","","","ballFalling","604.4000000000001","575.4211431702997","266.76","12","fallScene","false","","","","116","",""
"","","","","","html-keyboard-response","296","596494","0.0-24.0-1.19","","","","passed","","357","","","","","","","","","","","","","","f","yesOrNo","","","","12","","","lp","3000","","116","603.4000000000001","151"
"","","","","","html-keyboard-response","297","598052","0.0-24.0-0.20","","","","passed","","","","","","","","","","","","","","","","","ballFalling","604.4000000000001","650.0211431702996","404.58000000000004","11","fallScene","true","","","","117","",""
"","","","","","html-keyboard-response","298","598469","0.0-24.0-1.20","","","","passed","","414","","","","","","","","","","","","","","j","yesOrNo","","","","11","","","gt","3000","","117","650.0211431702996","404.58"
"","","","","","html-keyboard-response","299","600252","0.0-24.0-0.21","","","","passed","","","","","","","","","","","","","","","","","ballFalling","322.3","308.07114317029976","253.89","2","fallScene","true","","","","118","",""
"","","","","","html-keyboard-response","300","600643","0.0-24.0-1.21","","","","passed","","387","","","","","","","","","","","","","","f","yesOrNo","","","","2","","","gt","3000","","118","308.07114317029976","253.89"
"","","","","","html-keyboard-response","301","602652","0.0-24.0-0.22","","","","passed","","","","","","","","","","","","","","","","","ballFalling","500","510.8711431702997","369.03","8","fallScene","false","","","","119","",""
"","","","","","html-keyboard-response","302","603058","0.0-24.0-1.22","","","","passed","","401","","","","","","","","","","","","","","j","yesOrNo","","","","8","","","gt","3000","","119","510.8711431702997","369.03"
"","","","","","html-keyboard-response","303","605068","0.0-24.0-0.23","","","","passed","","","","","","","","","","","","","","","","","ballFalling","500","510.8711431702997","369.03","8","fallScene","false","","","","120","",""
"","","","","","html-keyboard-response","304","605570","0.0-24.0-1.23","","","","passed","","499","","","","","","","","","","","","","","f","yesOrNo","","","","8","","","lp","3000","","120","501","151"
"","","","","","html-keyboard-response","305","607280","0.0-25.0","","","","passed","","1710","","","","","","","","","","","","","<p><span style=""font-size:40px;"">BLOCK 6</span></p><p><span style=""font-size:25px;"">You have <strong>1 second(s)</strong> to respond to the following trials.</span><br></p><p></p> <!-- Blank line -->
                <p id=""blinking-text"" style=""font-weight; animation: blink 2s infinite;"">Press Space to continue</p>
                <style>
                    @keyframes blink {
                        50% {
                            opacity: 0;
                        }
                    }
                </style></p>"," ","","","","","","","","","","","","",""
"","","","","","html-keyboard-response","306","608836","0.0-26.0-0.0","","","","passed","","","","","","","","","","","","","","","","","ballFalling","322.3","356.42114317029973","357.87","4","fallScene","true","","","","121","",""
"","","","","","html-keyboard-response","307","609487","0.0-26.0-1.0","","","","passed","","649","","","","","","","","","","","","","","j","yesOrNo","","","","4","","","lp","1000","","121","323.3","297.4070551689986"
"","","","","","html-keyboard-response","308","610985","0.0-26.0-0.1","","","","passed","","","","","","","","","","","","","","","","","ballFalling","604.4000000000001","667.6211431702998","201.78","9","fallScene","false","","","","122","",""
"","","","","","html-keyboard-response","309","611370","0.0-26.0-1.1","","","","passed","","381","","","","","","","","","","","","","","f","yesOrNo","","","","9","","","lp","1000","","122","605.4000000000001","151"
"","","","","","html-keyboard-response","310","612936","0.0-26.0-0.2","","","","passed","","","","","","","","","","","","","","","","","ballFalling","322.3","379.3711431702997","245.25","1","fallScene","false","","","","123","",""
"","","","","","html-keyboard-response","311","613442","0.0-26.0-1.2","","","","passed","","502","","","","","","","","","","","","","","j","yesOrNo","","","","1","","","mid","1000","","123","390.27114317029975","300"
"","","","","","html-keyboard-response","312","615003","0.0-26.0-0.3","","","","passed","","","","","","","","","","","","","","","","","ballFalling","322.3","379.3711431702997","245.25","1","fallScene","true","","","","124","",""
"","","","","","html-keyboard-response","313","615354","0.0-26.0-1.3","","","","passed","","350","","","","","","","","","","","","","","f","yesOrNo","","","","1","","","gt","1000","","124","379.3711431702997","245.25"
"","","","","","html-keyboard-response","314","616936","0.0-26.0-0.4","","","","passed","","","","","","","","","","","","","","","","","ballFalling","500","553.4711431702997","282.51","7","fallScene","false","","","","125","",""
"","","","","","html-keyboard-response","315","617244","0.0-26.0-1.4","","","","passed","","305","","","","","","","","","","","","","","j","yesOrNo","","","","7","","","lp","1000","","125","501","227.2843295913261"
"","","","","","html-keyboard-response","316","618903","0.0-26.0-0.5","","","","passed","","","","","","","","","","","","","","","","","ballFalling","500","479.92114317029973","330.87","6","fallScene","false","","","","126","",""
"","","","","","html-keyboard-response","317","619239","0.0-26.0-1.5","","","","passed","","332","","","","","","","","","","","","","","f","yesOrNo","","","","6","","","lp","1000","","126","499","189.92909825697632"
"","","","","","html-keyboard-response","318","620801","0.0-26.0-0.6","","","","passed","","","","","","","","","","","","","","","","","ballFalling","500","453.67114317029973","210.33","5","fallScene","true","","","","127","",""
"","","","","","html-keyboard-response","319","621282","0.0-26.0-1.6","","","","passed","","480","","","","","","","","","","","","","","j","yesOrNo","","","","5","","","mid","1000","","127","499","300"
"","","","","","html-keyboard-response","320","622853","0.0-26.0-0.7","","","","passed","","","","","","","","","","","","","","","","","ballFalling","500","553.4711431702997","282.51","7","fallScene","true","","","","128","",""
"","","","","","html-keyboard-response","321","623379","0.0-26.0-1.7","","","","passed","","525","","","","","","","","","","","","","","f","yesOrNo","","","","7","","","lp","1000","","128","501","227.2843295913261"
"","","","","","html-keyboard-response","322","624952","0.0-26.0-0.8","","","","passed","","","","","","","","","","","","","","","","","ballFalling","500","553.4711431702997","282.51","7","fallScene","true","","","","129","",""
"","","","","","html-keyboard-response","323","625292","0.0-26.0-1.8","","","","passed","","338","","","","","","","","","","","","","","j","yesOrNo","","","","7","","","mid","1000","","129","501","300"
"","","","","","html-keyboard-response","324","626853","0.0-26.0-0.9","","","","passed","","","","","","","","","","","","","","","","","ballFalling","322.3","379.3711431702997","245.25","1","fallScene","true","","","","130","",""
"","","","","","html-keyboard-response","325","627347","0.0-26.0-1.9","","","","passed","","491","","","","","","","","","","","","","","f","yesOrNo","","","","1","","","mid","1000","","130","390.27114317029975","300"
"","","","","","html-keyboard-response","326","628902","0.0-26.0-0.10","","","","passed","","","","","","","","","","","","","","","","","ballFalling","322.3","379.3711431702997","245.25","1","fallScene","false","","","","131","",""
"","","","","","html-keyboard-response","327","629251","0.0-26.0-1.10","","","","passed","","348","","","","","","","","","","","","","","j","yesOrNo","","","","1","","","lp","1000","","131","323.3","217.74551669457017"
"","","","","","html-keyboard-response","328","631253","0.0-26.0-0.11","","","","passed","","","","","","","","","","","","","","","","","ballFalling","500","510.8711431702997","369.03","8","fallScene","false","","","","132","",""
"","","","","","html-keyboard-response","329","631625","0.0-26.0-1.11","","","","passed","","369","","","","","","","","","","","","","","f","yesOrNo","","","","8","","","gt","1000","","132","510.8711431702997","369.03"
"","","","","","html-keyboard-response","330","633185","0.0-26.0-0.12","","","","passed","","","","","","","","","","","","","","","","","ballFalling","322.3","296.07114317029976","371.46","3","fallScene","true","","","","133","",""
"","","","","","html-keyboard-response","331","633486","0.0-26.0-1.12","","","","passed","","297","","","","","","","","","","","","","","j","yesOrNo","","","","3","","","gt","1000","","133","296.07114317029976","371.46"
"","","","","","html-keyboard-response","332","635053","0.0-26.0-0.13","","","","passed","","","","","","","","","","","","","","","","","ballFalling","322.3","356.42114317029973","357.87","4","fallScene","true","","","","134","",""
"","","","","","html-keyboard-response","333","635393","0.0-26.0-1.13","","","","passed","","337","","","","","","","","","","","","","","f","yesOrNo","","","","4","","","gt","1000","","134","356.42114317029973","357.87"
"","","","","","html-keyboard-response","334","636956","0.0-26.0-0.14","","","","passed","","","","","","","","","","","","","","","","","ballFalling","604.4000000000001","575.4211431702997","266.76","12","fallScene","true","","","","135","",""
"","","","","","html-keyboard-response","335","637289","0.0-26.0-1.14","","","","passed","","331","","","","","","","","","","","","","","j","yesOrNo","","","","12","","","lp","1000","","135","603.4000000000001","151"
"","","","","","html-keyboard-response","336","639302","0.0-26.0-0.15","","","","passed","","","","","","","","","","","","","","","","","ballFalling","500","510.8711431702997","369.03","8","fallScene","false","","","","136","",""
"","","","","","html-keyboard-response","337","639626","0.0-26.0-1.15","","","","passed","","322","","","","","","","","","","","","","","f","yesOrNo","","","","8","","","mid","1000","","136","501","300"
"","","","","","html-keyboard-response","338","641418","0.0-26.0-0.16","","","","passed","","","","","","","","","","","","","","","","","ballFalling","322.3","308.07114317029976","253.89","2","fallScene","true","","","","137","",""
"","","","","","html-keyboard-response","339","641724","0.0-26.0-1.16","","","","passed","","304","","","","","","","","","","","","","","j","yesOrNo","","","","2","","","mid","1000","","137","321.3","300"
"","","","","","html-keyboard-response","340","643387","0.0-26.0-0.17","","","","passed","","","","","","","","","","","","","","","","","ballFalling","500","479.92114317029973","330.87","6","fallScene","false","","","","138","",""
"","","","","","html-keyboard-response","341","643904","0.0-26.0-1.17","","","","passed","","515","","","","","","","","","","","","","","f","yesOrNo","","","","6","","","gt","1000","","138","479.9211431702998","330.87"
"","","","","","html-keyboard-response","342","645403","0.0-26.0-0.18","","","","passed","","","","","","","","","","","","","","","","","ballFalling","604.4000000000001","667.6211431702998","201.78","9","fallScene","false","","","","139","",""
"","","","","","html-keyboard-response","343","645903","0.0-26.0-1.18","","","","passed","","499","","","","","","","","","","","","","","j","yesOrNo","","","","9","","","gt","1000","","139","667.6211431702998","201.78"
"","","","","","html-keyboard-response","344","647469","0.0-26.0-0.19","","","","passed","","","","","","","","","","","","","","","","","ballFalling","604.4000000000001","575.4211431702997","266.76","12","fallScene","false","","","","140","",""
"","","","","","html-keyboard-response","345","647938","0.0-26.0-1.19","","","","passed","","467","","","","","","","","","","","","","","f","yesOrNo","","","","12","","","gt","1000","","140","575.4211431702997","266.76"
"","","","","","html-keyboard-response","346","649436","0.0-26.0-0.20","","","","passed","","","","","","","","","","","","","","","","","ballFalling","604.4000000000001","667.6211431702998","201.78","9","fallScene","true","","","","141","",""
"","","","","","html-keyboard-response","347","649877","0.0-26.0-1.20","","","","passed","","436","","","","","","","","","","","","","","j","yesOrNo","","","","9","","","mid","1000","","141","605.4000000000001","300"
"","","","","","html-keyboard-response","348","651435","0.0-26.0-0.21","","","","passed","","","","","","","","","","","","","","","","","ballFalling","500","453.67114317029973","210.33","5","fallScene","true","","","","142","",""
"","","","","","html-keyboard-response","349","651786","0.0-26.0-1.21","","","","passed","","350","","","","","","","","","","","","","","f","yesOrNo","","","","5","","","gt","1000","","142","453.6711431702998","210.33"
"","","","","","html-keyboard-response","350","653352","0.0-26.0-0.22","","","","passed","","","","","","","","","","","","","","","","","ballFalling","604.4000000000001","650.0211431702996","404.58000000000004","11","fallScene","false","","","","143","",""
"","","","","","html-keyboard-response","351","653749","0.0-26.0-1.22","","","","passed","","393","","","","","","","","","","","","","","j","yesOrNo","","","","11","","","mid","1000","","143","605.4000000000001","300"
"","","","","","html-keyboard-response","352","655303","0.0-26.0-0.23","","","","passed","","","","","","","","","","","","","","","","","ballFalling","322.3","356.42114317029973","357.87","4","fallScene","false","","","","144","",""
"","","","","","html-keyboard-response","353","655616","0.0-26.0-1.23","","","","passed","","310","","","","","","","","","","","","","","f","yesOrNo","","","","4","","","lp","1000","","144","323.3","297.4070551689986"
"","","","","","survey-text","354","666500","0.0-27.0","","","","passed","","10880","","","","","","","","","","","","","","{""Summary"":""niceeee check data pipeline you can do it!""}","","","","","","","","","","","","",""
"","","","","","survey-text","355","670966","0.0-28.0","","","","passed","","4464","","","","","","","","","","","","","","{""Comments"":"";)""}","","","","","","","","","","","","",""
