"success","timeout","failed_images","failed_audio","failed_video","trial_type","trial_index","time_elapsed","internal_node_id","subject_id","study_id","session_id","practiceTestResult","view_history","rt","width","height","webaudio","browser","browser_version","mobile","os","fullscreen","vsync_rate","webcam","microphone","url","stimulus","response","task","ball_X","obstacle_groundTruth_x","obstacle_groundTruth_y","stimulus_idx","trial_name","flipped","choice","timeLimit","question_order","currentTrial","obstacle_choice_x","obstacle_choice_y"
"true","false","[]","[]","[]","preload","0","4","0.0-0.0","","","","passed","","","","","","","","","","","","","","","","","","","","","","","","","","","","",""
"","","","","","instructions","1","7647","0.0-1.0","","","","passed","[{""page_index"":0,""viewing_time"":7642}]","7642","","","","","","","","","","","","","","","","","","","","","","","","","","",""
"","","","","","browser-check","2","8633","0.0-2.0","","","","passed","","","1430","822","true","chrome","131.0.0","false","Mac OS","true","60.95","true","true","","","","","","","","","","","","","","","",""
"","","","","","external-html","3","10783","0.0-3.0","","","","passed","","2108","","","","","","","","","","","","consent.html","","","","","","","","","","","","","","",""
"true","","","","","fullscreen","4","12466","0.0-4.0","","","","passed","","1379","","","","","","","","","","","","","","","","","","","","","","","","","","",""
"","","","","","browser-check","5","13466","0.0-5.0","","","","passed","","","2133","1200","true","chrome","131.0.0","false","Mac OS","true","60.04","true","true","","","","","","","","","","","","","","","",""
"","","","","","html-keyboard-response","6","14568","0.0-6.0","","","","passed","","1100","","","","","","","","","","","","","<p><b>This experiment requires keyboard input.</b></p> 
        <p><b>To ensure your response will be recorded successfully, please press 'Space' to continue.</b></p>
        <p>If you can't proceed, you won't be able to complete this study.</p>
        <p></p> <!-- Blank line -->
        <p id=""blinking-text"" style=""font-weight; animation: blink 2s infinite;"">Press Space to continue</p>
        <style>
            @keyframes blink {
                50% {
                    opacity: 0;
                }
            }
        </style>"," ","","","","","","","","","","","","",""
"","","","","","html-keyboard-response","7","14954","0.0-7.0","","","","passed","","385","","","","","","","","","","","","","<p><b>This experiment requires keyboard input.</b></p> 
        <p><b>To ensure your response will be recorded successfully, please press the 'f' key to continue.</b></p>
        <p>If you can't proceed, you won't be able to complete this study.</p>
        <p></p> <!-- Blank line -->
        <p id=""blinking-text"" style=""font-weight; animation: blink 2s infinite;"">Press f to continue</p>
        <style>
            @keyframes blink {
                50% {
                    opacity: 0;
                }
            }
        </style>","f","","","","","","","","","","","","",""
"","","","","","html-keyboard-response","8","15164","0.0-8.0","","","","passed","","208","","","","","","","","","","","","","<p><b>This experiment requires keyboard input.</b></p> 
        <p><b>To ensure your response will be recorded successfully, please press the 'j' key to continue.</b></p>
        <p>If you can't proceed, you won't be able to complete this study.</p>
        <p></p> <!-- Blank line -->
        <p id=""blinking-text"" style=""font-weight; animation: blink 2s infinite;"">Press j to continue</p>
        <style>
            @keyframes blink {
                50% {
                    opacity: 0;
                }
            }
        </style>","j","","","","","","","","","","","","",""
"","","","","","browser-check","9","16166","0.0-9.0","","","","passed","","","2133","1200","true","chrome","131.0.0","false","Mac OS","true","60.02","true","true","","","","","","","","","","","","","","","",""
"","","","","","survey-text","10","25969","0.0-10.0","","","","passed","","9803","","","","","","","","","","","","","","{""prolificID"":""cindyFullTest3""}","","","","","","","","","","","","",""
"","","","","","instructions","11","28983","0.0-11.0-0.0-0.0","","","","passed","[{""page_index"":0,""viewing_time"":927},{""page_index"":1,""viewing_time"":616},{""page_index"":2,""viewing_time"":785},{""page_index"":3,""viewing_time"":683}]","3013","","","","","","","","","","","","","","","","","","","","","","","","","","",""
"","","","","","html-keyboard-response","12","30661","0.0-11.0-0.0-1.0","","","","passed","","1173","","","","","","","","","","","","","<br>Remember! After a ball falls, the screen will disappear, and you'll decide if the proposed position is where the hidden triangle was. <br>You will now practice this by watching a few videos and making decisions.<p>To respond:<br style=""margin-bottom: 5px; text-indent: -20px; padding-left: 20px;"">- Press <b style=""color: #12AD2B;"">J for Yes</b>, if you think the triangle is in the correct position.<br style=""margin-top: 0; text-indent: -20px; padding-left: 20px;"">- Press <b style=""color: orange;"">F for No</b>, if you think the triangle is not in the correct position.</p><p>In this practice round, there is no time limit. Focus on getting comfortable with the task first.<br>Press either J or F to begin your practice trials.</p><img src = ""YesOrNo_instruction.png"" style=""width: 65%;""></img>","f","","","","","","","","","","","","",""
"","","","","","html-keyboard-response","13","32768","0.0-11.0-0.0-2.0-0.0","","","","passed","","","","","","","","","","","","","","","","","ballFalling_prac","660","666","350","3","fallScene","false","","","","","",""
"","","","","","html-keyboard-response","14","35534","0.0-11.0-0.0-2.0-1.0","","","","passed","","2763","","","","","","","","","","","","","","f","yesOrNo_prac_noTimed","","","","3","","","wrong direction","NA","","","",""
"","","","","","html-keyboard-response","15","37102","0.0-11.0-0.0-2.0-0.1","","","","passed","","","","","","","","","","","","","","","","","ballFalling_prac","441","414","302","5","fallScene","true","","","","","",""
"","","","","","html-keyboard-response","16","38292","0.0-11.0-0.0-2.0-1.1","","","","passed","","1186","","","","","","","","","","","","","","j","yesOrNo_prac_noTimed","","","","5","","","close gt","NA","","","",""
"","","","","","html-keyboard-response","17","39851","0.0-11.0-0.0-2.0-0.2","","","","passed","","","","","","","","","","","","","","","","","ballFalling_prac","416","464","296","1","fallScene","false","","","","","",""
"","","","","","html-keyboard-response","18","40590","0.0-11.0-0.0-2.0-1.2","","","","passed","","735","","","","","","","","","","","","","","j","yesOrNo_prac_noTimed","","","","1","","","gt","NA","","","",""
"","","","","","instructions","19","43061","0.0-11.0-0.0-3.0","","","","passed","[{""page_index"":0,""viewing_time"":1573},{""page_index"":1,""viewing_time"":897}]","2471","","","","","","","","","","","","","","","","","","","","","","","","","","",""
"","","","","","html-button-response","20","47034","0.0-11.0-0.0-4.0","","","","passed","","3469","","","","","","","","","","","","","<p>To make sure you understood the task, we just have a <b>brief quiz</b> here.</p><p>If you need to review the instructions, click 'Previous'.</p><p>It's important to understand the task to do the study, so you have to pass the quiz to move to the study.</p>","1","","","","","","","","","","","","",""
"","","","","","survey-multi-choice","21","52533","0.0-11.0-1.0-0.0","","","","passed","","5497","","","","","","","","","","","","","","{""generalProcedure"":""Watch a video of a ball falling, some of it behind a gray screen. After each video, decide if the triangle is at the spot where the ball hit the triangle behind the screen. There is time limit for the response.""}","","","","","","","","","","[0]","","",""
"","","","","","survey-multi-choice","22","55583","0.0-11.0-1.0-1.0","","","","passed","","3048","","","","","","","","","","","","","","{""checkBallHitObstacle"":""Yes.""}","","","","","","","","","","[0]","","",""
"","","","","","survey-multi-choice","23","59533","0.0-11.0-1.0-2.0","","","","passed","","3947","","","","","","","","","","","","","","{""checkTriangleVisibility"":""No, the triangle is hidden behind the gray screen.""}","","","","","","","","","","[0]","","",""
"","","","","","survey-multi-choice","24","61651","0.0-11.0-1.0-3.0","","","","passed","","2115","","","","","","","","","","","","","","{""checkTimedResponse"":""Your response will not be recorded, and the trial will move to the next one.""}","","","","","","","","","","[0]","","",""
"","","","","","survey-multi-choice","25","70667","0.0-11.0-1.0-4.0","","","","passed","","9014","","","","","","","","","","","","","","{""checkTimeBlockNotice"":""At the beginning of each block.""}","","","","","","","","","","[0]","","",""
"","","","","","survey-multi-choice","26","78335","0.0-11.0-1.0-5.0","","","","passed","","7666","","","","","","","","","","","","","","{""checkTimeBlockSameness"":""Yes, the time limit is the same for all trials within a block.""}","","","","","","","","","","[0]","","",""
"","","","","","survey-multi-choice","27","80502","0.0-11.0-1.0-6.0","","","","passed","","2165","","","","","","","","","","","","","","{""checkTrianglePrecision"":""No. The proposed purple triangle is not in the correct position because it doesn't match the location of the white triangle exactly.""}","","","","","","","","","","[0]","","",""
"","","","","","instructions","28","84085","0.0-12.0","","","","passed","[{""page_index"":0,""viewing_time"":1279},{""page_index"":1,""viewing_time"":1199},{""page_index"":2,""viewing_time"":536},{""page_index"":3,""viewing_time"":567}]","3582","","","","","","","","","","","","","","","","","","","","","","","","","","",""
"","","","","","instructions","29","85133","0.0-13.0-0.0","","","","passed","[{""page_index"":0,""viewing_time"":1047}]","1048","","","","","","","","","","","","","","","","","","","","","","","","","","",""
"","","","","","html-keyboard-response","30","86842","0.0-13.0-1.0","","","","passed","","1706","","","","","","","","","","","","","<p><span style=""font-size:40px;"">Practice BLOCK 1</span></p><p><span style=""font-size:25px;"">You have <strong>3 second(s)</strong> to respond to the following trials.</span><br></p><p id=""blinking-text"" style=""font-weight; animation: blink 2s infinite;"">Press Space to continue</p><style>
                    @keyframes blink {
                        50% {
                            opacity: 0;
                        }
                    }
                </style>"," ","","","","","","","","","","","","",""
"","","","","","html-keyboard-response","31","88403","0.0-13.0-2.0-0.0","","","","passed","","","","","","","","","","","","","","","","","ballFalling_prac","416","464","296","1","fallScene","false","","","","","",""
"","","","","","html-keyboard-response","32","88723","0.0-13.0-2.0-1.0","","","","passed","","315","","","","","","","","","","","","","","j","yesOrNo_prac","","","","1","","","far gt","3000","","","",""
"","","","","","html-keyboard-response","33","90287","0.0-13.0-2.0-0.1","","","","passed","","","","","","","","","","","","","","","","","ballFalling_prac","584","536","296","1","fallScene","true","","","","","",""
"","","","","","html-keyboard-response","34","90768","0.0-13.0-2.0-1.1","","","","passed","","478","","","","","","","","","","","","","","j","yesOrNo_prac","","","","1","","","close gt","3000","","","",""
"","","","","","html-keyboard-response","35","92338","0.0-13.0-2.0-0.2","","","","passed","","","","","","","","","","","","","","","","","ballFalling_prac","660","610","263","4","fallScene","false","","","","","",""
"","","","","","html-keyboard-response","36","92855","0.0-13.0-2.0-1.2","","","","passed","","516","","","","","","","","","","","","","","j","yesOrNo_prac","","","","4","","","gt","3000","","","",""
"","","","","","html-keyboard-response","37","93540","0.0-13.0-3.0","","","","passed","","684","","","","","","","","","","","","","<p><span style=""font-size:40px;"">Practice BLOCK 2</span></p><p><span style=""font-size:25px;"">You have <strong>1 second(s)</strong> to respond to the following trials.</span><br></p><p id=""blinking-text"" style=""font-weight; animation: blink 2s infinite;"">Press Space to continue</p><style>
                    @keyframes blink {
                        50% {
                            opacity: 0;
                        }
                    }
                </style>"," ","","","","","","","","","","","","",""
"","","","","","html-keyboard-response","38","95654","0.0-13.0-4.0-0.0","","","","passed","","","","","","","","","","","","","","","","","ballFalling_prac","340","334","350","3","fallScene","true","","","","","",""
"","","","","","html-keyboard-response","39","96245","0.0-13.0-4.0-1.0","","","","passed","","587","","","","","","","","","","","","","","j","yesOrNo_prac","","","","3","","","close gt","1000","","","",""
"","","","","","html-keyboard-response","40","97821","0.0-13.0-4.0-0.1","","","","passed","","","","","","","","","","","","","","","","","ballFalling_prac","660","610","263","4","fallScene","false","","","","","",""
"","","","","","html-keyboard-response","41","98508","0.0-13.0-4.0-1.1","","","","passed","","683","","","","","","","","","","","","","","f","yesOrNo_prac","","","","4","","","far gt","1000","","","",""
"","","","","","html-keyboard-response","42","100071","0.0-13.0-4.0-0.2","","","","passed","","","","","","","","","","","","","","","","","ballFalling_prac","441","500","317","6","fallScene","true","","","","","",""
"","","","","","html-keyboard-response","43","100408","0.0-13.0-4.0-1.2","","","","passed","","334","","","","","","","","","","","","","","j","yesOrNo_prac","","","","6","","","gt","1000","","","",""
"","","","","","instructions","44","103470","0.0-13.0-5.0","","","","passed","[{""page_index"":0,""viewing_time"":3061}]","3061","","","","","","","","","","","","","","","","","","","","","","","","","","",""
"","","","","","html-keyboard-response","45","104187","0.0-13.0-6.0","","","","passed","","716","","","","","","","","","","","","","<p><span style=""font-size:40px;"">Practice Test BLOCK 1</span></p><p><span style=""font-size:25px;"">You have <strong>1 second(s)</strong> to respond to the following trials.</span><br></p><p id=""blinking-text"" style=""font-weight; animation: blink 2s infinite;"">Press Space to continue</p><style>
                    @keyframes blink {
                        50% {
                            opacity: 0;
                        }
                    }
                </style>"," ","","","","","","","","","","","","",""
"","","","","","html-keyboard-response","46","105755","0.0-13.0-7.0-0.0","","","","passed","","","","","","","","","","","","","","","","","ballFalling_prac","441","500","317","6","fallScene","true","","","","","",""
"","","","","","html-keyboard-response","47","106259","0.0-13.0-7.0-1.0","","","","passed","","500","","","","","","","","","","","","","","j","yesOrNo_prac","","","","6","","","close gt","1000","","","",""
"","","","","","html-keyboard-response","48","107838","0.0-13.0-7.0-0.1","","","","passed","","","","","","","","","","","","","","","","","ballFalling_prac","340","390","263","4","fallScene","true","","","","","",""
"","","","","","html-keyboard-response","49","108420","0.0-13.0-7.0-1.1","","","","passed","","579","","","","","","","","","","","","","","f","yesOrNo_prac","","","","4","","","far gt","1000","","","",""
"","","","","","html-keyboard-response","50","109988","0.0-13.0-7.0-0.2","","","","passed","","","","","","","","","","","","","","","","","ballFalling_prac","559","586","302","5","fallScene","false","","","","","",""
"","","","","","html-keyboard-response","51","110635","0.0-13.0-7.0-1.2","","","","passed","","644","","","","","","","","","","","","","","j","yesOrNo_prac","","","","5","","","gt","1000","","","",""
"","","","","","html-keyboard-response","52","111483","0.0-13.0-8.0","","","","passed","","847","","","","","","","","","","","","","<p><span style=""font-size:40px;"">Practice Test BLOCK 2</span></p><p><span style=""font-size:25px;"">You have <strong>3 second(s)</strong> to respond to the following trials.</span><br></p><p id=""blinking-text"" style=""font-weight; animation: blink 2s infinite;"">Press Space to continue</p><style>
                    @keyframes blink {
                        50% {
                            opacity: 0;
                        }
                    }
                </style>"," ","","","","","","","","","","","","",""
"","","","","","html-keyboard-response","53","113055","0.0-13.0-9.0-0.0","","","","passed","","","","","","","","","","","","","","","","","ballFalling_prac","416","365","249","2","fallScene","false","","","","","",""
"","","","","","html-keyboard-response","54","113585","0.0-13.0-9.0-1.0","","","","passed","","526","","","","","","","","","","","","","","j","yesOrNo_prac","","","","2","","","gt","3000","","","",""
"","","","","","html-keyboard-response","55","115155","0.0-13.0-9.0-0.1","","","","passed","","","","","","","","","","","","","","","","","ballFalling_prac","559","586","302","5","fallScene","false","","","","","",""
"","","","","","html-keyboard-response","56","115725","0.0-13.0-9.0-1.1","","","","passed","","567","","","","","","","","","","","","","","f","yesOrNo_prac","","","","5","","","far gt","3000","","","",""
"","","","","","html-keyboard-response","57","117305","0.0-13.0-9.0-0.2","","","","passed","","","","","","","","","","","","","","","","","ballFalling_prac","340","390","263","4","fallScene","true","","","","","",""
"","","","","","html-keyboard-response","58","117883","0.0-13.0-9.0-1.2","","","","passed","","575","","","","","","","","","","","","","","j","yesOrNo_prac","","","","4","","","close gt","3000","","","",""
"","","","","","instructions","59","121265","0.0-14.0","","","","passed","[{""page_index"":0,""viewing_time"":3380}]","3381","","","","","","","","","","","","","","","","","","","","","","","","","","",""
"","","","","","html-keyboard-response","60","122054","0.0-15.0","","","","passed","","788","","","","","","","","","","","","","<p><span style=""font-size:40px;"">BLOCK 1</span></p><p><span style=""font-size:25px;"">You have <strong>1 second(s)</strong> to respond to the following trials.</span><br></p><p></p> <!-- Blank line -->
                <p id=""blinking-text"" style=""font-weight; animation: blink 2s infinite;"">Press Space to continue</p>
                <style>
                    @keyframes blink {
                        50% {
                            opacity: 0;
                        }
                    }
                </style></p>"," ","","","","","","","","","","","","",""
"","","","","","html-keyboard-response","61","123838","0.0-16.0-0.0","","","","passed","","","","","","","","","","","","","","","","","ballFalling","322.3","308.07114317029976","253.89","2","fallScene","true","","","","1","",""
"","","","","","html-keyboard-response","62","124194","0.0-16.0-1.0","","","","passed","","352","","","","","","","","","","","","","","f","yesOrNo","","","","2","","","gt","1000","","1","308.07114317029976","253.89"
"","","","","","html-keyboard-response","63","125755","0.0-16.0-0.1","","","","passed","","","","","","","","","","","","","","","","","ballFalling","500","453.67114317029973","210.33","5","fallScene","false","","","","2","",""
"","","","","","html-keyboard-response","64","125902","0.0-16.0-1.1","","","","passed","","145","","","","","","","","","","","","","","f","yesOrNo","","","","5","","","gt","1000","","2","453.6711431702998","210.33"
"","","","","","html-keyboard-response","65","127454","0.0-16.0-0.2","","","","passed","","","","","","","","","","","","","","","","","ballFalling","604.4000000000001","575.4211431702997","266.76","12","fallScene","true","","","","3","",""
"","","","","","html-keyboard-response","66","127767","0.0-16.0-1.2","","","","passed","","309","","","","","","","","","","","","","","j","yesOrNo","","","","12","","","lp","1000","","3","603.4000000000001","151"
"","","","","","html-keyboard-response","67","129321","0.0-16.0-0.3","","","","passed","","","","","","","","","","","","","","","","","ballFalling","604.4000000000001","650.0211431702996","404.58000000000004","11","fallScene","false","","","","4","",""
"","","","","","html-keyboard-response","68","129453","0.0-16.0-1.3","","","","passed","","128","","","","","","","","","","","","","","f","yesOrNo","","","","11","","","lp","1000","","4","605.4000000000001","372.6340973215488"
"","","","","","html-keyboard-response","69","131456","0.0-16.0-0.4","","","","passed","","","","","","","","","","","","","","","","","ballFalling","500","510.8711431702997","369.03","8","fallScene","false","","","","5","",""
"","","","","","html-keyboard-response","70","132459","0.0-16.0-1.4","","","","passed","","null","","","","","","","","","","","","","","null","yesOrNo","","","","8","","","lp","1000","","5","501","151"
"","","","","","html-keyboard-response","71","134472","0.0-16.0-0.5","","","","passed","","","","","","","","","","","","","","","","","ballFalling","604.4000000000001","596.8711431702998","394.5","10","fallScene","true","","","","6","",""
"","","","","","html-keyboard-response","72","134925","0.0-16.0-1.5","","","","passed","","450","","","","","","","","","","","","","","j","yesOrNo","","","","10","","","mid","1000","","6","536.4288568297004","300"
"","","","","","html-keyboard-response","73","136506","0.0-16.0-0.6","","","","passed","","","","","","","","","","","","","","","","","ballFalling","500","553.4711431702997","282.51","7","fallScene","true","","","","7","",""
"","","","","","html-keyboard-response","74","137025","0.0-16.0-1.6","","","","passed","","516","","","","","","","","","","","","","","f","yesOrNo","","","","7","","","mid","1000","","7","501","300"
"","","","","","html-keyboard-response","75","139039","0.0-16.0-0.7","","","","passed","","","","","","","","","","","","","","","","","ballFalling","604.4000000000001","596.8711431702998","394.5","10","fallScene","false","","","","8","",""
"","","","","","html-keyboard-response","76","139609","0.0-16.0-1.7","","","","passed","","566","","","","","","","","","","","","","","j","yesOrNo","","","","10","","","lp","1000","","8","603.4000000000001","215.50214355555383"
"","","","","","html-keyboard-response","77","141106","0.0-16.0-0.8","","","","passed","","","","","","","","","","","","","","","","","ballFalling","604.4000000000001","667.6211431702998","201.78","9","fallScene","false","","","","9","",""
"","","","","","html-keyboard-response","78","141427","0.0-16.0-1.8","","","","passed","","317","","","","","","","","","","","","","","j","yesOrNo","","","","9","","","gt","1000","","9","667.6211431702998","201.78"
"","","","","","html-keyboard-response","79","143439","0.0-16.0-0.9","","","","passed","","","","","","","","","","","","","","","","","ballFalling","500","510.8711431702997","369.03","8","fallScene","true","","","","10","",""
"","","","","","html-keyboard-response","80","144051","0.0-16.0-1.9","","","","passed","","609","","","","","","","","","","","","","","f","yesOrNo","","","","8","","","gt","1000","","10","510.8711431702997","369.03"
"","","","","","html-keyboard-response","81","145706","0.0-16.0-0.10","","","","passed","","","","","","","","","","","","","","","","","ballFalling","500","479.92114317029973","330.87","6","fallScene","true","","","","11","",""
"","","","","","html-keyboard-response","82","146026","0.0-16.0-1.10","","","","passed","","317","","","","","","","","","","","","","","j","yesOrNo","","","","6","","","gt","1000","","11","479.9211431702998","330.87"
"","","","","","html-keyboard-response","83","147689","0.0-16.0-0.11","","","","passed","","","","","","","","","","","","","","","","","ballFalling","500","479.92114317029973","330.87","6","fallScene","false","","","","12","",""
"","","","","","html-keyboard-response","84","148302","0.0-16.0-1.11","","","","passed","","609","","","","","","","","","","","","","","j","yesOrNo","","","","6","","","mid","1000","","12","499","300"
"","","","","","html-keyboard-response","85","149856","0.0-16.0-0.12","","","","passed","","","","","","","","","","","","","","","","","ballFalling","604.4000000000001","650.0211431702996","404.58000000000004","11","fallScene","false","","","","13","",""
"","","","","","html-keyboard-response","86","150455","0.0-16.0-1.12","","","","passed","","596","","","","","","","","","","","","","","f","yesOrNo","","","","11","","","gt","1000","","13","650.0211431702996","404.58"
"","","","","","html-keyboard-response","87","152006","0.0-16.0-0.13","","","","passed","","","","","","","","","","","","","","","","","ballFalling","604.4000000000001","575.4211431702997","266.76","12","fallScene","true","","","","14","",""
"","","","","","html-keyboard-response","88","152257","0.0-16.0-1.13","","","","passed","","248","","","","","","","","","","","","","","j","yesOrNo","","","","12","","","mid","1000","","14","536.4288568297004","300"
"","","","","","html-keyboard-response","89","154273","0.0-16.0-0.14","","","","passed","","","","","","","","","","","","","","","","","ballFalling","604.4000000000001","596.8711431702998","394.5","10","fallScene","true","","","","15","",""
"","","","","","html-keyboard-response","90","154977","0.0-16.0-1.14","","","","passed","","700","","","","","","","","","","","","","","f","yesOrNo","","","","10","","","lp","1000","","15","603.4000000000001","215.50214355555383"
"","","","","","html-keyboard-response","91","156473","0.0-16.0-0.15","","","","passed","","","","","","","","","","","","","","","","","ballFalling","604.4000000000001","667.6211431702998","201.78","9","fallScene","true","","","","16","",""
"","","","","","html-keyboard-response","92","157245","0.0-16.0-1.15","","","","passed","","768","","","","","","","","","","","","","","f","yesOrNo","","","","9","","","lp","1000","","16","605.4000000000001","151"
"","","","","","html-keyboard-response","93","158807","0.0-16.0-0.16","","","","passed","","","","","","","","","","","","","","","","","ballFalling","322.3","296.07114317029976","371.46","3","fallScene","false","","","","17","",""
"","","","","","html-keyboard-response","94","159285","0.0-16.0-1.16","","","","passed","","477","","","","","","","","","","","","","","j","yesOrNo","","","","3","","","lp","1000","","17","321.3","287.3327096511259"
"","","","","","html-keyboard-response","95","161073","0.0-16.0-0.17","","","","passed","","","","","","","","","","","","","","","","","ballFalling","322.3","308.07114317029976","253.89","2","fallScene","true","","","","18","",""
"","","","","","html-keyboard-response","96","161718","0.0-16.0-1.17","","","","passed","","642","","","","","","","","","","","","","","f","yesOrNo","","","","2","","","gt","1000","","18","308.07114317029976","253.89"
"","","","","","html-keyboard-response","97","163273","0.0-16.0-0.18","","","","passed","","","","","","","","","","","","","","","","","ballFalling","322.3","379.3711431702997","245.25","1","fallScene","false","","","","19","",""
"","","","","","html-keyboard-response","98","164277","0.0-16.0-1.18","","","","passed","","null","","","","","","","","","","","","","","null","yesOrNo","","","","1","","","mid","1000","","19","390.27114317029975","300"
"","","","","","html-keyboard-response","99","165840","0.0-16.0-0.19","","","","passed","","","","","","","","","","","","","","","","","ballFalling","500","453.67114317029973","210.33","5","fallScene","true","","","","20","",""
"","","","","","html-keyboard-response","100","166843","0.0-16.0-1.19","","","","passed","","null","","","","","","","","","","","","","","null","yesOrNo","","","","5","","","lp","1000","","20","499","151"
"","","","","","html-keyboard-response","101","168406","0.0-16.0-0.20","","","","passed","","","","","","","","","","","","","","","","","ballFalling","604.4000000000001","575.4211431702997","266.76","12","fallScene","false","","","","21","",""
"","","","","","html-keyboard-response","102","168710","0.0-16.0-1.20","","","","passed","","301","","","","","","","","","","","","","","j","yesOrNo","","","","12","","","gt","1000","","21","575.4211431702997","266.76"
"","","","","","html-keyboard-response","103","170290","0.0-16.0-0.21","","","","passed","","","","","","","","","","","","","","","","","ballFalling","500","553.4711431702997","282.51","7","fallScene","true","","","","22","",""
"","","","","","html-keyboard-response","104","170623","0.0-16.0-1.21","","","","passed","","330","","","","","","","","","","","","","","f","yesOrNo","","","","7","","","lp","1000","","22","501","227.2843295913261"
"","","","","","html-keyboard-response","105","172406","0.0-16.0-0.22","","","","passed","","","","","","","","","","","","","","","","","ballFalling","322.3","308.07114317029976","253.89","2","fallScene","true","","","","23","",""
"","","","","","html-keyboard-response","106","173214","0.0-16.0-1.22","","","","passed","","803","","","","","","","","","","","","","","f","yesOrNo","","","","2","","","lp","1000","","23","321.3","151"
"","","","","","html-keyboard-response","107","174775","0.0-16.0-0.23","","","","passed","","","","","","","","","","","","","","","","","ballFalling","322.3","296.07114317029976","371.46","3","fallScene","true","","","","24","",""
"","","","","","html-keyboard-response","108","175779","0.0-16.0-1.23","","","","passed","","null","","","","","","","","","","","","","","null","yesOrNo","","","","3","","","gt","1000","","24","296.07114317029976","371.46"
"","","","","","html-keyboard-response","109","178919","0.0-17.0","","","","passed","","3139","","","","","","","","","","","","","<p><span style=""font-size:40px;"">BLOCK 2</span></p><p><span style=""font-size:25px;"">You have <strong>3 second(s)</strong> to respond to the following trials.</span><br></p><p></p> <!-- Blank line -->
                <p id=""blinking-text"" style=""font-weight; animation: blink 2s infinite;"">Press Space to continue</p>
                <style>
                    @keyframes blink {
                        50% {
                            opacity: 0;
                        }
                    }
                </style></p>"," ","","","","","","","","","","","","",""
"","","","","","html-keyboard-response","110","180923","0.0-18.0-0.0","","","","passed","","","","","","","","","","","","","","","","","ballFalling","604.4000000000001","596.8711431702998","394.5","10","fallScene","false","","","","25","",""
"","","","","","html-keyboard-response","111","182243","0.0-18.0-1.0","","","","passed","","1316","","","","","","","","","","","","","","f","yesOrNo","","","","10","","","mid","3000","","25","536.4288568297004","300"
"","","","","","html-keyboard-response","112","183808","0.0-18.0-0.1","","","","passed","","","","","","","","","","","","","","","","","ballFalling","604.4000000000001","650.0211431702996","404.58000000000004","11","fallScene","false","","","","26","",""
"","","","","","html-keyboard-response","113","184197","0.0-18.0-1.1","","","","passed","","386","","","","","","","","","","","","","","j","yesOrNo","","","","11","","","mid","3000","","26","605.4000000000001","300"
"","","","","","html-keyboard-response","114","186208","0.0-18.0-0.2","","","","passed","","","","","","","","","","","","","","","","","ballFalling","604.4000000000001","596.8711431702998","394.5","10","fallScene","false","","","","27","",""
"","","","","","html-keyboard-response","115","187412","0.0-18.0-1.2","","","","passed","","1201","","","","","","","","","","","","","","f","yesOrNo","","","","10","","","lp","3000","","27","603.4000000000001","215.50214355555383"
"","","","","","html-keyboard-response","116","188974","0.0-18.0-0.3","","","","passed","","","","","","","","","","","","","","","","","ballFalling","322.3","356.42114317029973","357.87","4","fallScene","true","","","","28","",""
"","","","","","html-keyboard-response","117","189843","0.0-18.0-1.3","","","","passed","","866","","","","","","","","","","","","","","j","yesOrNo","","","","4","","","lp","3000","","28","323.3","297.4070551689986"
"","","","","","html-keyboard-response","118","191408","0.0-18.0-0.4","","","","passed","","","","","","","","","","","","","","","","","ballFalling","322.3","379.3711431702997","245.25","1","fallScene","false","","","","29","",""
"","","","","","html-keyboard-response","119","192460","0.0-18.0-1.4","","","","passed","","1049","","","","","","","","","","","","","","f","yesOrNo","","","","1","","","lp","3000","","29","323.3","217.74551669457017"
"","","","","","html-keyboard-response","120","194025","0.0-18.0-0.5","","","","passed","","","","","","","","","","","","","","","","","ballFalling","322.3","356.42114317029973","357.87","4","fallScene","false","","","","30","",""
"","","","","","html-keyboard-response","121","194893","0.0-18.0-1.5","","","","passed","","865","","","","","","","","","","","","","","f","yesOrNo","","","","4","","","mid","3000","","30","390.27114317029975","300"
"","","","","","html-keyboard-response","122","196558","0.0-18.0-0.6","","","","passed","","","","","","","","","","","","","","","","","ballFalling","500","479.92114317029973","330.87","6","fallScene","true","","","","31","",""
"","","","","","html-keyboard-response","123","197352","0.0-18.0-1.6","","","","passed","","791","","","","","","","","","","","","","","j","yesOrNo","","","","6","","","gt","3000","","31","479.9211431702998","330.87"
"","","","","","html-keyboard-response","124","198924","0.0-18.0-0.7","","","","passed","","","","","","","","","","","","","","","","","ballFalling","500","553.4711431702997","282.51","7","fallScene","true","","","","32","",""
"","","","","","html-keyboard-response","125","199559","0.0-18.0-1.7","","","","passed","","631","","","","","","","","","","","","","","j","yesOrNo","","","","7","","","gt","3000","","32","553.4711431702997","282.51"
"","","","","","html-keyboard-response","126","201124","0.0-18.0-0.8","","","","passed","","","","","","","","","","","","","","","","","ballFalling","604.4000000000001","575.4211431702997","266.76","12","fallScene","false","","","","33","",""
"","","","","","html-keyboard-response","127","201828","0.0-18.0-1.8","","","","passed","","700","","","","","","","","","","","","","","f","yesOrNo","","","","12","","","lp","3000","","33","603.4000000000001","151"
"","","","","","html-keyboard-response","128","203392","0.0-18.0-0.9","","","","passed","","","","","","","","","","","","","","","","","ballFalling","500","453.67114317029973","210.33","5","fallScene","false","","","","34","",""
"","","","","","html-keyboard-response","129","203962","0.0-18.0-1.9","","","","passed","","567","","","","","","","","","","","","","","f","yesOrNo","","","","5","","","lp","3000","","34","499","151"
"","","","","","html-keyboard-response","130","205975","0.0-18.0-0.10","","","","passed","","","","","","","","","","","","","","","","","ballFalling","500","510.8711431702997","369.03","8","fallScene","false","","","","35","",""
"","","","","","html-keyboard-response","131","206610","0.0-18.0-1.10","","","","passed","","632","","","","","","","","","","","","","","f","yesOrNo","","","","8","","","mid","3000","","35","501","300"
"","","","","","html-keyboard-response","132","208174","0.0-18.0-0.11","","","","passed","","","","","","","","","","","","","","","","","ballFalling","500","453.67114317029973","210.33","5","fallScene","true","","","","36","",""
"","","","","","html-keyboard-response","133","209060","0.0-18.0-1.11","","","","passed","","885","","","","","","","","","","","","","","f","yesOrNo","","","","5","","","mid","3000","","36","499","300"
"","","","","","html-keyboard-response","134","210641","0.0-18.0-0.12","","","","passed","","","","","","","","","","","","","","","","","ballFalling","500","553.4711431702997","282.51","7","fallScene","false","","","","37","",""
"","","","","","html-keyboard-response","135","211313","0.0-18.0-1.12","","","","passed","","669","","","","","","","","","","","","","","j","yesOrNo","","","","7","","","gt","3000","","37","553.4711431702997","282.51"
"","","","","","html-keyboard-response","136","212875","0.0-18.0-0.13","","","","passed","","","","","","","","","","","","","","","","","ballFalling","322.3","379.3711431702997","245.25","1","fallScene","false","","","","38","",""
"","","","","","html-keyboard-response","137","213795","0.0-18.0-1.13","","","","passed","","915","","","","","","","","","","","","","","j","yesOrNo","","","","1","","","lp","3000","","38","323.3","217.74551669457017"
"","","","","","html-keyboard-response","138","215591","0.0-18.0-0.14","","","","passed","","","","","","","","","","","","","","","","","ballFalling","322.3","308.07114317029976","253.89","2","fallScene","false","","","","39","",""
"","","","","","html-keyboard-response","139","216178","0.0-18.0-1.14","","","","passed","","583","","","","","","","","","","","","","","j","yesOrNo","","","","2","","","gt","3000","","39","308.07114317029976","253.89"
"","","","","","html-keyboard-response","140","217844","0.0-18.0-0.15","","","","passed","","","","","","","","","","","","","","","","","ballFalling","500","479.92114317029973","330.87","6","fallScene","true","","","","40","",""
"","","","","","html-keyboard-response","141","220848","0.0-18.0-1.15","","","","passed","","null","","","","","","","","","","","","","","null","yesOrNo","","","","6","","","lp","3000","","40","499","189.92909825697632"
"","","","","","html-keyboard-response","142","222341","0.0-18.0-0.16","","","","passed","","","","","","","","","","","","","","","","","ballFalling","604.4000000000001","667.6211431702998","201.78","9","fallScene","false","","","","41","",""
"","","","","","html-keyboard-response","143","224194","0.0-18.0-1.16","","","","passed","","1850","","","","","","","","","","","","","","f","yesOrNo","","","","9","","","lp","3000","","41","605.4000000000001","151"
"","","","","","html-keyboard-response","144","226209","0.0-18.0-0.17","","","","passed","","","","","","","","","","","","","","","","","ballFalling","500","510.8711431702997","369.03","8","fallScene","true","","","","42","",""
"","","","","","html-keyboard-response","145","227020","0.0-18.0-1.17","","","","passed","","807","","","","","","","","","","","","","","f","yesOrNo","","","","8","","","gt","3000","","42","510.8711431702997","369.03"
"","","","","","html-keyboard-response","146","228575","0.0-18.0-0.18","","","","passed","","","","","","","","","","","","","","","","","ballFalling","604.4000000000001","650.0211431702996","404.58000000000004","11","fallScene","true","","","","43","",""
"","","","","","html-keyboard-response","147","228862","0.0-18.0-1.18","","","","passed","","283","","","","","","","","","","","","","","j","yesOrNo","","","","11","","","gt","3000","","43","650.0211431702996","404.58"
"","","","","","html-keyboard-response","148","230425","0.0-18.0-0.19","","","","passed","","","","","","","","","","","","","","","","","ballFalling","322.3","379.3711431702997","245.25","1","fallScene","true","","","","44","",""
"","","","","","html-keyboard-response","149","231073","0.0-18.0-1.19","","","","passed","","644","","","","","","","","","","","","","","f","yesOrNo","","","","1","","","mid","3000","","44","390.27114317029975","300"
"","","","","","html-keyboard-response","150","232726","0.0-18.0-0.20","","","","passed","","","","","","","","","","","","","","","","","ballFalling","500","479.92114317029973","330.87","6","fallScene","false","","","","45","",""
"","","","","","html-keyboard-response","151","233238","0.0-18.0-1.20","","","","passed","","508","","","","","","","","","","","","","","j","yesOrNo","","","","6","","","mid","3000","","45","499","300"
"","","","","","html-keyboard-response","152","234792","0.0-18.0-0.21","","","","passed","","","","","","","","","","","","","","","","","ballFalling","322.3","379.3711431702997","245.25","1","fallScene","false","","","","46","",""
"","","","","","html-keyboard-response","153","235392","0.0-18.0-1.21","","","","passed","","597","","","","","","","","","","","","","","j","yesOrNo","","","","1","","","gt","3000","","46","379.3711431702997","245.25"
"","","","","","html-keyboard-response","154","236943","0.0-18.0-0.22","","","","passed","","","","","","","","","","","","","","","","","ballFalling","604.4000000000001","650.0211431702996","404.58000000000004","11","fallScene","false","","","","47","",""
"","","","","","html-keyboard-response","155","237345","0.0-18.0-1.22","","","","passed","","399","","","","","","","","","","","","","","j","yesOrNo","","","","11","","","gt","3000","","47","650.0211431702996","404.58"
"","","","","","html-keyboard-response","156","238908","0.0-18.0-0.23","","","","passed","","","","","","","","","","","","","","","","","ballFalling","500","453.67114317029973","210.33","5","fallScene","true","","","","48","",""
"","","","","","html-keyboard-response","157","239395","0.0-18.0-1.23","","","","passed","","485","","","","","","","","","","","","","","j","yesOrNo","","","","5","","","gt","3000","","48","453.6711431702998","210.33"
"","","","","","html-keyboard-response","158","240359","0.0-19.0","","","","passed","","963","","","","","","","","","","","","","<p><span style=""font-size:40px;"">BLOCK 3</span></p><p><span style=""font-size:25px;"">You have <strong>1 second(s)</strong> to respond to the following trials.</span><br></p><p></p> <!-- Blank line -->
                <p id=""blinking-text"" style=""font-weight; animation: blink 2s infinite;"">Press Space to continue</p>
                <style>
                    @keyframes blink {
                        50% {
                            opacity: 0;
                        }
                    }
                </style></p>"," ","","","","","","","","","","","","",""
"","","","","","html-keyboard-response","159","242010","0.0-20.0-0.0","","","","passed","","","","","","","","","","","","","","","","","ballFalling","500","479.92114317029973","330.87","6","fallScene","true","","","","49","",""
"","","","","","html-keyboard-response","160","242514","0.0-20.0-1.0","","","","passed","","501","","","","","","","","","","","","","","f","yesOrNo","","","","6","","","mid","1000","","49","499","300"
"","","","","","html-keyboard-response","161","244075","0.0-20.0-0.1","","","","passed","","","","","","","","","","","","","","","","","ballFalling","500","453.67114317029973","210.33","5","fallScene","true","","","","50","",""
"","","","","","html-keyboard-response","162","244629","0.0-20.0-1.1","","","","passed","","550","","","","","","","","","","","","","","j","yesOrNo","","","","5","","","mid","1000","","50","499","300"
"","","","","","html-keyboard-response","163","246293","0.0-20.0-0.2","","","","passed","","","","","","","","","","","","","","","","","ballFalling","500","479.92114317029973","330.87","6","fallScene","true","","","","51","",""
"","","","","","html-keyboard-response","164","246559","0.0-20.0-1.2","","","","passed","","262","","","","","","","","","","","","","","f","yesOrNo","","","","6","","","lp","1000","","51","499","189.92909825697632"
"","","","","","html-keyboard-response","165","248110","0.0-20.0-0.3","","","","passed","","","","","","","","","","","","","","","","","ballFalling","604.4000000000001","650.0211431702996","404.58000000000004","11","fallScene","true","","","","52","",""
"","","","","","html-keyboard-response","166","248449","0.0-20.0-1.3","","","","passed","","336","","","","","","","","","","","","","","j","yesOrNo","","","","11","","","mid","1000","","52","605.4000000000001","300"
"","","","","","html-keyboard-response","167","250009","0.0-20.0-0.4","","","","passed","","","","","","","","","","","","","","","","","ballFalling","322.3","296.07114317029976","371.46","3","fallScene","false","","","","53","",""
"","","","","","html-keyboard-response","168","250646","0.0-20.0-1.4","","","","passed","","634","","","","","","","","","","","","","","f","yesOrNo","","","","3","","","mid","1000","","53","321.3","300"
"","","","","","html-keyboard-response","169","252210","0.0-20.0-0.5","","","","passed","","","","","","","","","","","","","","","","","ballFalling","322.3","356.42114317029973","357.87","4","fallScene","true","","","","54","",""
"","","","","","html-keyboard-response","170","252431","0.0-20.0-1.5","","","","passed","","217","","","","","","","","","","","","","","j","yesOrNo","","","","4","","","gt","1000","","54","356.42114317029973","357.87"
"","","","","","html-keyboard-response","171","254000","0.0-20.0-0.6","","","","passed","","","","","","","","","","","","","","","","","ballFalling","604.4000000000001","650.0211431702996","404.58000000000004","11","fallScene","true","","","","55","",""
"","","","","","html-keyboard-response","172","255003","0.0-20.0-1.6","","","","passed","","null","","","","","","","","","","","","","","null","yesOrNo","","","","11","","","gt","1000","","55","650.0211431702996","404.58"
"","","","","","html-keyboard-response","173","256577","0.0-20.0-0.7","","","","passed","","","","","","","","","","","","","","","","","ballFalling","500","553.4711431702997","282.51","7","fallScene","true","","","","56","",""
"","","","","","html-keyboard-response","174","257580","0.0-20.0-1.7","","","","passed","","null","","","","","","","","","","","","","","null","yesOrNo","","","","7","","","mid","1000","","56","501","300"
"","","","","","html-keyboard-response","175","259377","0.0-20.0-0.8","","","","passed","","","","","","","","","","","","","","","","","ballFalling","322.3","308.07114317029976","253.89","2","fallScene","true","","","","57","",""
"","","","","","html-keyboard-response","176","259727","0.0-20.0-1.8","","","","passed","","349","","","","","","","","","","","","","","f","yesOrNo","","","","2","","","mid","1000","","57","321.3","300"
"","","","","","html-keyboard-response","177","261293","0.0-20.0-0.9","","","","passed","","","","","","","","","","","","","","","","","ballFalling","322.3","296.07114317029976","371.46","3","fallScene","false","","","","58","",""
"","","","","","html-keyboard-response","178","262245","0.0-20.0-1.9","","","","passed","","948","","","","","","","","","","","","","","f","yesOrNo","","","","3","","","gt","1000","","58","296.07114317029976","371.46"
"","","","","","html-keyboard-response","179","264260","0.0-20.0-0.10","","","","passed","","","","","","","","","","","","","","","","","ballFalling","500","510.8711431702997","369.03","8","fallScene","true","","","","59","",""
"","","","","","html-keyboard-response","180","264588","0.0-20.0-1.10","","","","passed","","324","","","","","","","","","","","","","","j","yesOrNo","","","","8","","","mid","1000","","59","501","300"
"","","","","","html-keyboard-response","181","266593","0.0-20.0-0.11","","","","passed","","","","","","","","","","","","","","","","","ballFalling","604.4000000000001","596.8711431702998","394.5","10","fallScene","false","","","","60","",""
"","","","","","html-keyboard-response","182","267299","0.0-20.0-1.11","","","","passed","","705","","","","","","","","","","","","","","j","yesOrNo","","","","10","","","gt","1000","","60","596.8711431702998","394.5"
"","","","","","html-keyboard-response","183","269311","0.0-20.0-0.12","","","","passed","","","","","","","","","","","","","","","","","ballFalling","500","510.8711431702997","369.03","8","fallScene","true","","","","61","",""
"","","","","","html-keyboard-response","184","270315","0.0-20.0-1.12","","","","passed","","null","","","","","","","","","","","","","","null","yesOrNo","","","","8","","","gt","1000","","61","510.8711431702997","369.03"
"","","","","","html-keyboard-response","185","271977","0.0-20.0-0.13","","","","passed","","","","","","","","","","","","","","","","","ballFalling","500","479.92114317029973","330.87","6","fallScene","false","","","","62","",""
"","","","","","html-keyboard-response","186","272400","0.0-20.0-1.13","","","","passed","","419","","","","","","","","","","","","","","j","yesOrNo","","","","6","","","gt","1000","","62","479.9211431702998","330.87"
"","","","","","html-keyboard-response","187","273893","0.0-20.0-0.14","","","","passed","","","","","","","","","","","","","","","","","ballFalling","604.4000000000001","667.6211431702998","201.78","9","fallScene","true","","","","63","",""
"","","","","","html-keyboard-response","188","274898","0.0-20.0-1.14","","","","passed","","null","","","","","","","","","","","","","","null","yesOrNo","","","","9","","","lp","1000","","63","605.4000000000001","151"
"","","","","","html-keyboard-response","189","276461","0.0-20.0-0.15","","","","passed","","","","","","","","","","","","","","","","","ballFalling","500","453.67114317029973","210.33","5","fallScene","false","","","","64","",""
"","","","","","html-keyboard-response","190","277466","0.0-20.0-1.15","","","","passed","","null","","","","","","","","","","","","","","null","yesOrNo","","","","5","","","lp","1000","","64","499","151"
"","","","","","html-keyboard-response","191","279028","0.0-20.0-0.16","","","","passed","","","","","","","","","","","","","","","","","ballFalling","322.3","379.3711431702997","245.25","1","fallScene","false","","","","65","",""
"","","","","","html-keyboard-response","192","280033","0.0-20.0-1.16","","","","passed","","null","","","","","","","","","","","","","","null","yesOrNo","","","","1","","","gt","1000","","65","379.3711431702997","245.25"
"","","","","","html-keyboard-response","193","281527","0.0-20.0-0.17","","","","passed","","","","","","","","","","","","","","","","","ballFalling","604.4000000000001","667.6211431702998","201.78","9","fallScene","true","","","","66","",""
"","","","","","html-keyboard-response","194","282130","0.0-20.0-1.17","","","","passed","","598","","","","","","","","","","","","","","j","yesOrNo","","","","9","","","mid","1000","","66","605.4000000000001","300"
"","","","","","html-keyboard-response","195","284144","0.0-20.0-0.18","","","","passed","","","","","","","","","","","","","","","","","ballFalling","604.4000000000001","596.8711431702998","394.5","10","fallScene","true","","","","67","",""
"","","","","","html-keyboard-response","196","285148","0.0-20.0-1.18","","","","passed","","null","","","","","","","","","","","","","","null","yesOrNo","","","","10","","","gt","1000","","67","596.8711431702998","394.5"
"","","","","","html-keyboard-response","197","286711","0.0-20.0-0.19","","","","passed","","","","","","","","","","","","","","","","","ballFalling","604.4000000000001","575.4211431702997","266.76","12","fallScene","true","","","","68","",""
"","","","","","html-keyboard-response","198","287715","0.0-20.0-1.19","","","","passed","","null","","","","","","","","","","","","","","null","yesOrNo","","","","12","","","lp","1000","","68","603.4000000000001","151"
"","","","","","html-keyboard-response","199","289278","0.0-20.0-0.20","","","","passed","","","","","","","","","","","","","","","","","ballFalling","322.3","296.07114317029976","371.46","3","fallScene","false","","","","69","",""
"","","","","","html-keyboard-response","200","290282","0.0-20.0-1.20","","","","passed","","null","","","","","","","","","","","","","","null","yesOrNo","","","","3","","","mid","1000","","69","321.3","300"
"","","","","","html-keyboard-response","201","292295","0.0-20.0-0.21","","","","passed","","","","","","","","","","","","","","","","","ballFalling","604.4000000000001","596.8711431702998","394.5","10","fallScene","false","","","","70","",""
"","","","","","html-keyboard-response","202","292767","0.0-20.0-1.21","","","","passed","","468","","","","","","","","","","","","","","j","yesOrNo","","","","10","","","mid","1000","","70","536.4288568297004","300"
"","","","","","html-keyboard-response","203","294329","0.0-20.0-0.22","","","","passed","","","","","","","","","","","","","","","","","ballFalling","322.3","379.3711431702997","245.25","1","fallScene","true","","","","71","",""
"","","","","","html-keyboard-response","204","295039","0.0-20.0-1.22","","","","passed","","708","","","","","","","","","","","","","","f","yesOrNo","","","","1","","","mid","1000","","71","390.27114317029975","300"
"","","","","","html-keyboard-response","205","296595","0.0-20.0-0.23","","","","passed","","","","","","","","","","","","","","","","","ballFalling","322.3","356.42114317029973","357.87","4","fallScene","true","","","","72","",""
"","","","","","html-keyboard-response","206","297148","0.0-20.0-1.23","","","","passed","","549","","","","","","","","","","","","","","j","yesOrNo","","","","4","","","lp","1000","","72","323.3","297.4070551689986"
"","","","","","html-keyboard-response","207","301628","0.0-21.0","","","","passed","","4479","","","","","","","","","","","","","<p><span style=""font-size:40px;"">BLOCK 4</span></p><p><span style=""font-size:25px;"">You have <strong>1 second(s)</strong> to respond to the following trials.</span><br></p><p></p> <!-- Blank line -->
                <p id=""blinking-text"" style=""font-weight; animation: blink 2s infinite;"">Press Space to continue</p>
                <style>
                    @keyframes blink {
                        50% {
                            opacity: 0;
                        }
                    }
                </style></p>"," ","","","","","","","","","","","","",""
"","","","","","html-keyboard-response","208","303195","0.0-22.0-0.0","","","","passed","","","","","","","","","","","","","","","","","ballFalling","604.4000000000001","575.4211431702997","266.76","12","fallScene","false","","","","73","",""
"","","","","","html-keyboard-response","209","303948","0.0-22.0-1.0","","","","passed","","750","","","","","","","","","","","","","","f","yesOrNo","","","","12","","","mid","1000","","73","536.4288568297004","300"
"","","","","","html-keyboard-response","210","305511","0.0-22.0-0.1","","","","passed","","","","","","","","","","","","","","","","","ballFalling","604.4000000000001","575.4211431702997","266.76","12","fallScene","false","","","","74","",""
"","","","","","html-keyboard-response","211","306513","0.0-22.0-1.1","","","","passed","","null","","","","","","","","","","","","","","null","yesOrNo","","","","12","","","gt","1000","","74","575.4211431702997","266.76"
"","","","","","html-keyboard-response","212","308011","0.0-22.0-0.2","","","","passed","","","","","","","","","","","","","","","","","ballFalling","604.4000000000001","667.6211431702998","201.78","9","fallScene","false","","","","75","",""
"","","","","","html-keyboard-response","213","309014","0.0-22.0-1.2","","","","passed","","null","","","","","","","","","","","","","","null","yesOrNo","","","","9","","","gt","1000","","75","667.6211431702998","201.78"
"","","","","","html-keyboard-response","214","310595","0.0-22.0-0.3","","","","passed","","","","","","","","","","","","","","","","","ballFalling","500","553.4711431702997","282.51","7","fallScene","true","","","","76","",""
"","","","","","html-keyboard-response","215","311597","0.0-22.0-1.3","","","","passed","","null","","","","","","","","","","","","","","null","yesOrNo","","","","7","","","gt","1000","","76","553.4711431702997","282.51"
"","","","","","html-keyboard-response","216","313162","0.0-22.0-0.4","","","","passed","","","","","","","","","","","","","","","","","ballFalling","322.3","356.42114317029973","357.87","4","fallScene","true","","","","77","",""
"","","","","","html-keyboard-response","217","313602","0.0-22.0-1.4","","","","passed","","436","","","","","","","","","","","","","","f","yesOrNo","","","","4","","","mid","1000","","77","390.27114317029975","300"
"","","","","","html-keyboard-response","218","315262","0.0-22.0-0.5","","","","passed","","","","","","","","","","","","","","","","","ballFalling","500","479.92114317029973","330.87","6","fallScene","false","","","","78","",""
"","","","","","html-keyboard-response","219","315912","0.0-22.0-1.5","","","","passed","","647","","","","","","","","","","","","","","f","yesOrNo","","","","6","","","lp","1000","","78","499","189.92909825697632"
"","","","","","html-keyboard-response","220","317395","0.0-22.0-0.6","","","","passed","","","","","","","","","","","","","","","","","ballFalling","604.4000000000001","667.6211431702998","201.78","9","fallScene","false","","","","79","",""
"","","","","","html-keyboard-response","221","318399","0.0-22.0-1.6","","","","passed","","null","","","","","","","","","","","","","","null","yesOrNo","","","","9","","","mid","1000","","79","605.4000000000001","300"
"","","","","","html-keyboard-response","222","320413","0.0-22.0-0.7","","","","passed","","","","","","","","","","","","","","","","","ballFalling","500","510.8711431702997","369.03","8","fallScene","false","","","","80","",""
"","","","","","html-keyboard-response","223","321416","0.0-22.0-1.7","","","","passed","","null","","","","","","","","","","","","","","null","yesOrNo","","","","8","","","lp","1000","","80","501","151"
"","","","","","html-keyboard-response","224","322979","0.0-22.0-0.8","","","","passed","","","","","","","","","","","","","","","","","ballFalling","322.3","379.3711431702997","245.25","1","fallScene","true","","","","81","",""
"","","","","","html-keyboard-response","225","323984","0.0-22.0-1.8","","","","passed","","null","","","","","","","","","","","","","","null","yesOrNo","","","","1","","","lp","1000","","81","323.3","217.74551669457017"
"","","","","","html-keyboard-response","226","325546","0.0-22.0-0.9","","","","passed","","","","","","","","","","","","","","","","","ballFalling","322.3","356.42114317029973","357.87","4","fallScene","false","","","","82","",""
"","","","","","html-keyboard-response","227","326550","0.0-22.0-1.9","","","","passed","","null","","","","","","","","","","","","","","null","yesOrNo","","","","4","","","lp","1000","","82","323.3","297.4070551689986"
"","","","","","html-keyboard-response","228","328113","0.0-22.0-0.10","","","","passed","","","","","","","","","","","","","","","","","ballFalling","322.3","356.42114317029973","357.87","4","fallScene","false","","","","83","",""
"","","","","","html-keyboard-response","229","329116","0.0-22.0-1.10","","","","passed","","null","","","","","","","","","","","","","","null","yesOrNo","","","","4","","","mid","1000","","83","390.27114317029975","300"
"","","","","","html-keyboard-response","230","330679","0.0-22.0-0.11","","","","passed","","","","","","","","","","","","","","","","","ballFalling","500","453.67114317029973","210.33","5","fallScene","true","","","","84","",""
"","","","","","html-keyboard-response","231","331684","0.0-22.0-1.11","","","","passed","","null","","","","","","","","","","","","","","null","yesOrNo","","","","5","","","mid","1000","","84","499","300"
"","","","","","html-keyboard-response","232","333246","0.0-22.0-0.12","","","","passed","","","","","","","","","","","","","","","","","ballFalling","604.4000000000001","650.0211431702996","404.58000000000004","11","fallScene","true","","","","85","",""
"","","","","","html-keyboard-response","233","333364","0.0-22.0-1.12","","","","passed","","114","","","","","","","","","","","","","","f","yesOrNo","","","","11","","","lp","1000","","85","605.4000000000001","372.6340973215488"
"","","","","","html-keyboard-response","234","335164","0.0-22.0-0.13","","","","passed","","","","","","","","","","","","","","","","","ballFalling","322.3","308.07114317029976","253.89","2","fallScene","true","","","","86","",""
"","","","","","html-keyboard-response","235","336167","0.0-22.0-1.13","","","","passed","","null","","","","","","","","","","","","","","null","yesOrNo","","","","2","","","lp","1000","","86","321.3","151"
"","","","","","html-keyboard-response","236","337963","0.0-22.0-0.14","","","","passed","","","","","","","","","","","","","","","","","ballFalling","322.3","308.07114317029976","253.89","2","fallScene","true","","","","87","",""
"","","","","","html-keyboard-response","237","338567","0.0-22.0-1.14","","","","passed","","601","","","","","","","","","","","","","","j","yesOrNo","","","","2","","","mid","1000","","87","321.3","300"
"","","","","","html-keyboard-response","238","340579","0.0-22.0-0.15","","","","passed","","","","","","","","","","","","","","","","","ballFalling","500","510.8711431702997","369.03","8","fallScene","true","","","","88","",""
"","","","","","html-keyboard-response","239","341065","0.0-22.0-1.15","","","","passed","","482","","","","","","","","","","","","","","j","yesOrNo","","","","8","","","mid","1000","","88","501","300"
"","","","","","html-keyboard-response","240","342646","0.0-22.0-0.16","","","","passed","","","","","","","","","","","","","","","","","ballFalling","500","553.4711431702997","282.51","7","fallScene","false","","","","89","",""
"","","","","","html-keyboard-response","241","343650","0.0-22.0-1.16","","","","passed","","null","","","","","","","","","","","","","","null","yesOrNo","","","","7","","","gt","1000","","89","553.4711431702997","282.51"
"","","","","","html-keyboard-response","242","345213","0.0-22.0-0.17","","","","passed","","","","","","","","","","","","","","","","","ballFalling","322.3","296.07114317029976","371.46","3","fallScene","false","","","","90","",""
"","","","","","html-keyboard-response","243","346219","0.0-22.0-1.17","","","","passed","","null","","","","","","","","","","","","","","null","yesOrNo","","","","3","","","lp","1000","","90","321.3","287.3327096511259"
"","","","","","html-keyboard-response","244","347780","0.0-22.0-0.18","","","","passed","","","","","","","","","","","","","","","","","ballFalling","500","453.67114317029973","210.33","5","fallScene","true","","","","91","",""
"","","","","","html-keyboard-response","245","348293","0.0-22.0-1.18","","","","passed","","509","","","","","","","","","","","","","","j","yesOrNo","","","","5","","","gt","1000","","91","453.6711431702998","210.33"
"","","","","","html-keyboard-response","246","349847","0.0-22.0-0.19","","","","passed","","","","","","","","","","","","","","","","","ballFalling","604.4000000000001","650.0211431702996","404.58000000000004","11","fallScene","false","","","","92","",""
"","","","","","html-keyboard-response","247","350851","0.0-22.0-1.19","","","","passed","","null","","","","","","","","","","","","","","null","yesOrNo","","","","11","","","mid","1000","","92","605.4000000000001","300"
"","","","","","html-keyboard-response","248","352414","0.0-22.0-0.20","","","","passed","","","","","","","","","","","","","","","","","ballFalling","322.3","379.3711431702997","245.25","1","fallScene","true","","","","93","",""
"","","","","","html-keyboard-response","249","353084","0.0-22.0-1.20","","","","passed","","667","","","","","","","","","","","","","","j","yesOrNo","","","","1","","","gt","1000","","93","379.3711431702997","245.25"
"","","","","","html-keyboard-response","250","354663","0.0-22.0-0.21","","","","passed","","","","","","","","","","","","","","","","","ballFalling","500","553.4711431702997","282.51","7","fallScene","true","","","","94","",""
"","","","","","html-keyboard-response","251","355435","0.0-22.0-1.21","","","","passed","","768","","","","","","","","","","","","","","f","yesOrNo","","","","7","","","lp","1000","","94","501","227.2843295913261"
"","","","","","html-keyboard-response","252","356998","0.0-22.0-0.22","","","","passed","","","","","","","","","","","","","","","","","ballFalling","322.3","379.3711431702997","245.25","1","fallScene","true","","","","95","",""
"","","","","","html-keyboard-response","253","357832","0.0-22.0-1.22","","","","passed","","831","","","","","","","","","","","","","","j","yesOrNo","","","","1","","","lp","1000","","95","323.3","217.74551669457017"
"","","","","","html-keyboard-response","254","359397","0.0-22.0-0.23","","","","passed","","","","","","","","","","","","","","","","","ballFalling","322.3","356.42114317029973","357.87","4","fallScene","true","","","","96","",""
"","","","","","html-keyboard-response","255","359921","0.0-22.0-1.23","","","","passed","","520","","","","","","","","","","","","","","j","yesOrNo","","","","4","","","gt","1000","","96","356.42114317029973","357.87"
"","","","","","html-keyboard-response","256","362068","0.0-23.0","","","","passed","","2146","","","","","","","","","","","","","<p><span style=""font-size:40px;"">BLOCK 5</span></p><p><span style=""font-size:25px;"">You have <strong>3 second(s)</strong> to respond to the following trials.</span><br></p><p></p> <!-- Blank line -->
                <p id=""blinking-text"" style=""font-weight; animation: blink 2s infinite;"">Press Space to continue</p>
                <style>
                    @keyframes blink {
                        50% {
                            opacity: 0;
                        }
                    }
                </style></p>"," ","","","","","","","","","","","","",""
"","","","","","html-keyboard-response","257","363630","0.0-24.0-0.0","","","","passed","","","","","","","","","","","","","","","","","ballFalling","500","453.67114317029973","210.33","5","fallScene","true","","","","97","",""
"","","","","","html-keyboard-response","258","364295","0.0-24.0-1.0","","","","passed","","660","","","","","","","","","","","","","","f","yesOrNo","","","","5","","","lp","3000","","97","499","151"
"","","","","","html-keyboard-response","259","365863","0.0-24.0-0.1","","","","passed","","","","","","","","","","","","","","","","","ballFalling","500","553.4711431702997","282.51","7","fallScene","false","","","","98","",""
"","","","","","html-keyboard-response","260","366600","0.0-24.0-1.1","","","","passed","","734","","","","","","","","","","","","","","j","yesOrNo","","","","7","","","mid","3000","","98","501","300"
"","","","","","html-keyboard-response","261","368164","0.0-24.0-0.2","","","","passed","","","","","","","","","","","","","","","","","ballFalling","604.4000000000001","650.0211431702996","404.58000000000004","11","fallScene","false","","","","99","",""
"","","","","","html-keyboard-response","262","369352","0.0-24.0-1.2","","","","passed","","1184","","","","","","","","","","","","","","j","yesOrNo","","","","11","","","mid","3000","","99","605.4000000000001","300"
"","","","","","html-keyboard-response","263","370915","0.0-24.0-0.3","","","","passed","","","","","","","","","","","","","","","","","ballFalling","604.4000000000001","650.0211431702996","404.58000000000004","11","fallScene","true","","","","100","",""
"","","","","","html-keyboard-response","264","371366","0.0-24.0-1.3","","","","passed","","449","","","","","","","","","","","","","","j","yesOrNo","","","","11","","","lp","3000","","100","605.4000000000001","372.6340973215488"
"","","","","","html-keyboard-response","265","372931","0.0-24.0-0.4","","","","passed","","","","","","","","","","","","","","","","","ballFalling","322.3","379.3711431702997","245.25","1","fallScene","true","","","","101","",""
"","","","","","html-keyboard-response","266","374933","0.0-24.0-1.4","","","","passed","","1998","","","","","","","","","","","","","","f","yesOrNo","","","","1","","","mid","3000","","101","390.27114317029975","300"
"","","","","","html-keyboard-response","267","376498","0.0-24.0-0.5","","","","passed","","","","","","","","","","","","","","","","","ballFalling","500","453.67114317029973","210.33","5","fallScene","true","","","","102","",""
"","","","","","html-keyboard-response","268","379502","0.0-24.0-1.5","","","","passed","","null","","","","","","","","","","","","","","null","yesOrNo","","","","5","","","gt","3000","","102","453.6711431702998","210.33"
"","","","","","html-keyboard-response","269","381299","0.0-24.0-0.6","","","","passed","","","","","","","","","","","","","","","","","ballFalling","322.3","308.07114317029976","253.89","2","fallScene","false","","","","103","",""
"","","","","","html-keyboard-response","270","382917","0.0-24.0-1.6","","","","passed","","1614","","","","","","","","","","","","","","j","yesOrNo","","","","2","","","gt","3000","","103","308.07114317029976","253.89"
"","","","","","html-keyboard-response","271","384482","0.0-24.0-0.7","","","","passed","","","","","","","","","","","","","","","","","ballFalling","604.4000000000001","575.4211431702997","266.76","12","fallScene","true","","","","104","",""
"","","","","","html-keyboard-response","272","385164","0.0-24.0-1.7","","","","passed","","679","","","","","","","","","","","","","","j","yesOrNo","","","","12","","","gt","3000","","104","575.4211431702997","266.76"
"","","","","","html-keyboard-response","273","386731","0.0-24.0-0.8","","","","passed","","","","","","","","","","","","","","","","","ballFalling","500","453.67114317029973","210.33","5","fallScene","false","","","","105","",""
"","","","","","html-keyboard-response","274","387220","0.0-24.0-1.8","","","","passed","","487","","","","","","","","","","","","","","j","yesOrNo","","","","5","","","mid","3000","","105","499","300"
"","","","","","html-keyboard-response","275","388715","0.0-24.0-0.9","","","","passed","","","","","","","","","","","","","","","","","ballFalling","604.4000000000001","667.6211431702998","201.78","9","fallScene","true","","","","106","",""
"","","","","","html-keyboard-response","276","391719","0.0-24.0-1.9","","","","passed","","null","","","","","","","","","","","","","","null","yesOrNo","","","","9","","","lp","3000","","106","605.4000000000001","151"
"","","","","","html-keyboard-response","277","393732","0.0-24.0-0.10","","","","passed","","","","","","","","","","","","","","","","","ballFalling","604.4000000000001","596.8711431702998","394.5","10","fallScene","true","","","","107","",""
"","","","","","html-keyboard-response","278","394752","0.0-24.0-1.10","","","","passed","","1017","","","","","","","","","","","","","","f","yesOrNo","","","","10","","","lp","3000","","107","603.4000000000001","215.50214355555383"
"","","","","","html-keyboard-response","279","396316","0.0-24.0-0.11","","","","passed","","","","","","","","","","","","","","","","","ballFalling","322.3","356.42114317029973","357.87","4","fallScene","true","","","","108","",""
"","","","","","html-keyboard-response","280","399162","0.0-24.0-1.11","","","","passed","","2843","","","","","","","","","","","","","","j","yesOrNo","","","","4","","","gt","3000","","108","356.42114317029973","357.87"
"","","","","","html-keyboard-response","281","400716","0.0-24.0-0.12","","","","passed","","","","","","","","","","","","","","","","","ballFalling","322.3","379.3711431702997","245.25","1","fallScene","false","","","","109","",""
"","","","","","html-keyboard-response","282","401328","0.0-24.0-1.12","","","","passed","","609","","","","","","","","","","","","","","j","yesOrNo","","","","1","","","gt","3000","","109","379.3711431702997","245.25"
"","","","","","html-keyboard-response","283","402882","0.0-24.0-0.13","","","","passed","","","","","","","","","","","","","","","","","ballFalling","322.3","296.07114317029976","371.46","3","fallScene","false","","","","110","",""
"","","","","","html-keyboard-response","284","404019","0.0-24.0-1.13","","","","passed","","1133","","","","","","","","","","","","","","j","yesOrNo","","","","3","","","gt","3000","","110","296.07114317029976","371.46"
"","","","","","html-keyboard-response","285","405816","0.0-24.0-0.14","","","","passed","","","","","","","","","","","","","","","","","ballFalling","322.3","308.07114317029976","253.89","2","fallScene","false","","","","111","",""
"","","","","","html-keyboard-response","286","406451","0.0-24.0-1.14","","","","passed","","632","","","","","","","","","","","","","","j","yesOrNo","","","","2","","","lp","3000","","111","321.3","151"
"","","","","","html-keyboard-response","287","408116","0.0-24.0-0.15","","","","passed","","","","","","","","","","","","","","","","","ballFalling","500","479.92114317029973","330.87","6","fallScene","false","","","","112","",""
"","","","","","html-keyboard-response","288","409418","0.0-24.0-1.15","","","","passed","","1299","","","","","","","","","","","","","","f","yesOrNo","","","","6","","","lp","3000","","112","499","189.92909825697632"
"","","","","","html-keyboard-response","289","411432","0.0-24.0-0.16","","","","passed","","","","","","","","","","","","","","","","","ballFalling","604.4000000000001","596.8711431702998","394.5","10","fallScene","false","","","","113","",""
"","","","","","html-keyboard-response","290","414436","0.0-24.0-1.16","","","","passed","","null","","","","","","","","","","","","","","null","yesOrNo","","","","10","","","mid","3000","","113","536.4288568297004","300"
"","","","","","html-keyboard-response","291","415999","0.0-24.0-0.17","","","","passed","","","","","","","","","","","","","","","","","ballFalling","322.3","296.07114317029976","371.46","3","fallScene","true","","","","114","",""
"","","","","","html-keyboard-response","292","418797","0.0-24.0-1.17","","","","passed","","2795","","","","","","","","","","","","","","f","yesOrNo","","","","3","","","mid","3000","","114","321.3","300"
"","","","","","html-keyboard-response","293","420348","0.0-24.0-0.18","","","","passed","","","","","","","","","","","","","","","","","ballFalling","604.4000000000001","575.4211431702997","266.76","12","fallScene","false","","","","115","",""
"","","","","","html-keyboard-response","294","420782","0.0-24.0-1.18","","","","passed","","430","","","","","","","","","","","","","","j","yesOrNo","","","","12","","","mid","3000","","115","536.4288568297004","300"
"","","","","","html-keyboard-response","295","422333","0.0-24.0-0.19","","","","passed","","","","","","","","","","","","","","","","","ballFalling","322.3","356.42114317029973","357.87","4","fallScene","true","","","","116","",""
"","","","","","html-keyboard-response","296","422704","0.0-24.0-1.19","","","","passed","","368","","","","","","","","","","","","","","j","yesOrNo","","","","4","","","gt","3000","","116","356.42114317029973","357.87"
"","","","","","html-keyboard-response","297","424282","0.0-24.0-0.20","","","","passed","","","","","","","","","","","","","","","","","ballFalling","500","553.4711431702997","282.51","7","fallScene","true","","","","117","",""
"","","","","","html-keyboard-response","298","424964","0.0-24.0-1.20","","","","passed","","679","","","","","","","","","","","","","","j","yesOrNo","","","","7","","","lp","3000","","117","501","227.2843295913261"
"","","","","","html-keyboard-response","299","426517","0.0-24.0-0.21","","","","passed","","","","","","","","","","","","","","","","","ballFalling","604.4000000000001","575.4211431702997","266.76","12","fallScene","false","","","","118","",""
"","","","","","html-keyboard-response","300","427215","0.0-24.0-1.21","","","","passed","","694","","","","","","","","","","","","","","f","yesOrNo","","","","12","","","mid","3000","","118","536.4288568297004","300"
"","","","","","html-keyboard-response","301","429000","0.0-24.0-0.22","","","","passed","","","","","","","","","","","","","","","","","ballFalling","322.3","308.07114317029976","253.89","2","fallScene","true","","","","119","",""
"","","","","","html-keyboard-response","302","429995","0.0-24.0-1.22","","","","passed","","992","","","","","","","","","","","","","","j","yesOrNo","","","","2","","","mid","3000","","119","321.3","300"
"","","","","","html-keyboard-response","303","432000","0.0-24.0-0.23","","","","passed","","","","","","","","","","","","","","","","","ballFalling","500","510.8711431702997","369.03","8","fallScene","false","","","","120","",""
"","","","","","html-keyboard-response","304","432730","0.0-24.0-1.23","","","","passed","","727","","","","","","","","","","","","","","f","yesOrNo","","","","8","","","mid","3000","","120","501","300"
"","","","","","html-keyboard-response","305","433655","0.0-25.0","","","","passed","","924","","","","","","","","","","","","","<p><span style=""font-size:40px;"">BLOCK 6</span></p><p><span style=""font-size:25px;"">You have <strong>3 second(s)</strong> to respond to the following trials.</span><br></p><p></p> <!-- Blank line -->
                <p id=""blinking-text"" style=""font-weight; animation: blink 2s infinite;"">Press Space to continue</p>
                <style>
                    @keyframes blink {
                        50% {
                            opacity: 0;
                        }
                    }
                </style></p>"," ","","","","","","","","","","","","",""
"","","","","","html-keyboard-response","306","435150","0.0-26.0-0.0","","","","passed","","","","","","","","","","","","","","","","","ballFalling","604.4000000000001","667.6211431702998","201.78","9","fallScene","true","","","","121","",""
"","","","","","html-keyboard-response","307","438154","0.0-26.0-1.0","","","","passed","","null","","","","","","","","","","","","","","null","yesOrNo","","","","9","","","gt","3000","","121","667.6211431702998","201.78"
"","","","","","html-keyboard-response","308","439951","0.0-26.0-0.1","","","","passed","","","","","","","","","","","","","","","","","ballFalling","322.3","308.07114317029976","253.89","2","fallScene","false","","","","122","",""
"","","","","","html-keyboard-response","309","442954","0.0-26.0-1.1","","","","passed","","null","","","","","","","","","","","","","","null","yesOrNo","","","","2","","","lp","3000","","122","321.3","151"
"","","","","","html-keyboard-response","310","444517","0.0-26.0-0.2","","","","passed","","","","","","","","","","","","","","","","","ballFalling","604.4000000000001","650.0211431702996","404.58000000000004","11","fallScene","true","","","","123","",""
"","","","","","html-keyboard-response","311","447521","0.0-26.0-1.2","","","","passed","","null","","","","","","","","","","","","","","null","yesOrNo","","","","11","","","lp","3000","","123","605.4000000000001","372.6340973215488"
"","","","","","html-keyboard-response","312","449101","0.0-26.0-0.3","","","","passed","","","","","","","","","","","","","","","","","ballFalling","500","553.4711431702997","282.51","7","fallScene","true","","","","124","",""
"","","","","","html-keyboard-response","313","452105","0.0-26.0-1.3","","","","passed","","null","","","","","","","","","","","","","","null","yesOrNo","","","","7","","","mid","3000","","124","501","300"
"","","","","","html-keyboard-response","314","453669","0.0-26.0-0.4","","","","passed","","","","","","","","","","","","","","","","","ballFalling","322.3","296.07114317029976","371.46","3","fallScene","true","","","","125","",""
"","","","","","html-keyboard-response","315","456673","0.0-26.0-1.4","","","","passed","","null","","","","","","","","","","","","","","null","yesOrNo","","","","3","","","lp","3000","","125","321.3","287.3327096511259"
"","","","","","html-keyboard-response","316","458234","0.0-26.0-0.5","","","","passed","","","","","","","","","","","","","","","","","ballFalling","322.3","296.07114317029976","371.46","3","fallScene","false","","","","126","",""
"","","","","","html-keyboard-response","317","458771","0.0-26.0-1.5","","","","passed","","533","","","","","","","","","","","","","","j","yesOrNo","","","","3","","","lp","3000","","126","321.3","287.3327096511259"
"","","","","","html-keyboard-response","318","460334","0.0-26.0-0.6","","","","passed","","","","","","","","","","","","","","","","","ballFalling","604.4000000000001","575.4211431702997","266.76","12","fallScene","false","","","","127","",""
"","","","","","html-keyboard-response","319","461022","0.0-26.0-1.6","","","","passed","","685","","","","","","","","","","","","","","j","yesOrNo","","","","12","","","gt","3000","","127","575.4211431702997","266.76"
"","","","","","html-keyboard-response","320","462518","0.0-26.0-0.7","","","","passed","","","","","","","","","","","","","","","","","ballFalling","604.4000000000001","667.6211431702998","201.78","9","fallScene","true","","","","128","",""
"","","","","","html-keyboard-response","321","463835","0.0-26.0-1.7","","","","passed","","1314","","","","","","","","","","","","","","j","yesOrNo","","","","9","","","mid","3000","","128","605.4000000000001","300"
"","","","","","html-keyboard-response","322","465501","0.0-26.0-0.8","","","","passed","","","","","","","","","","","","","","","","","ballFalling","500","479.92114317029973","330.87","6","fallScene","false","","","","129","",""
"","","","","","html-keyboard-response","323","466364","0.0-26.0-1.8","","","","passed","","859","","","","","","","","","","","","","","f","yesOrNo","","","","6","","","mid","3000","","129","499","300"
"","","","","","html-keyboard-response","324","467935","0.0-26.0-0.9","","","","passed","","","","","","","","","","","","","","","","","ballFalling","500","553.4711431702997","282.51","7","fallScene","true","","","","130","",""
"","","","","","html-keyboard-response","325","469446","0.0-26.0-1.9","","","","passed","","1508","","","","","","","","","","","","","","j","yesOrNo","","","","7","","","lp","3000","","130","501","227.2843295913261"
"","","","","","html-keyboard-response","326","471001","0.0-26.0-0.10","","","","passed","","","","","","","","","","","","","","","","","ballFalling","322.3","356.42114317029973","357.87","4","fallScene","true","","","","131","",""
"","","","","","html-keyboard-response","327","472689","0.0-26.0-1.10","","","","passed","","1687","","","","","","","","","","","","","","f","yesOrNo","","","","4","","","mid","3000","","131","390.27114317029975","300"
"","","","","","html-keyboard-response","328","474702","0.0-26.0-0.11","","","","passed","","","","","","","","","","","","","","","","","ballFalling","500","510.8711431702997","369.03","8","fallScene","false","","","","132","",""
"","","","","","html-keyboard-response","329","477707","0.0-26.0-1.11","","","","passed","","null","","","","","","","","","","","","","","null","yesOrNo","","","","8","","","lp","3000","","132","501","151"
"","","","","","html-keyboard-response","330","479502","0.0-26.0-0.12","","","","passed","","","","","","","","","","","","","","","","","ballFalling","322.3","308.07114317029976","253.89","2","fallScene","true","","","","133","",""
"","","","","","html-keyboard-response","331","480535","0.0-26.0-1.12","","","","passed","","1029","","","","","","","","","","","","","","f","yesOrNo","","","","2","","","mid","3000","","133","321.3","300"
"","","","","","html-keyboard-response","332","482086","0.0-26.0-0.13","","","","passed","","","","","","","","","","","","","","","","","ballFalling","604.4000000000001","575.4211431702997","266.76","12","fallScene","false","","","","134","",""
"","","","","","html-keyboard-response","333","485089","0.0-26.0-1.13","","","","passed","","null","","","","","","","","","","","","","","null","yesOrNo","","","","12","","","lp","3000","","134","603.4000000000001","151"
"","","","","","html-keyboard-response","334","486586","0.0-26.0-0.14","","","","passed","","","","","","","","","","","","","","","","","ballFalling","604.4000000000001","667.6211431702998","201.78","9","fallScene","false","","","","135","",""
"","","","","","html-keyboard-response","335","488767","0.0-26.0-1.14","","","","passed","","2179","","","","","","","","","","","","","","j","yesOrNo","","","","9","","","gt","3000","","135","667.6211431702998","201.78"
"","","","","","html-keyboard-response","336","490770","0.0-26.0-0.15","","","","passed","","","","","","","","","","","","","","","","","ballFalling","500","510.8711431702997","369.03","8","fallScene","false","","","","136","",""
"","","","","","html-keyboard-response","337","492822","0.0-26.0-1.15","","","","passed","","2049","","","","","","","","","","","","","","f","yesOrNo","","","","8","","","gt","3000","","136","510.8711431702997","369.03"
"","","","","","html-keyboard-response","338","494386","0.0-26.0-0.16","","","","passed","","","","","","","","","","","","","","","","","ballFalling","322.3","356.42114317029973","357.87","4","fallScene","true","","","","137","",""
"","","","","","html-keyboard-response","339","494952","0.0-26.0-1.16","","","","passed","","564","","","","","","","","","","","","","","j","yesOrNo","","","","4","","","lp","3000","","137","323.3","297.4070551689986"
"","","","","","html-keyboard-response","340","496953","0.0-26.0-0.17","","","","passed","","","","","","","","","","","","","","","","","ballFalling","604.4000000000001","596.8711431702998","394.5","10","fallScene","false","","","","138","",""
"","","","","","html-keyboard-response","341","497842","0.0-26.0-1.17","","","","passed","","887","","","","","","","","","","","","","","j","yesOrNo","","","","10","","","gt","3000","","138","596.8711431702998","394.5"
"","","","","","html-keyboard-response","342","499852","0.0-26.0-0.18","","","","passed","","","","","","","","","","","","","","","","","ballFalling","500","510.8711431702997","369.03","8","fallScene","false","","","","139","",""
"","","","","","html-keyboard-response","343","500576","0.0-26.0-1.18","","","","passed","","720","","","","","","","","","","","","","","f","yesOrNo","","","","8","","","lp","3000","","139","501","151"
"","","","","","html-keyboard-response","344","502586","0.0-26.0-0.19","","","","passed","","","","","","","","","","","","","","","","","ballFalling","604.4000000000001","596.8711431702998","394.5","10","fallScene","true","","","","140","",""
"","","","","","html-keyboard-response","345","503230","0.0-26.0-1.19","","","","passed","","641","","","","","","","","","","","","","","f","yesOrNo","","","","10","","","gt","3000","","140","596.8711431702998","394.5"
"","","","","","html-keyboard-response","346","504720","0.0-26.0-0.20","","","","passed","","","","","","","","","","","","","","","","","ballFalling","604.4000000000001","667.6211431702998","201.78","9","fallScene","true","","","","141","",""
"","","","","","html-keyboard-response","347","506788","0.0-26.0-1.20","","","","passed","","2065","","","","","","","","","","","","","","f","yesOrNo","","","","9","","","mid","3000","","141","605.4000000000001","300"
"","","","","","html-keyboard-response","348","508352","0.0-26.0-0.21","","","","passed","","","","","","","","","","","","","","","","","ballFalling","322.3","296.07114317029976","371.46","3","fallScene","false","","","","142","",""
"","","","","","html-keyboard-response","349","508723","0.0-26.0-1.21","","","","passed","","367","","","","","","","","","","","","","","j","yesOrNo","","","","3","","","mid","3000","","142","321.3","300"
"","","","","","html-keyboard-response","350","510387","0.0-26.0-0.22","","","","passed","","","","","","","","","","","","","","","","","ballFalling","500","479.92114317029973","330.87","6","fallScene","false","","","","143","",""
"","","","","","html-keyboard-response","351","510821","0.0-26.0-1.22","","","","passed","","431","","","","","","","","","","","","","","j","yesOrNo","","","","6","","","gt","3000","","143","479.9211431702998","330.87"
"","","","","","html-keyboard-response","352","512387","0.0-26.0-0.23","","","","passed","","","","","","","","","","","","","","","","","ballFalling","322.3","296.07114317029976","371.46","3","fallScene","false","","","","144","",""
"","","","","","html-keyboard-response","353","513076","0.0-26.0-1.23","","","","passed","","686","","","","","","","","","","","","","","j","yesOrNo","","","","3","","","gt","3000","","144","296.07114317029976","371.46"
"","","","","","survey-text","354","524151","0.0-27.0","","","","passed","","11071","","","","","","","","","","","","","","{""Summary"":""woooohooooo hope now its good""}","","","","","","","","","","","","",""
"","","","","","survey-text","355","526487","0.0-28.0","","","","passed","","2334","","","","","","","","","","","","","","{""Comments"":""aaaaa""}","","","","","","","","","","","","",""
