"success","timeout","failed_images","failed_audio","failed_video","trial_type","trial_index","time_elapsed","internal_node_id","subject_id","study_id","session_id","practiceTestResult","view_history","rt","width","height","webaudio","browser","browser_version","mobile","os","fullscreen","vsync_rate","webcam","microphone","url","stimulus","response","task","ball_X","obstacle_groundTruth_x","obstacle_groundTruth_y","stimulus_idx","trial_name","flipped","choice","timeLimit","question_order","currentTrial","obstacle_choice_x","obstacle_choice_y"
"true","false","[]","[]","[]","preload","0","92","0.0-0.0","","","","passed","","","","","","","","","","","","","","","","","","","","","","","","","","","","",""
"","","","","","instructions","1","1047","0.0-1.0","","","","passed","[{""page_index"":0,""viewing_time"":954}]","954","","","","","","","","","","","","","","","","","","","","","","","","","","",""
"","","","","","browser-check","2","2034","0.0-2.0","","","","passed","","","1430","822","true","chrome","131.0.0","false","Mac OS","true","61.12","true","true","","","","","","","","","","","","","","","",""
"","","","","","external-html","3","3880","0.0-3.0","","","","passed","","1803","","","","","","","","","","","","consent.html","","","","","","","","","","","","","","",""
"true","","","","","fullscreen","4","5031","0.0-4.0","","","","passed","","848","","","","","","","","","","","","","","","","","","","","","","","","","","",""
"","","","","","browser-check","5","6017","0.0-5.0","","","","passed","","","2133","1200","true","chrome","131.0.0","false","Mac OS","true","60.94","true","true","","","","","","","","","","","","","","","",""
"","","","","","html-keyboard-response","6","6787","0.0-6.0","","","","passed","","768","","","","","","","","","","","","","<p><b>This experiment requires keyboard input.</b></p> 
        <p><b>To ensure your response will be recorded successfully, please press 'Space' to continue.</b></p>
        <p>If you can't proceed, you won't be able to complete this study.</p>
        <p></p> <!-- Blank line -->
        <p id=""blinking-text"" style=""font-weight; animation: blink 2s infinite;"">Press Space to continue</p>
        <style>
            @keyframes blink {
                50% {
                    opacity: 0;
                }
            }
        </style>"," ","","","","","","","","","","","","",""
"","","","","","html-keyboard-response","7","7538","0.0-7.0","","","","passed","","750","","","","","","","","","","","","","<p><b>This experiment requires keyboard input.</b></p> 
        <p><b>To ensure your response will be recorded successfully, please press the 'f' key to continue.</b></p>
        <p>If you can't proceed, you won't be able to complete this study.</p>
        <p></p> <!-- Blank line -->
        <p id=""blinking-text"" style=""font-weight; animation: blink 2s infinite;"">Press f to continue</p>
        <style>
            @keyframes blink {
                50% {
                    opacity: 0;
                }
            }
        </style>","f","","","","","","","","","","","","",""
"","","","","","html-keyboard-response","8","7839","0.0-8.0","","","","passed","","299","","","","","","","","","","","","","<p><b>This experiment requires keyboard input.</b></p> 
        <p><b>To ensure your response will be recorded successfully, please press the 'j' key to continue.</b></p>
        <p>If you can't proceed, you won't be able to complete this study.</p>
        <p></p> <!-- Blank line -->
        <p id=""blinking-text"" style=""font-weight; animation: blink 2s infinite;"">Press j to continue</p>
        <style>
            @keyframes blink {
                50% {
                    opacity: 0;
                }
            }
        </style>","j","","","","","","","","","","","","",""
"","","","","","browser-check","9","8850","0.0-9.0","","","","passed","","","2133","1200","true","chrome","131.0.0","false","Mac OS","true","60.06","true","true","","","","","","","","","","","","","","","",""
"","","","","","survey-text","10","12548","0.0-10.0","","","","passed","","3694","","","","","","","","","","","","","","{""prolificID"":""cindyTestv1""}","","","","","","","","","","","","",""
"","","","","","instructions","11","17099","0.0-11.0-0.0-0.0","","","","passed","[{""page_index"":0,""viewing_time"":1349},{""page_index"":1,""viewing_time"":531},{""page_index"":2,""viewing_time"":1270},{""page_index"":3,""viewing_time"":1399}]","4550","","","","","","","","","","","","","","","","","","","","","","","","","","",""
"","","","","","html-keyboard-response","12","19288","0.0-11.0-0.0-1.0","","","","passed","","1686","","","","","","","","","","","","","<br>Remember! After a ball falls, the screen will disappear, and you'll decide if the proposed position is where the hidden triangle was. <br>You will now practice this by watching a few videos and making decisions.<p>To respond:<br style=""margin-bottom: 5px; text-indent: -20px; padding-left: 20px;"">- Press <b style=""color: #12AD2B;"">J for Yes</b>, if you think the triangle is in the correct position.<br style=""margin-top: 0; text-indent: -20px; padding-left: 20px;"">- Press <b style=""color: orange;"">F for No</b>, if you think the triangle is not in the correct position.</p><p>In this practice round, there is no time limit. Focus on getting comfortable with the task first.<br>Press either J or F to begin your practice trials.</p><img src = ""YesOrNo_instruction.png"" style=""width: 65%;""></img>","f","","","","","","","","","","","","",""
"","","","","","html-keyboard-response","13","21393","0.0-11.0-0.0-2.0-0.0","","","","passed","","","","","","","","","","","","","","","","","ballFalling_prac","660","666","350","3","fallScene","false","","","","","",""
"","","","","","html-keyboard-response","14","23512","0.0-11.0-0.0-2.0-1.0","","","","passed","","2116","","","","","","","","","","","","","","f","yesOrNo_prac_noTimed","","","","3","","","wrong direction","NA","","","",""
"","","","","","html-keyboard-response","15","25068","0.0-11.0-0.0-2.0-0.1","","","","passed","","","","","","","","","","","","","","","","","ballFalling_prac","416","464","296","1","fallScene","false","","","","","",""
"","","","","","html-keyboard-response","16","26234","0.0-11.0-0.0-2.0-1.1","","","","passed","","1162","","","","","","","","","","","","","","j","yesOrNo_prac_noTimed","","","","1","","","gt","NA","","","",""
"","","","","","html-keyboard-response","17","27802","0.0-11.0-0.0-2.0-0.2","","","","passed","","","","","","","","","","","","","","","","","ballFalling_prac","441","414","302","5","fallScene","true","","","","","",""
"","","","","","html-keyboard-response","18","30190","0.0-11.0-0.0-2.0-1.2","","","","passed","","2384","","","","","","","","","","","","","","j","yesOrNo_prac_noTimed","","","","5","","","close gt","NA","","","",""
"","","","","","instructions","19","34333","0.0-11.0-0.0-3.0","","","","passed","[{""page_index"":0,""viewing_time"":2323},{""page_index"":1,""viewing_time"":1818}]","4142","","","","","","","","","","","","","","","","","","","","","","","","","","",""
"","","","","","html-button-response","20","36033","0.0-11.0-0.0-4.0","","","","passed","","1195","","","","","","","","","","","","","<p>To make sure you understood the task, we just have a <b>brief quiz</b> here.</p><p>If you need to review the instructions, click 'Previous'.</p><p>It's important to understand the task to do the study, so you have to pass the quiz to move to the study.</p>","1","","","","","","","","","","","","",""
"","","","","","survey-multi-choice","21","37631","0.0-11.0-1.0-0.0","","","","passed","","1597","","","","","","","","","","","","","","{""generalProcedure"":""Watch a video of a ball falling, some of it behind a gray screen. After each video, decide if the triangle is at the spot where the ball hit the triangle behind the screen. There is time limit for the response.""}","","","","","","","","","","[0]","","",""
"","","","","","survey-multi-choice","22","39216","0.0-11.0-1.0-1.0","","","","passed","","1583","","","","","","","","","","","","","","{""checkBallHitObstacle"":""Yes.""}","","","","","","","","","","[0]","","",""
"","","","","","survey-multi-choice","23","40583","0.0-11.0-1.0-2.0","","","","passed","","1366","","","","","","","","","","","","","","{""checkTriangleVisibility"":""No, the triangle is hidden behind the gray screen.""}","","","","","","","","","","[0]","","",""
"","","","","","survey-multi-choice","24","42268","0.0-11.0-1.0-3.0","","","","passed","","1683","","","","","","","","","","","","","","{""checkTimedResponse"":""Your response will not be recorded, and the trial will move to the next one.""}","","","","","","","","","","[0]","","",""
"","","","","","survey-multi-choice","25","43948","0.0-11.0-1.0-4.0","","","","passed","","1679","","","","","","","","","","","","","","{""checkTimeBlockNotice"":""At the beginning of each block.""}","","","","","","","","","","[0]","","",""
"","","","","","survey-multi-choice","26","52098","0.0-11.0-1.0-5.0","","","","passed","","8149","","","","","","","","","","","","","","{""checkTimeBlockSameness"":""Yes, the time limit is the same for all trials within a block.""}","","","","","","","","","","[0]","","",""
"","","","","","survey-multi-choice","27","54549","0.0-11.0-1.0-6.0","","","","passed","","2450","","","","","","","","","","","","","","{""checkTrianglePrecision"":""No. The proposed purple triangle is not in the correct position because it doesn't match the location of the white triangle exactly.""}","","","","","","","","","","[0]","","",""
"","","","","","instructions","28","58569","0.0-12.0","","","","passed","[{""page_index"":0,""viewing_time"":1231},{""page_index"":1,""viewing_time"":1450},{""page_index"":2,""viewing_time"":754},{""page_index"":3,""viewing_time"":583}]","4019","","","","","","","","","","","","","","","","","","","","","","","","","","",""
"","","","","","instructions","29","59848","0.0-13.0-0.0","","","","passed","[{""page_index"":0,""viewing_time"":1279}]","1279","","","","","","","","","","","","","","","","","","","","","","","","","","",""
"","","","","","html-keyboard-response","30","60849","0.0-13.0-1.0","","","","passed","","1000","","","","","","","","","","","","","<p><span style=""font-size:40px;"">Practice BLOCK 1</span></p><p><span style=""font-size:25px;"">You have <strong>3 second(s)</strong> to respond to the following trials.</span><br></p><p id=""blinking-text"" style=""font-weight; animation: blink 2s infinite;"">Press Space to continue</p><style>
                    @keyframes blink {
                        50% {
                            opacity: 0;
                        }
                    }
                </style>"," ","","","","","","","","","","","","",""
"","","","","","html-keyboard-response","31","62419","0.0-13.0-2.0-0.0","","","","passed","","","","","","","","","","","","","","","","","ballFalling_prac","660","610","263","4","fallScene","false","","","","","",""
"","","","","","html-keyboard-response","32","65426","0.0-13.0-2.0-1.0","","","","passed","","757","","","","","","","","","","","","","","j","yesOrNo_prac","","","","4","","","gt","3000","","","",""
"","","","","","html-keyboard-response","33","66987","0.0-13.0-2.0-0.1","","","","passed","","","","","","","","","","","","","","","","","ballFalling_prac","416","464","296","1","fallScene","false","","","","","",""
"","","","","","html-keyboard-response","34","69991","0.0-13.0-2.0-1.1","","","","passed","","2165","","","","","","","","","","","","","","f","yesOrNo_prac","","","","1","","","far gt","3000","","","",""
"","","","","","html-keyboard-response","35","71554","0.0-13.0-2.0-0.2","","","","passed","","","","","","","","","","","","","","","","","ballFalling_prac","584","536","296","1","fallScene","true","","","","","",""
"","","","","","html-keyboard-response","36","74559","0.0-13.0-2.0-1.2","","","","passed","","2096","","","","","","","","","","","","","","f","yesOrNo_prac","","","","1","","","close gt","3000","","","",""
"","","","","","html-keyboard-response","37","76053","0.0-13.0-3.0","","","","passed","","1493","","","","","","","","","","","","","<p><span style=""font-size:40px;"">Practice BLOCK 2</span></p><p><span style=""font-size:25px;"">You have <strong>1 second(s)</strong> to respond to the following trials.</span><br></p><p id=""blinking-text"" style=""font-weight; animation: blink 2s infinite;"">Press Space to continue</p><style>
                    @keyframes blink {
                        50% {
                            opacity: 0;
                        }
                    }
                </style>"," ","","","","","","","","","","","","",""
"","","","","","html-keyboard-response","38","77638","0.0-13.0-4.0-0.0","","","","passed","","","","","","","","","","","","","","","","","ballFalling_prac","660","610","263","4","fallScene","false","","","","","",""
"","","","","","html-keyboard-response","39","78642","0.0-13.0-4.0-1.0","","","","passed","","815","","","","","","","","","","","","","","j","yesOrNo_prac","","","","4","","","far gt","1000","","","",""
"","","","","","html-keyboard-response","40","80203","0.0-13.0-4.0-0.1","","","","passed","","","","","","","","","","","","","","","","","ballFalling_prac","441","500","317","6","fallScene","true","","","","","",""
"","","","","","html-keyboard-response","41","81208","0.0-13.0-4.0-1.1","","","","passed","","692","","","","","","","","","","","","","","f","yesOrNo_prac","","","","6","","","gt","1000","","","",""
"","","","","","html-keyboard-response","42","83320","0.0-13.0-4.0-0.2","","","","passed","","","","","","","","","","","","","","","","","ballFalling_prac","340","334","350","3","fallScene","true","","","","","",""
"","","","","","html-keyboard-response","43","84323","0.0-13.0-4.0-1.2","","","","passed","","619","","","","","","","","","","","","","","j","yesOrNo_prac","","","","3","","","close gt","1000","","","",""
"","","","","","instructions","44","86454","0.0-13.0-5.0","","","","passed","[{""page_index"":0,""viewing_time"":2130}]","2131","","","","","","","","","","","","","","","","","","","","","","","","","","",""
"","","","","","html-keyboard-response","45","87288","0.0-13.0-6.0","","","","passed","","832","","","","","","","","","","","","","<p><span style=""font-size:40px;"">Practice Test BLOCK 1</span></p><p><span style=""font-size:25px;"">You have <strong>1 second(s)</strong> to respond to the following trials.</span><br></p><p id=""blinking-text"" style=""font-weight; animation: blink 2s infinite;"">Press Space to continue</p><style>
                    @keyframes blink {
                        50% {
                            opacity: 0;
                        }
                    }
                </style>"," ","","","","","","","","","","","","",""
"","","","","","html-keyboard-response","46","88871","0.0-13.0-7.0-0.0","","","","passed","","","","","","","","","","","","","","","","","ballFalling_prac","559","586","302","5","fallScene","false","","","","","",""
"","","","","","html-keyboard-response","47","89876","0.0-13.0-7.0-1.0","","","","passed","","826","","","","","","","","","","","","","","j","yesOrNo_prac","","","","5","","","gt","1000","","","",""
"","","","","","html-keyboard-response","48","91454","0.0-13.0-7.0-0.1","","","","passed","","","","","","","","","","","","","","","","","ballFalling_prac","340","390","263","4","fallScene","true","","","","","",""
"","","","","","html-keyboard-response","49","92456","0.0-13.0-7.0-1.1","","","","passed","","704","","","","","","","","","","","","","","f","yesOrNo_prac","","","","4","","","far gt","1000","","","",""
"","","","","","html-keyboard-response","50","94021","0.0-13.0-7.0-0.2","","","","passed","","","","","","","","","","","","","","","","","ballFalling_prac","441","500","317","6","fallScene","true","","","","","",""
"","","","","","html-keyboard-response","51","95025","0.0-13.0-7.0-1.2","","","","passed","","833","","","","","","","","","","","","","","f","yesOrNo_prac","","","","6","","","close gt","1000","","","",""
"","","","","","html-keyboard-response","52","96351","0.0-13.0-8.0","","","","passed","","1325","","","","","","","","","","","","","<p><span style=""font-size:40px;"">Practice Test BLOCK 2</span></p><p><span style=""font-size:25px;"">You have <strong>3 second(s)</strong> to respond to the following trials.</span><br></p><p id=""blinking-text"" style=""font-weight; animation: blink 2s infinite;"">Press Space to continue</p><style>
                    @keyframes blink {
                        50% {
                            opacity: 0;
                        }
                    }
                </style>"," ","","","","","","","","","","","","",""
"","","","","","html-keyboard-response","53","97921","0.0-13.0-9.0-0.0","","","","passed","","","","","","","","","","","","","","","","","ballFalling_prac","340","390","263","4","fallScene","true","","","","","",""
"","","","","","html-keyboard-response","54","100925","0.0-13.0-9.0-1.0","","","","passed","","2234","","","","","","","","","","","","","","f","yesOrNo_prac","","","","4","","","close gt","3000","","","",""
"","","","","","html-keyboard-response","55","102504","0.0-13.0-9.0-0.1","","","","passed","","","","","","","","","","","","","","","","","ballFalling_prac","559","586","302","5","fallScene","false","","","","","",""
"","","","","","html-keyboard-response","56","105508","0.0-13.0-9.0-1.1","","","","passed","","1937","","","","","","","","","","","","","","f","yesOrNo_prac","","","","5","","","far gt","3000","","","",""
"","","","","","html-keyboard-response","57","107088","0.0-13.0-9.0-0.2","","","","passed","","","","","","","","","","","","","","","","","ballFalling_prac","416","365","249","2","fallScene","false","","","","","",""
"","","","","","html-keyboard-response","58","110093","0.0-13.0-9.0-1.2","","","","passed","","1765","","","","","","","","","","","","","","j","yesOrNo_prac","","","","2","","","gt","3000","","","",""
"","","","","","instructions","59","114153","0.0-14.0","","","","passed","[{""page_index"":0,""viewing_time"":4058}]","4059","","","","","","","","","","","","","","","","","","","","","","","","","","",""
"","","","","","html-keyboard-response","60","115045","0.0-15.0","","","","passed","","891","","","","","","","","","","","","","<p><span style=""font-size:40px;"">BLOCK 1</span></p><p><span style=""font-size:25px;"">You have <strong>1 second(s)</strong> to respond to the following trials.</span><br></p><p></p> <!-- Blank line -->
                <p id=""blinking-text"" style=""font-weight; animation: blink 2s infinite;"">Press Space to continue</p>
                <style>
                    @keyframes blink {
                        50% {
                            opacity: 0;
                        }
                    }
                </style></p>"," ","","","","","","","","","","","","",""
"","","","","","html-keyboard-response","61","116838","0.0-16.0-0.0","","","","passed","","","","","","","","","","","","","","","","","ballFalling","322.3","308.07114317029976","253.89","2","fallScene","true","","","","1","",""
"","","","","","html-keyboard-response","62","117842","0.0-16.0-1.0","","","","passed","","748","","","","","","","","","","","","","","f","yesOrNo","","","","2","","","lp","1000","","1","321.3","151"
"","","","","","html-keyboard-response","63","119421","0.0-16.0-0.1","","","","passed","","","","","","","","","","","","","","","","","ballFalling","500","553.4711431702997","282.51","7","fallScene","true","","","","2","",""
"","","","","","html-keyboard-response","64","120425","0.0-16.0-1.1","","","","passed","","950","","","","","","","","","","","","","","j","yesOrNo","","","","7","","","mid","1000","","2","501","300"
"","","","","","html-keyboard-response","65","121988","0.0-16.0-0.2","","","","passed","","","","","","","","","","","","","","","","","ballFalling","500","453.67114317029973","210.33","5","fallScene","false","","","","3","",""
"","","","","","html-keyboard-response","66","122992","0.0-16.0-1.2","","","","passed","","762","","","","","","","","","","","","","","f","yesOrNo","","","","5","","","lp","1000","","3","499","151"
"","","","","","html-keyboard-response","67","124789","0.0-16.0-0.3","","","","passed","","","","","","","","","","","","","","","","","ballFalling","322.3","308.07114317029976","253.89","2","fallScene","false","","","","4","",""
"","","","","","html-keyboard-response","68","125794","0.0-16.0-1.3","","","","passed","","null","","","","","","","","","","","","","","null","yesOrNo","","","","2","","","gt","1000","","4","308.07114317029976","253.89"
"","","","","","html-keyboard-response","69","127355","0.0-16.0-0.4","","","","passed","","","","","","","","","","","","","","","","","ballFalling","322.3","379.3711431702997","245.25","1","fallScene","false","","","","5","",""
"","","","","","html-keyboard-response","70","128359","0.0-16.0-1.4","","","","passed","","734","","","","","","","","","","","","","","j","yesOrNo","","","","1","","","gt","1000","","5","379.3711431702997","245.25"
"","","","","","html-keyboard-response","71","129921","0.0-16.0-0.5","","","","passed","","","","","","","","","","","","","","","","","ballFalling","322.3","296.07114317029976","371.46","3","fallScene","false","","","","6","",""
"","","","","","html-keyboard-response","72","130925","0.0-16.0-1.5","","","","passed","","828","","","","","","","","","","","","","","f","yesOrNo","","","","3","","","gt","1000","","6","296.07114317029976","371.46"
"","","","","","html-keyboard-response","73","132939","0.0-16.0-0.6","","","","passed","","","","","","","","","","","","","","","","","ballFalling","604.4000000000001","596.8711431702998","394.5","10","fallScene","false","","","","7","",""
"","","","","","html-keyboard-response","74","133943","0.0-16.0-1.6","","","","passed","","752","","","","","","","","","","","","","","f","yesOrNo","","","","10","","","mid","1000","","7","536.4288568297004","300"
"","","","","","html-keyboard-response","75","135604","0.0-16.0-0.7","","","","passed","","","","","","","","","","","","","","","","","ballFalling","500","479.92114317029973","330.87","6","fallScene","false","","","","8","",""
"","","","","","html-keyboard-response","76","136608","0.0-16.0-1.7","","","","passed","","803","","","","","","","","","","","","","","f","yesOrNo","","","","6","","","gt","1000","","8","479.9211431702998","330.87"
"","","","","","html-keyboard-response","77","138172","0.0-16.0-0.8","","","","passed","","","","","","","","","","","","","","","","","ballFalling","500","453.67114317029973","210.33","5","fallScene","true","","","","9","",""
"","","","","","html-keyboard-response","78","139176","0.0-16.0-1.8","","","","passed","","999","","","","","","","","","","","","","","j","yesOrNo","","","","5","","","gt","1000","","9","453.6711431702998","210.33"
"","","","","","html-keyboard-response","79","141189","0.0-16.0-0.9","","","","passed","","","","","","","","","","","","","","","","","ballFalling","500","510.8711431702997","369.03","8","fallScene","false","","","","10","",""
"","","","","","html-keyboard-response","80","142192","0.0-16.0-1.9","","","","passed","","673","","","","","","","","","","","","","","f","yesOrNo","","","","8","","","mid","1000","","10","501","300"
"","","","","","html-keyboard-response","81","143756","0.0-16.0-0.10","","","","passed","","","","","","","","","","","","","","","","","ballFalling","500","453.67114317029973","210.33","5","fallScene","true","","","","11","",""
"","","","","","html-keyboard-response","82","144759","0.0-16.0-1.10","","","","passed","","717","","","","","","","","","","","","","","f","yesOrNo","","","","5","","","lp","1000","","11","499","151"
"","","","","","html-keyboard-response","83","146338","0.0-16.0-0.11","","","","passed","","","","","","","","","","","","","","","","","ballFalling","500","553.4711431702997","282.51","7","fallScene","true","","","","12","",""
"","","","","","html-keyboard-response","84","147342","0.0-16.0-1.11","","","","passed","","856","","","","","","","","","","","","","","f","yesOrNo","","","","7","","","lp","1000","","12","501","227.2843295913261"
"","","","","","html-keyboard-response","85","148905","0.0-16.0-0.12","","","","passed","","","","","","","","","","","","","","","","","ballFalling","322.3","356.42114317029973","357.87","4","fallScene","false","","","","13","",""
"","","","","","html-keyboard-response","86","149909","0.0-16.0-1.12","","","","passed","","884","","","","","","","","","","","","","","f","yesOrNo","","","","4","","","gt","1000","","13","356.42114317029973","357.87"
"","","","","","html-keyboard-response","87","151705","0.0-16.0-0.13","","","","passed","","","","","","","","","","","","","","","","","ballFalling","322.3","308.07114317029976","253.89","2","fallScene","false","","","","14","",""
"","","","","","html-keyboard-response","88","152710","0.0-16.0-1.13","","","","passed","","691","","","","","","","","","","","","","","f","yesOrNo","","","","2","","","gt","1000","","14","308.07114317029976","253.89"
"","","","","","html-keyboard-response","89","154724","0.0-16.0-0.14","","","","passed","","","","","","","","","","","","","","","","","ballFalling","500","510.8711431702997","369.03","8","fallScene","true","","","","15","",""
"","","","","","html-keyboard-response","90","155726","0.0-16.0-1.14","","","","passed","","786","","","","","","","","","","","","","","f","yesOrNo","","","","8","","","gt","1000","","15","510.8711431702997","369.03"
"","","","","","html-keyboard-response","91","157306","0.0-16.0-0.15","","","","passed","","","","","","","","","","","","","","","","","ballFalling","500","553.4711431702997","282.51","7","fallScene","false","","","","16","",""
"","","","","","html-keyboard-response","92","158311","0.0-16.0-1.15","","","","passed","","699","","","","","","","","","","","","","","j","yesOrNo","","","","7","","","gt","1000","","16","553.4711431702997","282.51"
"","","","","","html-keyboard-response","93","160323","0.0-16.0-0.16","","","","passed","","","","","","","","","","","","","","","","","ballFalling","604.4000000000001","596.8711431702998","394.5","10","fallScene","false","","","","17","",""
"","","","","","html-keyboard-response","94","161326","0.0-16.0-1.16","","","","passed","","750","","","","","","","","","","","","","","f","yesOrNo","","","","10","","","lp","1000","","17","603.4000000000001","215.50214355555383"
"","","","","","html-keyboard-response","95","162824","0.0-16.0-0.17","","","","passed","","","","","","","","","","","","","","","","","ballFalling","604.4000000000001","667.6211431702998","201.78","9","fallScene","true","","","","18","",""
"","","","","","html-keyboard-response","96","163827","0.0-16.0-1.17","","","","passed","","879","","","","","","","","","","","","","","f","yesOrNo","","","","9","","","gt","1000","","18","667.6211431702998","201.78"
"","","","","","html-keyboard-response","97","165323","0.0-16.0-0.18","","","","passed","","","","","","","","","","","","","","","","","ballFalling","604.4000000000001","667.6211431702998","201.78","9","fallScene","true","","","","19","",""
"","","","","","html-keyboard-response","98","166327","0.0-16.0-1.18","","","","passed","","668","","","","","","","","","","","","","","f","yesOrNo","","","","9","","","gt","1000","","19","667.6211431702998","201.78"
"","","","","","html-keyboard-response","99","167890","0.0-16.0-0.19","","","","passed","","","","","","","","","","","","","","","","","ballFalling","604.4000000000001","575.4211431702997","266.76","12","fallScene","true","","","","20","",""
"","","","","","html-keyboard-response","100","168894","0.0-16.0-1.19","","","","passed","","820","","","","","","","","","","","","","","f","yesOrNo","","","","12","","","mid","1000","","20","536.4288568297004","300"
"","","","","","html-keyboard-response","101","170907","0.0-16.0-0.20","","","","passed","","","","","","","","","","","","","","","","","ballFalling","604.4000000000001","596.8711431702998","394.5","10","fallScene","true","","","","21","",""
"","","","","","html-keyboard-response","102","171911","0.0-16.0-1.20","","","","passed","","891","","","","","","","","","","","","","","j","yesOrNo","","","","10","","","mid","1000","","21","536.4288568297004","300"
"","","","","","html-keyboard-response","103","173474","0.0-16.0-0.21","","","","passed","","","","","","","","","","","","","","","","","ballFalling","604.4000000000001","650.0211431702996","404.58000000000004","11","fallScene","false","","","","22","",""
"","","","","","html-keyboard-response","104","174479","0.0-16.0-1.21","","","","passed","","680","","","","","","","","","","","","","","f","yesOrNo","","","","11","","","lp","1000","","22","605.4000000000001","372.6340973215488"
"","","","","","html-keyboard-response","105","176490","0.0-16.0-0.22","","","","passed","","","","","","","","","","","","","","","","","ballFalling","500","510.8711431702997","369.03","8","fallScene","true","","","","23","",""
"","","","","","html-keyboard-response","106","177492","0.0-16.0-1.22","","","","passed","","769","","","","","","","","","","","","","","j","yesOrNo","","","","8","","","gt","1000","","23","510.8711431702997","369.03"
"","","","","","html-keyboard-response","107","179056","0.0-16.0-0.23","","","","passed","","","","","","","","","","","","","","","","","ballFalling","322.3","379.3711431702997","245.25","1","fallScene","true","","","","24","",""
"","","","","","html-keyboard-response","108","180060","0.0-16.0-1.23","","","","passed","","770","","","","","","","","","","","","","","f","yesOrNo","","","","1","","","lp","1000","","24","323.3","217.74551669457017"
"","","","","","html-keyboard-response","109","182039","0.0-17.0","","","","passed","","1977","","","","","","","","","","","","","<p><span style=""font-size:40px;"">BLOCK 2</span></p><p><span style=""font-size:25px;"">You have <strong>1 second(s)</strong> to respond to the following trials.</span><br></p><p></p> <!-- Blank line -->
                <p id=""blinking-text"" style=""font-weight; animation: blink 2s infinite;"">Press Space to continue</p>
                <style>
                    @keyframes blink {
                        50% {
                            opacity: 0;
                        }
                    }
                </style></p>"," ","","","","","","","","","","","","",""
"","","","","","html-keyboard-response","110","183524","0.0-18.0-0.0","","","","passed","","","","","","","","","","","","","","","","","ballFalling","604.4000000000001","667.6211431702998","201.78","9","fallScene","false","","","","25","",""
"","","","","","html-keyboard-response","111","184528","0.0-18.0-1.0","","","","passed","","698","","","","","","","","","","","","","","f","yesOrNo","","","","9","","","mid","1000","","25","605.4000000000001","300"
"","","","","","html-keyboard-response","112","186090","0.0-18.0-0.1","","","","passed","","","","","","","","","","","","","","","","","ballFalling","322.3","356.42114317029973","357.87","4","fallScene","true","","","","26","",""
"","","","","","html-keyboard-response","113","187094","0.0-18.0-1.1","","","","passed","","775","","","","","","","","","","","","","","j","yesOrNo","","","","4","","","mid","1000","","26","390.27114317029975","300"
"","","","","","html-keyboard-response","114","188656","0.0-18.0-0.2","","","","passed","","","","","","","","","","","","","","","","","ballFalling","604.4000000000001","650.0211431702996","404.58000000000004","11","fallScene","true","","","","27","",""
"","","","","","html-keyboard-response","115","189660","0.0-18.0-1.2","","","","passed","","471","","","","","","","","","","","","","","f","yesOrNo","","","","11","","","lp","1000","","27","605.4000000000001","372.6340973215488"
"","","","","","html-keyboard-response","116","191223","0.0-18.0-0.3","","","","passed","","","","","","","","","","","","","","","","","ballFalling","604.4000000000001","575.4211431702997","266.76","12","fallScene","false","","","","28","",""
"","","","","","html-keyboard-response","117","192228","0.0-18.0-1.3","","","","passed","","596","","","","","","","","","","","","","","f","yesOrNo","","","","12","","","gt","1000","","28","575.4211431702997","266.76"
"","","","","","html-keyboard-response","118","194024","0.0-18.0-0.4","","","","passed","","","","","","","","","","","","","","","","","ballFalling","322.3","308.07114317029976","253.89","2","fallScene","true","","","","29","",""
"","","","","","html-keyboard-response","119","195028","0.0-18.0-1.4","","","","passed","","732","","","","","","","","","","","","","","f","yesOrNo","","","","2","","","mid","1000","","29","321.3","300"
"","","","","","html-keyboard-response","120","196825","0.0-18.0-0.5","","","","passed","","","","","","","","","","","","","","","","","ballFalling","322.3","308.07114317029976","253.89","2","fallScene","false","","","","30","",""
"","","","","","html-keyboard-response","121","197829","0.0-18.0-1.5","","","","passed","","850","","","","","","","","","","","","","","j","yesOrNo","","","","2","","","mid","1000","","30","321.3","300"
"","","","","","html-keyboard-response","122","199491","0.0-18.0-0.6","","","","passed","","","","","","","","","","","","","","","","","ballFalling","500","479.92114317029973","330.87","6","fallScene","false","","","","31","",""
"","","","","","html-keyboard-response","123","200493","0.0-18.0-1.6","","","","passed","","655","","","","","","","","","","","","","","j","yesOrNo","","","","6","","","mid","1000","","31","499","300"
"","","","","","html-keyboard-response","124","202158","0.0-18.0-0.7","","","","passed","","","","","","","","","","","","","","","","","ballFalling","500","479.92114317029973","330.87","6","fallScene","true","","","","32","",""
"","","","","","html-keyboard-response","125","203160","0.0-18.0-1.7","","","","passed","","767","","","","","","","","","","","","","","f","yesOrNo","","","","6","","","mid","1000","","32","499","300"
"","","","","","html-keyboard-response","126","204741","0.0-18.0-0.8","","","","passed","","","","","","","","","","","","","","","","","ballFalling","500","553.4711431702997","282.51","7","fallScene","false","","","","33","",""
"","","","","","html-keyboard-response","127","205745","0.0-18.0-1.8","","","","passed","","769","","","","","","","","","","","","","","f","yesOrNo","","","","7","","","mid","1000","","33","501","300"
"","","","","","html-keyboard-response","128","207309","0.0-18.0-0.9","","","","passed","","","","","","","","","","","","","","","","","ballFalling","322.3","356.42114317029973","357.87","4","fallScene","false","","","","34","",""
"","","","","","html-keyboard-response","129","208313","0.0-18.0-1.9","","","","passed","","584","","","","","","","","","","","","","","j","yesOrNo","","","","4","","","mid","1000","","34","390.27114317029975","300"
"","","","","","html-keyboard-response","130","209874","0.0-18.0-0.10","","","","passed","","","","","","","","","","","","","","","","","ballFalling","322.3","296.07114317029976","371.46","3","fallScene","true","","","","35","",""
"","","","","","html-keyboard-response","131","210878","0.0-18.0-1.10","","","","passed","","693","","","","","","","","","","","","","","f","yesOrNo","","","","3","","","lp","1000","","35","321.3","287.3327096511259"
"","","","","","html-keyboard-response","132","212459","0.0-18.0-0.11","","","","passed","","","","","","","","","","","","","","","","","ballFalling","500","553.4711431702997","282.51","7","fallScene","false","","","","36","",""
"","","","","","html-keyboard-response","133","213463","0.0-18.0-1.11","","","","passed","","415","","","","","","","","","","","","","","j","yesOrNo","","","","7","","","gt","1000","","36","553.4711431702997","282.51"
"","","","","","html-keyboard-response","134","215125","0.0-18.0-0.12","","","","passed","","","","","","","","","","","","","","","","","ballFalling","500","479.92114317029973","330.87","6","fallScene","true","","","","37","",""
"","","","","","html-keyboard-response","135","216130","0.0-18.0-1.12","","","","passed","","732","","","","","","","","","","","","","","f","yesOrNo","","","","6","","","lp","1000","","37","499","189.92909825697632"
"","","","","","html-keyboard-response","136","217692","0.0-18.0-0.13","","","","passed","","","","","","","","","","","","","","","","","ballFalling","500","453.67114317029973","210.33","5","fallScene","false","","","","38","",""
"","","","","","html-keyboard-response","137","218696","0.0-18.0-1.13","","","","passed","","804","","","","","","","","","","","","","","j","yesOrNo","","","","5","","","mid","1000","","38","499","300"
"","","","","","html-keyboard-response","138","220709","0.0-18.0-0.14","","","","passed","","","","","","","","","","","","","","","","","ballFalling","500","510.8711431702997","369.03","8","fallScene","true","","","","39","",""
"","","","","","html-keyboard-response","139","221713","0.0-18.0-1.14","","","","passed","","649","","","","","","","","","","","","","","f","yesOrNo","","","","8","","","lp","1000","","39","501","151"
"","","","","","html-keyboard-response","140","223375","0.0-18.0-0.15","","","","passed","","","","","","","","","","","","","","","","","ballFalling","500","479.92114317029973","330.87","6","fallScene","true","","","","40","",""
"","","","","","html-keyboard-response","141","224380","0.0-18.0-1.15","","","","passed","","861","","","","","","","","","","","","","","f","yesOrNo","","","","6","","","gt","1000","","40","479.9211431702998","330.87"
"","","","","","html-keyboard-response","142","226175","0.0-18.0-0.16","","","","passed","","","","","","","","","","","","","","","","","ballFalling","322.3","308.07114317029976","253.89","2","fallScene","false","","","","41","",""
"","","","","","html-keyboard-response","143","227181","0.0-18.0-1.16","","","","passed","","885","","","","","","","","","","","","","","f","yesOrNo","","","","2","","","lp","1000","","41","321.3","151"
"","","","","","html-keyboard-response","144","228760","0.0-18.0-0.17","","","","passed","","","","","","","","","","","","","","","","","ballFalling","500","553.4711431702997","282.51","7","fallScene","false","","","","42","",""
"","","","","","html-keyboard-response","145","229764","0.0-18.0-1.17","","","","passed","","742","","","","","","","","","","","","","","f","yesOrNo","","","","7","","","lp","1000","","42","501","227.2843295913261"
"","","","","","html-keyboard-response","146","231259","0.0-18.0-0.18","","","","passed","","","","","","","","","","","","","","","","","ballFalling","604.4000000000001","667.6211431702998","201.78","9","fallScene","false","","","","43","",""
"","","","","","html-keyboard-response","147","232263","0.0-18.0-1.18","","","","passed","","874","","","","","","","","","","","","","","f","yesOrNo","","","","9","","","lp","1000","","43","605.4000000000001","151"
"","","","","","html-keyboard-response","148","234276","0.0-18.0-0.19","","","","passed","","","","","","","","","","","","","","","","","ballFalling","604.4000000000001","596.8711431702998","394.5","10","fallScene","true","","","","44","",""
"","","","","","html-keyboard-response","149","235282","0.0-18.0-1.19","","","","passed","","716","","","","","","","","","","","","","","f","yesOrNo","","","","10","","","gt","1000","","44","596.8711431702998","394.5"
"","","","","","html-keyboard-response","150","237292","0.0-18.0-0.20","","","","passed","","","","","","","","","","","","","","","","","ballFalling","604.4000000000001","596.8711431702998","394.5","10","fallScene","false","","","","45","",""
"","","","","","html-keyboard-response","151","238296","0.0-18.0-1.20","","","","passed","","913","","","","","","","","","","","","","","j","yesOrNo","","","","10","","","lp","1000","","45","603.4000000000001","215.50214355555383"
"","","","","","html-keyboard-response","152","239859","0.0-18.0-0.21","","","","passed","","","","","","","","","","","","","","","","","ballFalling","604.4000000000001","575.4211431702997","266.76","12","fallScene","true","","","","46","",""
"","","","","","html-keyboard-response","153","240862","0.0-18.0-1.21","","","","passed","","682","","","","","","","","","","","","","","f","yesOrNo","","","","12","","","lp","1000","","46","603.4000000000001","151"
"","","","","","html-keyboard-response","154","242426","0.0-18.0-0.22","","","","passed","","","","","","","","","","","","","","","","","ballFalling","604.4000000000001","650.0211431702996","404.58000000000004","11","fallScene","true","","","","47","",""
"","","","","","html-keyboard-response","155","243430","0.0-18.0-1.22","","","","passed","","680","","","","","","","","","","","","","","j","yesOrNo","","","","11","","","gt","1000","","47","650.0211431702996","404.58"
"","","","","","html-keyboard-response","156","244993","0.0-18.0-0.23","","","","passed","","","","","","","","","","","","","","","","","ballFalling","604.4000000000001","575.4211431702997","266.76","12","fallScene","false","","","","48","",""
"","","","","","html-keyboard-response","157","245997","0.0-18.0-1.23","","","","passed","","631","","","","","","","","","","","","","","f","yesOrNo","","","","12","","","lp","1000","","48","603.4000000000001","151"
"","","","","","html-keyboard-response","158","246941","0.0-19.0","","","","passed","","942","","","","","","","","","","","","","<p><span style=""font-size:40px;"">BLOCK 3</span></p><p><span style=""font-size:25px;"">You have <strong>3 second(s)</strong> to respond to the following trials.</span><br></p><p></p> <!-- Blank line -->
                <p id=""blinking-text"" style=""font-weight; animation: blink 2s infinite;"">Press Space to continue</p>
                <style>
                    @keyframes blink {
                        50% {
                            opacity: 0;
                        }
                    }
                </style></p>"," ","","","","","","","","","","","","",""
"","","","","","html-keyboard-response","159","248726","0.0-20.0-0.0","","","","passed","","","","","","","","","","","","","","","","","ballFalling","322.3","308.07114317029976","253.89","2","fallScene","true","","","","49","",""
"","","","","","html-keyboard-response","160","251731","0.0-20.0-1.0","","","","passed","","2544","","","","","","","","","","","","","","f","yesOrNo","","","","2","","","mid","3000","","49","321.3","300"
"","","","","","html-keyboard-response","161","253293","0.0-20.0-0.1","","","","passed","","","","","","","","","","","","","","","","","ballFalling","322.3","379.3711431702997","245.25","1","fallScene","false","","","","50","",""
"","","","","","html-keyboard-response","162","256298","0.0-20.0-1.1","","","","passed","","2333","","","","","","","","","","","","","","f","yesOrNo","","","","1","","","lp","3000","","50","323.3","217.74551669457017"
"","","","","","html-keyboard-response","163","257794","0.0-20.0-0.2","","","","passed","","","","","","","","","","","","","","","","","ballFalling","604.4000000000001","667.6211431702998","201.78","9","fallScene","false","","","","51","",""
"","","","","","html-keyboard-response","164","260797","0.0-20.0-1.2","","","","passed","","1966","","","","","","","","","","","","","","f","yesOrNo","","","","9","","","mid","3000","","51","605.4000000000001","300"
"","","","","","html-keyboard-response","165","262461","0.0-20.0-0.3","","","","passed","","","","","","","","","","","","","","","","","ballFalling","500","479.92114317029973","330.87","6","fallScene","true","","","","52","",""
"","","","","","html-keyboard-response","166","265465","0.0-20.0-1.3","","","","passed","","2085","","","","","","","","","","","","","","f","yesOrNo","","","","6","","","lp","3000","","52","499","189.92909825697632"
"","","","","","html-keyboard-response","167","267027","0.0-20.0-0.4","","","","passed","","","","","","","","","","","","","","","","","ballFalling","604.4000000000001","575.4211431702997","266.76","12","fallScene","true","","","","53","",""
"","","","","","html-keyboard-response","168","270031","0.0-20.0-1.4","","","","passed","","1598","","","","","","","","","","","","","","j","yesOrNo","","","","12","","","gt","3000","","53","575.4211431702997","266.76"
"","","","","","html-keyboard-response","169","271611","0.0-20.0-0.5","","","","passed","","","","","","","","","","","","","","","","","ballFalling","500","553.4711431702997","282.51","7","fallScene","false","","","","54","",""
"","","","","","html-keyboard-response","170","274615","0.0-20.0-1.5","","","","passed","","898","","","","","","","","","","","","","","f","yesOrNo","","","","7","","","mid","3000","","54","501","300"
"","","","","","html-keyboard-response","171","276178","0.0-20.0-0.6","","","","passed","","","","","","","","","","","","","","","","","ballFalling","604.4000000000001","575.4211431702997","266.76","12","fallScene","true","","","","55","",""
"","","","","","html-keyboard-response","172","279182","0.0-20.0-1.6","","","","passed","","1565","","","","","","","","","","","","","","j","yesOrNo","","","","12","","","mid","3000","","55","536.4288568297004","300"
"","","","","","html-keyboard-response","173","280845","0.0-20.0-0.7","","","","passed","","","","","","","","","","","","","","","","","ballFalling","500","479.92114317029973","330.87","6","fallScene","false","","","","56","",""
"","","","","","html-keyboard-response","174","283847","0.0-20.0-1.7","","","","passed","","1370","","","","","","","","","","","","","","f","yesOrNo","","","","6","","","mid","3000","","56","499","300"
"","","","","","html-keyboard-response","175","285861","0.0-20.0-0.8","","","","passed","","","","","","","","","","","","","","","","","ballFalling","604.4000000000001","596.8711431702998","394.5","10","fallScene","true","","","","57","",""
"","","","","","html-keyboard-response","176","288865","0.0-20.0-1.8","","","","passed","","1362","","","","","","","","","","","","","","j","yesOrNo","","","","10","","","mid","3000","","57","536.4288568297004","300"
"","","","","","html-keyboard-response","177","290428","0.0-20.0-0.9","","","","passed","","","","","","","","","","","","","","","","","ballFalling","500","453.67114317029973","210.33","5","fallScene","true","","","","58","",""
"","","","","","html-keyboard-response","178","293432","0.0-20.0-1.9","","","","passed","","2110","","","","","","","","","","","","","","f","yesOrNo","","","","5","","","lp","3000","","58","499","151"
"","","","","","html-keyboard-response","179","294995","0.0-20.0-0.10","","","","passed","","","","","","","","","","","","","","","","","ballFalling","322.3","379.3711431702997","245.25","1","fallScene","true","","","","59","",""
"","","","","","html-keyboard-response","180","297999","0.0-20.0-1.10","","","","passed","","1028","","","","","","","","","","","","","","j","yesOrNo","","","","1","","","gt","3000","","59","379.3711431702997","245.25"
"","","","","","html-keyboard-response","181","299561","0.0-20.0-0.11","","","","passed","","","","","","","","","","","","","","","","","ballFalling","322.3","296.07114317029976","371.46","3","fallScene","false","","","","60","",""
"","","","","","html-keyboard-response","182","302565","0.0-20.0-1.11","","","","passed","","2683","","","","","","","","","","","","","","f","yesOrNo","","","","3","","","gt","3000","","60","296.07114317029976","371.46"
"","","","","","html-keyboard-response","183","304579","0.0-20.0-0.12","","","","passed","","","","","","","","","","","","","","","","","ballFalling","604.4000000000001","596.8711431702998","394.5","10","fallScene","true","","","","61","",""
"","","","","","html-keyboard-response","184","307582","0.0-20.0-1.12","","","","passed","","2319","","","","","","","","","","","","","","f","yesOrNo","","","","10","","","lp","3000","","61","603.4000000000001","215.50214355555383"
"","","","","","html-keyboard-response","185","309162","0.0-20.0-0.13","","","","passed","","","","","","","","","","","","","","","","","ballFalling","500","553.4711431702997","282.51","7","fallScene","false","","","","62","",""
"","","","","","html-keyboard-response","186","312167","0.0-20.0-1.13","","","","passed","","2879","","","","","","","","","","","","","","f","yesOrNo","","","","7","","","lp","3000","","62","501","227.2843295913261"
"","","","","","html-keyboard-response","187","313730","0.0-20.0-0.14","","","","passed","","","","","","","","","","","","","","","","","ballFalling","322.3","296.07114317029976","371.46","3","fallScene","true","","","","63","",""
"","","","","","html-keyboard-response","188","316732","0.0-20.0-1.14","","","","passed","","2002","","","","","","","","","","","","","","j","yesOrNo","","","","3","","","lp","3000","","63","321.3","287.3327096511259"
"","","","","","html-keyboard-response","189","318296","0.0-20.0-0.15","","","","passed","","","","","","","","","","","","","","","","","ballFalling","500","453.67114317029973","210.33","5","fallScene","false","","","","64","",""
"","","","","","html-keyboard-response","190","321299","0.0-20.0-1.15","","","","passed","","1915","","","","","","","","","","","","","","j","yesOrNo","","","","5","","","gt","3000","","64","453.6711431702998","210.33"
"","","","","","html-keyboard-response","191","322962","0.0-20.0-0.16","","","","passed","","","","","","","","","","","","","","","","","ballFalling","500","479.92114317029973","330.87","6","fallScene","false","","","","65","",""
"","","","","","html-keyboard-response","192","325966","0.0-20.0-1.16","","","","passed","","1708","","","","","","","","","","","","","","f","yesOrNo","","","","6","","","gt","3000","","65","479.9211431702998","330.87"
"","","","","","html-keyboard-response","193","327530","0.0-20.0-0.17","","","","passed","","","","","","","","","","","","","","","","","ballFalling","322.3","296.07114317029976","371.46","3","fallScene","false","","","","66","",""
"","","","","","html-keyboard-response","194","330534","0.0-20.0-1.17","","","","passed","","1235","","","","","","","","","","","","","","j","yesOrNo","","","","3","","","lp","3000","","66","321.3","287.3327096511259"
"","","","","","html-keyboard-response","195","332196","0.0-20.0-0.18","","","","passed","","","","","","","","","","","","","","","","","ballFalling","500","479.92114317029973","330.87","6","fallScene","true","","","","67","",""
"","","","","","html-keyboard-response","196","335200","0.0-20.0-1.18","","","","passed","","920","","","","","","","","","","","","","","f","yesOrNo","","","","6","","","lp","3000","","67","499","189.92909825697632"
"","","","","","html-keyboard-response","197","337213","0.0-20.0-0.19","","","","passed","","","","","","","","","","","","","","","","","ballFalling","500","510.8711431702997","369.03","8","fallScene","true","","","","68","",""
"","","","","","html-keyboard-response","198","340217","0.0-20.0-1.19","","","","passed","","1534","","","","","","","","","","","","","","f","yesOrNo","","","","8","","","gt","3000","","68","510.8711431702997","369.03"
"","","","","","html-keyboard-response","199","341780","0.0-20.0-0.20","","","","passed","","","","","","","","","","","","","","","","","ballFalling","500","453.67114317029973","210.33","5","fallScene","true","","","","69","",""
"","","","","","html-keyboard-response","200","344784","0.0-20.0-1.20","","","","passed","","743","","","","","","","","","","","","","","f","yesOrNo","","","","5","","","lp","3000","","69","499","151"
"","","","","","html-keyboard-response","201","346796","0.0-20.0-0.21","","","","passed","","","","","","","","","","","","","","","","","ballFalling","500","510.8711431702997","369.03","8","fallScene","true","","","","70","",""
"","","","","","html-keyboard-response","202","349800","0.0-20.0-1.21","","","","passed","","946","","","","","","","","","","","","","","f","yesOrNo","","","","8","","","lp","3000","","70","501","151"
"","","","","","html-keyboard-response","203","351813","0.0-20.0-0.22","","","","passed","","","","","","","","","","","","","","","","","ballFalling","500","510.8711431702997","369.03","8","fallScene","true","","","","71","",""
"","","","","","html-keyboard-response","204","354816","0.0-20.0-1.22","","","","passed","","2248","","","","","","","","","","","","","","f","yesOrNo","","","","8","","","lp","3000","","71","501","151"
"","","","","","html-keyboard-response","205","356380","0.0-20.0-0.23","","","","passed","","","","","","","","","","","","","","","","","ballFalling","322.3","296.07114317029976","371.46","3","fallScene","true","","","","72","",""
"","","","","","html-keyboard-response","206","359390","0.0-20.0-1.23","","","","passed","","1900","","","","","","","","","","","","","","j","yesOrNo","","","","3","","","mid","3000","","72","321.3","300"
"","","","","","html-keyboard-response","207","364548","0.0-21.0","","","","passed","","5146","","","","","","","","","","","","","<p><span style=""font-size:40px;"">BLOCK 4</span></p><p><span style=""font-size:25px;"">You have <strong>1 second(s)</strong> to respond to the following trials.</span><br></p><p></p> <!-- Blank line -->
                <p id=""blinking-text"" style=""font-weight; animation: blink 2s infinite;"">Press Space to continue</p>
                <style>
                    @keyframes blink {
                        50% {
                            opacity: 0;
                        }
                    }
                </style></p>"," ","","","","","","","","","","","","",""
"","","","","","html-keyboard-response","208","366116","0.0-22.0-0.0","","","","passed","","","","","","","","","","","","","","","","","ballFalling","322.3","296.07114317029976","371.46","3","fallScene","true","","","","73","",""
"","","","","","html-keyboard-response","209","367123","0.0-22.0-1.0","","","","passed","","null","","","","","","","","","","","","","","null","yesOrNo","","","","3","","","mid","1000","","73","321.3","300"
"","","","","","html-keyboard-response","210","368686","0.0-22.0-0.1","","","","passed","","","","","","","","","","","","","","","","","ballFalling","322.3","356.42114317029973","357.87","4","fallScene","true","","","","74","",""
"","","","","","html-keyboard-response","211","369691","0.0-22.0-1.1","","","","passed","","null","","","","","","","","","","","","","","null","yesOrNo","","","","4","","","lp","1000","","74","323.3","297.4070551689986"
"","","","","","html-keyboard-response","212","371256","0.0-22.0-0.2","","","","passed","","","","","","","","","","","","","","","","","ballFalling","604.4000000000001","575.4211431702997","266.76","12","fallScene","true","","","","75","",""
"","","","","","html-keyboard-response","213","372260","0.0-22.0-1.2","","","","passed","","null","","","","","","","","","","","","","","null","yesOrNo","","","","12","","","mid","1000","","75","536.4288568297004","300"
"","","","","","html-keyboard-response","214","373825","0.0-22.0-0.3","","","","passed","","","","","","","","","","","","","","","","","ballFalling","322.3","379.3711431702997","245.25","1","fallScene","false","","","","76","",""
"","","","","","html-keyboard-response","215","374830","0.0-22.0-1.3","","","","passed","","null","","","","","","","","","","","","","","null","yesOrNo","","","","1","","","gt","1000","","76","379.3711431702997","245.25"
"","","","","","html-keyboard-response","216","376394","0.0-22.0-0.4","","","","passed","","","","","","","","","","","","","","","","","ballFalling","500","453.67114317029973","210.33","5","fallScene","true","","","","77","",""
"","","","","","html-keyboard-response","217","377397","0.0-22.0-1.4","","","","passed","","null","","","","","","","","","","","","","","null","yesOrNo","","","","5","","","gt","1000","","77","453.6711431702998","210.33"
"","","","","","html-keyboard-response","218","378965","0.0-22.0-0.5","","","","passed","","","","","","","","","","","","","","","","","ballFalling","604.4000000000001","575.4211431702997","266.76","12","fallScene","false","","","","78","",""
"","","","","","html-keyboard-response","219","379969","0.0-22.0-1.5","","","","passed","","null","","","","","","","","","","","","","","null","yesOrNo","","","","12","","","gt","1000","","78","575.4211431702997","266.76"
"","","","","","html-keyboard-response","220","381531","0.0-22.0-0.6","","","","passed","","","","","","","","","","","","","","","","","ballFalling","322.3","296.07114317029976","371.46","3","fallScene","true","","","","79","",""
"","","","","","html-keyboard-response","221","382535","0.0-22.0-1.6","","","","passed","","null","","","","","","","","","","","","","","null","yesOrNo","","","","3","","","lp","1000","","79","321.3","287.3327096511259"
"","","","","","html-keyboard-response","222","384099","0.0-22.0-0.7","","","","passed","","","","","","","","","","","","","","","","","ballFalling","322.3","379.3711431702997","245.25","1","fallScene","false","","","","80","",""
"","","","","","html-keyboard-response","223","385104","0.0-22.0-1.7","","","","passed","","null","","","","","","","","","","","","","","null","yesOrNo","","","","1","","","lp","1000","","80","323.3","217.74551669457017"
"","","","","","html-keyboard-response","224","387118","0.0-22.0-0.8","","","","passed","","","","","","","","","","","","","","","","","ballFalling","500","510.8711431702997","369.03","8","fallScene","false","","","","81","",""
"","","","","","html-keyboard-response","225","388120","0.0-22.0-1.8","","","","passed","","null","","","","","","","","","","","","","","null","yesOrNo","","","","8","","","mid","1000","","81","501","300"
"","","","","","html-keyboard-response","226","389687","0.0-22.0-0.9","","","","passed","","","","","","","","","","","","","","","","","ballFalling","322.3","356.42114317029973","357.87","4","fallScene","true","","","","82","",""
"","","","","","html-keyboard-response","227","390690","0.0-22.0-1.9","","","","passed","","null","","","","","","","","","","","","","","null","yesOrNo","","","","4","","","lp","1000","","82","323.3","297.4070551689986"
"","","","","","html-keyboard-response","228","392254","0.0-22.0-0.10","","","","passed","","","","","","","","","","","","","","","","","ballFalling","322.3","296.07114317029976","371.46","3","fallScene","true","","","","83","",""
"","","","","","html-keyboard-response","229","393257","0.0-22.0-1.10","","","","passed","","null","","","","","","","","","","","","","","null","yesOrNo","","","","3","","","mid","1000","","83","321.3","300"
"","","","","","html-keyboard-response","230","394821","0.0-22.0-0.11","","","","passed","","","","","","","","","","","","","","","","","ballFalling","322.3","379.3711431702997","245.25","1","fallScene","true","","","","84","",""
"","","","","","html-keyboard-response","231","395825","0.0-22.0-1.11","","","","passed","","null","","","","","","","","","","","","","","null","yesOrNo","","","","1","","","mid","1000","","84","390.27114317029975","300"
"","","","","","html-keyboard-response","232","397488","0.0-22.0-0.12","","","","passed","","","","","","","","","","","","","","","","","ballFalling","500","479.92114317029973","330.87","6","fallScene","false","","","","85","",""
"","","","","","html-keyboard-response","233","398491","0.0-22.0-1.12","","","","passed","","null","","","","","","","","","","","","","","null","yesOrNo","","","","6","","","lp","1000","","85","499","189.92909825697632"
"","","","","","html-keyboard-response","234","400056","0.0-22.0-0.13","","","","passed","","","","","","","","","","","","","","","","","ballFalling","322.3","296.07114317029976","371.46","3","fallScene","true","","","","86","",""
"","","","","","html-keyboard-response","235","401061","0.0-22.0-1.13","","","","passed","","null","","","","","","","","","","","","","","null","yesOrNo","","","","3","","","gt","1000","","86","296.07114317029976","371.46"
"","","","","","html-keyboard-response","236","402623","0.0-22.0-0.14","","","","passed","","","","","","","","","","","","","","","","","ballFalling","604.4000000000001","650.0211431702996","404.58000000000004","11","fallScene","true","","","","87","",""
"","","","","","html-keyboard-response","237","403626","0.0-22.0-1.14","","","","passed","","null","","","","","","","","","","","","","","null","yesOrNo","","","","11","","","mid","1000","","87","605.4000000000001","300"
"","","","","","html-keyboard-response","238","405123","0.0-22.0-0.15","","","","passed","","","","","","","","","","","","","","","","","ballFalling","604.4000000000001","667.6211431702998","201.78","9","fallScene","true","","","","88","",""
"","","","","","html-keyboard-response","239","406127","0.0-22.0-1.15","","","","passed","","null","","","","","","","","","","","","","","null","yesOrNo","","","","9","","","mid","1000","","88","605.4000000000001","300"
"","","","","","html-keyboard-response","240","407624","0.0-22.0-0.16","","","","passed","","","","","","","","","","","","","","","","","ballFalling","604.4000000000001","667.6211431702998","201.78","9","fallScene","true","","","","89","",""
"","","","","","html-keyboard-response","241","408625","0.0-22.0-1.16","","","","passed","","null","","","","","","","","","","","","","","null","yesOrNo","","","","9","","","lp","1000","","89","605.4000000000001","151"
"","","","","","html-keyboard-response","242","410189","0.0-22.0-0.17","","","","passed","","","","","","","","","","","","","","","","","ballFalling","322.3","379.3711431702997","245.25","1","fallScene","false","","","","90","",""
"","","","","","html-keyboard-response","243","411192","0.0-22.0-1.17","","","","passed","","null","","","","","","","","","","","","","","null","yesOrNo","","","","1","","","mid","1000","","90","390.27114317029975","300"
"","","","","","html-keyboard-response","244","413208","0.0-22.0-0.18","","","","passed","","","","","","","","","","","","","","","","","ballFalling","604.4000000000001","596.8711431702998","394.5","10","fallScene","false","","","","91","",""
"","","","","","html-keyboard-response","245","414213","0.0-22.0-1.18","","","","passed","","null","","","","","","","","","","","","","","null","yesOrNo","","","","10","","","gt","1000","","91","596.8711431702998","394.5"
"","","","","","html-keyboard-response","246","415775","0.0-22.0-0.19","","","","passed","","","","","","","","","","","","","","","","","ballFalling","322.3","356.42114317029973","357.87","4","fallScene","false","","","","92","",""
"","","","","","html-keyboard-response","247","416779","0.0-22.0-1.19","","","","passed","","null","","","","","","","","","","","","","","null","yesOrNo","","","","4","","","gt","1000","","92","356.42114317029973","357.87"
"","","","","","html-keyboard-response","248","418342","0.0-22.0-0.20","","","","passed","","","","","","","","","","","","","","","","","ballFalling","604.4000000000001","650.0211431702996","404.58000000000004","11","fallScene","false","","","","93","",""
"","","","","","html-keyboard-response","249","419344","0.0-22.0-1.20","","","","passed","","null","","","","","","","","","","","","","","null","yesOrNo","","","","11","","","gt","1000","","93","650.0211431702996","404.58"
"","","","","","html-keyboard-response","250","421359","0.0-22.0-0.21","","","","passed","","","","","","","","","","","","","","","","","ballFalling","500","510.8711431702997","369.03","8","fallScene","true","","","","94","",""
"","","","","","html-keyboard-response","251","422363","0.0-22.0-1.21","","","","passed","","null","","","","","","","","","","","","","","null","yesOrNo","","","","8","","","lp","1000","","94","501","151"
"","","","","","html-keyboard-response","252","423926","0.0-22.0-0.22","","","","passed","","","","","","","","","","","","","","","","","ballFalling","604.4000000000001","650.0211431702996","404.58000000000004","11","fallScene","true","","","","95","",""
"","","","","","html-keyboard-response","253","424929","0.0-22.0-1.22","","","","passed","","null","","","","","","","","","","","","","","null","yesOrNo","","","","11","","","mid","1000","","95","605.4000000000001","300"
"","","","","","html-keyboard-response","254","426493","0.0-22.0-0.23","","","","passed","","","","","","","","","","","","","","","","","ballFalling","500","453.67114317029973","210.33","5","fallScene","true","","","","96","",""
"","","","","","html-keyboard-response","255","427494","0.0-22.0-1.23","","","","passed","","null","","","","","","","","","","","","","","null","yesOrNo","","","","5","","","mid","1000","","96","499","300"
"","","","","","html-keyboard-response","256","452312","0.0-23.0","","","","passed","","24816","","","","","","","","","","","","","<p><span style=""font-size:40px;"">BLOCK 5</span></p><p><span style=""font-size:25px;"">You have <strong>3 second(s)</strong> to respond to the following trials.</span><br></p><p></p> <!-- Blank line -->
                <p id=""blinking-text"" style=""font-weight; animation: blink 2s infinite;"">Press Space to continue</p>
                <style>
                    @keyframes blink {
                        50% {
                            opacity: 0;
                        }
                    }
                </style></p>"," ","","","","","","","","","","","","",""
"","","","","","html-keyboard-response","257","453877","0.0-24.0-0.0","","","","passed","","","","","","","","","","","","","","","","","ballFalling","322.3","356.42114317029973","357.87","4","fallScene","true","","","","97","",""
"","","","","","html-keyboard-response","258","456880","0.0-24.0-1.0","","","","passed","","1317","","","","","","","","","","","","","","j","yesOrNo","","","","4","","","mid","3000","","97","390.27114317029975","300"
"","","","","","html-keyboard-response","259","458444","0.0-24.0-0.1","","","","passed","","","","","","","","","","","","","","","","","ballFalling","604.4000000000001","650.0211431702996","404.58000000000004","11","fallScene","true","","","","98","",""
"","","","","","html-keyboard-response","260","461448","0.0-24.0-1.1","","","","passed","","2481","","","","","","","","","","","","","","j","yesOrNo","","","","11","","","gt","3000","","98","650.0211431702996","404.58"
"","","","","","html-keyboard-response","261","463011","0.0-24.0-0.2","","","","passed","","","","","","","","","","","","","","","","","ballFalling","322.3","356.42114317029973","357.87","4","fallScene","true","","","","99","",""
"","","","","","html-keyboard-response","262","466016","0.0-24.0-1.2","","","","passed","","2384","","","","","","","","","","","","","","f","yesOrNo","","","","4","","","gt","3000","","99","356.42114317029973","357.87"
"","","","","","html-keyboard-response","263","467579","0.0-24.0-0.3","","","","passed","","","","","","","","","","","","","","","","","ballFalling","322.3","356.42114317029973","357.87","4","fallScene","true","","","","100","",""
"","","","","","html-keyboard-response","264","470583","0.0-24.0-1.3","","","","passed","","1867","","","","","","","","","","","","","","j","yesOrNo","","","","4","","","gt","3000","","100","356.42114317029973","357.87"
"","","","","","html-keyboard-response","265","472146","0.0-24.0-0.4","","","","passed","","","","","","","","","","","","","","","","","ballFalling","322.3","356.42114317029973","357.87","4","fallScene","false","","","","101","",""
"","","","","","html-keyboard-response","266","475150","0.0-24.0-1.4","","","","passed","","2048","","","","","","","","","","","","","","f","yesOrNo","","","","4","","","lp","3000","","101","323.3","297.4070551689986"
"","","","","","html-keyboard-response","267","476645","0.0-24.0-0.5","","","","passed","","","","","","","","","","","","","","","","","ballFalling","604.4000000000001","667.6211431702998","201.78","9","fallScene","true","","","","102","",""
"","","","","","html-keyboard-response","268","479650","0.0-24.0-1.5","","","","passed","","786","","","","","","","","","","","","","","j","yesOrNo","","","","9","","","gt","3000","","102","667.6211431702998","201.78"
"","","","","","html-keyboard-response","269","481229","0.0-24.0-0.6","","","","passed","","","","","","","","","","","","","","","","","ballFalling","500","553.4711431702997","282.51","7","fallScene","false","","","","103","",""
"","","","","","html-keyboard-response","270","484233","0.0-24.0-1.6","","","","passed","","1592","","","","","","","","","","","","","","j","yesOrNo","","","","7","","","gt","3000","","103","553.4711431702997","282.51"
"","","","","","html-keyboard-response","271","486246","0.0-24.0-0.7","","","","passed","","","","","","","","","","","","","","","","","ballFalling","500","510.8711431702997","369.03","8","fallScene","false","","","","104","",""
"","","","","","html-keyboard-response","272","489251","0.0-24.0-1.7","","","","passed","","1710","","","","","","","","","","","","","","f","yesOrNo","","","","8","","","mid","3000","","104","501","300"
"","","","","","html-keyboard-response","273","490812","0.0-24.0-0.8","","","","passed","","","","","","","","","","","","","","","","","ballFalling","604.4000000000001","650.0211431702996","404.58000000000004","11","fallScene","false","","","","105","",""
"","","","","","html-keyboard-response","274","493817","0.0-24.0-1.8","","","","passed","","1494","","","","","","","","","","","","","","j","yesOrNo","","","","11","","","mid","3000","","105","605.4000000000001","300"
"","","","","","html-keyboard-response","275","495380","0.0-24.0-0.9","","","","passed","","","","","","","","","","","","","","","","","ballFalling","500","453.67114317029973","210.33","5","fallScene","false","","","","106","",""
"","","","","","html-keyboard-response","276","498382","0.0-24.0-1.9","","","","passed","","2334","","","","","","","","","","","","","","j","yesOrNo","","","","5","","","mid","3000","","106","499","300"
"","","","","","html-keyboard-response","277","500397","0.0-24.0-0.10","","","","passed","","","","","","","","","","","","","","","","","ballFalling","604.4000000000001","596.8711431702998","394.5","10","fallScene","true","","","","107","",""
"","","","","","html-keyboard-response","278","503401","0.0-24.0-1.10","","","","passed","","970","","","","","","","","","","","","","","j","yesOrNo","","","","10","","","mid","3000","","107","536.4288568297004","300"
"","","","","","html-keyboard-response","279","504964","0.0-24.0-0.11","","","","passed","","","","","","","","","","","","","","","","","ballFalling","604.4000000000001","575.4211431702997","266.76","12","fallScene","true","","","","108","",""
"","","","","","html-keyboard-response","280","507967","0.0-24.0-1.11","","","","passed","","1330","","","","","","","","","","","","","","f","yesOrNo","","","","12","","","lp","3000","","108","603.4000000000001","151"
"","","","","","html-keyboard-response","281","509530","0.0-24.0-0.12","","","","passed","","","","","","","","","","","","","","","","","ballFalling","322.3","379.3711431702997","245.25","1","fallScene","true","","","","109","",""
"","","","","","html-keyboard-response","282","512534","0.0-24.0-1.12","","","","passed","","1304","","","","","","","","","","","","","","j","yesOrNo","","","","1","","","mid","3000","","109","390.27114317029975","300"
"","","","","","html-keyboard-response","283","514097","0.0-24.0-0.13","","","","passed","","","","","","","","","","","","","","","","","ballFalling","604.4000000000001","575.4211431702997","266.76","12","fallScene","true","","","","110","",""
"","","","","","html-keyboard-response","284","517102","0.0-24.0-1.13","","","","passed","","1805","","","","","","","","","","","","","","j","yesOrNo","","","","12","","","mid","3000","","110","536.4288568297004","300"
"","","","","","html-keyboard-response","285","518664","0.0-24.0-0.14","","","","passed","","","","","","","","","","","","","","","","","ballFalling","322.3","379.3711431702997","245.25","1","fallScene","false","","","","111","",""
"","","","","","html-keyboard-response","286","521667","0.0-24.0-1.14","","","","passed","","2268","","","","","","","","","","","","","","j","yesOrNo","","","","1","","","gt","3000","","111","379.3711431702997","245.25"
"","","","","","html-keyboard-response","287","523232","0.0-24.0-0.15","","","","passed","","","","","","","","","","","","","","","","","ballFalling","500","453.67114317029973","210.33","5","fallScene","false","","","","112","",""
"","","","","","html-keyboard-response","288","526235","0.0-24.0-1.15","","","","passed","","1454","","","","","","","","","","","","","","j","yesOrNo","","","","5","","","gt","3000","","112","453.6711431702998","210.33"
"","","","","","html-keyboard-response","289","527798","0.0-24.0-0.16","","","","passed","","","","","","","","","","","","","","","","","ballFalling","322.3","356.42114317029973","357.87","4","fallScene","false","","","","113","",""
"","","","","","html-keyboard-response","290","530800","0.0-24.0-1.16","","","","passed","","2004","","","","","","","","","","","","","","j","yesOrNo","","","","4","","","mid","3000","","113","390.27114317029975","300"
"","","","","","html-keyboard-response","291","532381","0.0-24.0-0.17","","","","passed","","","","","","","","","","","","","","","","","ballFalling","500","553.4711431702997","282.51","7","fallScene","false","","","","114","",""
"","","","","","html-keyboard-response","292","535385","0.0-24.0-1.17","","","","passed","","818","","","","","","","","","","","","","","j","yesOrNo","","","","7","","","gt","3000","","114","553.4711431702997","282.51"
"","","","","","html-keyboard-response","293","537049","0.0-24.0-0.18","","","","passed","","","","","","","","","","","","","","","","","ballFalling","500","479.92114317029973","330.87","6","fallScene","false","","","","115","",""
"","","","","","html-keyboard-response","294","540052","0.0-24.0-1.18","","","","passed","","1952","","","","","","","","","","","","","","f","yesOrNo","","","","6","","","gt","3000","","115","479.9211431702998","330.87"
"","","","","","html-keyboard-response","295","542066","0.0-24.0-0.19","","","","passed","","","","","","","","","","","","","","","","","ballFalling","500","510.8711431702997","369.03","8","fallScene","true","","","","116","",""
"","","","","","html-keyboard-response","296","545071","0.0-24.0-1.19","","","","passed","","2293","","","","","","","","","","","","","","j","yesOrNo","","","","8","","","gt","3000","","116","510.8711431702997","369.03"
"","","","","","html-keyboard-response","297","546865","0.0-24.0-0.20","","","","passed","","","","","","","","","","","","","","","","","ballFalling","322.3","308.07114317029976","253.89","2","fallScene","true","","","","117","",""
"","","","","","html-keyboard-response","298","549867","0.0-24.0-1.20","","","","passed","","2663","","","","","","","","","","","","","","j","yesOrNo","","","","2","","","mid","3000","","117","321.3","300"
"","","","","","html-keyboard-response","299","551666","0.0-24.0-0.21","","","","passed","","","","","","","","","","","","","","","","","ballFalling","322.3","308.07114317029976","253.89","2","fallScene","false","","","","118","",""
"","","","","","html-keyboard-response","300","554669","0.0-24.0-1.21","","","","passed","","1065","","","","","","","","","","","","","","f","yesOrNo","","","","2","","","lp","3000","","118","321.3","151"
"","","","","","html-keyboard-response","301","556683","0.0-24.0-0.22","","","","passed","","","","","","","","","","","","","","","","","ballFalling","604.4000000000001","596.8711431702998","394.5","10","fallScene","true","","","","119","",""
"","","","","","html-keyboard-response","302","559687","0.0-24.0-1.22","","","","passed","","1095","","","","","","","","","","","","","","f","yesOrNo","","","","10","","","gt","3000","","119","596.8711431702998","394.5"
"","","","","","html-keyboard-response","303","561699","0.0-24.0-0.23","","","","passed","","","","","","","","","","","","","","","","","ballFalling","500","510.8711431702997","369.03","8","fallScene","false","","","","120","",""
"","","","","","html-keyboard-response","304","564704","0.0-24.0-1.23","","","","passed","","2433","","","","","","","","","","","","","","f","yesOrNo","","","","8","","","mid","3000","","120","501","300"
"","","","","","html-keyboard-response","305","610174","0.0-25.0","","","","passed","","45470","","","","","","","","","","","","","<p><span style=""font-size:40px;"">BLOCK 6</span></p><p><span style=""font-size:25px;"">You have <strong>3 second(s)</strong> to respond to the following trials.</span><br></p><p></p> <!-- Blank line -->
                <p id=""blinking-text"" style=""font-weight; animation: blink 2s infinite;"">Press Space to continue</p>
                <style>
                    @keyframes blink {
                        50% {
                            opacity: 0;
                        }
                    }
                </style></p>"," ","","","","","","","","","","","","",""
"","","","","","html-keyboard-response","306","611669","0.0-26.0-0.0","","","","passed","","","","","","","","","","","","","","","","","ballFalling","604.4000000000001","667.6211431702998","201.78","9","fallScene","true","","","","121","",""
"","","","","","html-keyboard-response","307","614674","0.0-26.0-1.0","","","","passed","","2734","","","","","","","","","","","","","","j","yesOrNo","","","","9","","","gt","3000","","121","667.6211431702998","201.78"
"","","","","","html-keyboard-response","308","616236","0.0-26.0-0.1","","","","passed","","","","","","","","","","","","","","","","","ballFalling","322.3","296.07114317029976","371.46","3","fallScene","true","","","","122","",""
"","","","","","html-keyboard-response","309","619239","0.0-26.0-1.1","","","","passed","","null","","","","","","","","","","","","","","null","yesOrNo","","","","3","","","mid","3000","","122","321.3","300"
"","","","","","html-keyboard-response","310","620803","0.0-26.0-0.2","","","","passed","","","","","","","","","","","","","","","","","ballFalling","322.3","379.3711431702997","245.25","1","fallScene","false","","","","123","",""
"","","","","","html-keyboard-response","311","623808","0.0-26.0-1.2","","","","passed","","null","","","","","","","","","","","","","","null","yesOrNo","","","","1","","","mid","3000","","123","390.27114317029975","300"
"","","","","","html-keyboard-response","312","625369","0.0-26.0-0.3","","","","passed","","","","","","","","","","","","","","","","","ballFalling","604.4000000000001","575.4211431702997","266.76","12","fallScene","false","","","","124","",""
"","","","","","html-keyboard-response","313","628373","0.0-26.0-1.3","","","","passed","","null","","","","","","","","","","","","","","null","yesOrNo","","","","12","","","lp","3000","","124","603.4000000000001","151"
"","","","","","html-keyboard-response","314","630388","0.0-26.0-0.4","","","","passed","","","","","","","","","","","","","","","","","ballFalling","604.4000000000001","596.8711431702998","394.5","10","fallScene","false","","","","125","",""
"","","","","","html-keyboard-response","315","633390","0.0-26.0-1.4","","","","passed","","null","","","","","","","","","","","","","","null","yesOrNo","","","","10","","","gt","3000","","125","596.8711431702998","394.5"
"","","","","","html-keyboard-response","316","635189","0.0-26.0-0.5","","","","passed","","","","","","","","","","","","","","","","","ballFalling","322.3","308.07114317029976","253.89","2","fallScene","false","","","","126","",""
"","","","","","html-keyboard-response","317","638191","0.0-26.0-1.5","","","","passed","","null","","","","","","","","","","","","","","null","yesOrNo","","","","2","","","gt","3000","","126","308.07114317029976","253.89"
"","","","","","html-keyboard-response","318","639754","0.0-26.0-0.6","","","","passed","","","","","","","","","","","","","","","","","ballFalling","604.4000000000001","650.0211431702996","404.58000000000004","11","fallScene","true","","","","127","",""
"","","","","","html-keyboard-response","319","642758","0.0-26.0-1.6","","","","passed","","null","","","","","","","","","","","","","","null","yesOrNo","","","","11","","","lp","3000","","127","605.4000000000001","372.6340973215488"
"","","","","","html-keyboard-response","320","644255","0.0-26.0-0.7","","","","passed","","","","","","","","","","","","","","","","","ballFalling","604.4000000000001","667.6211431702998","201.78","9","fallScene","false","","","","128","",""
"","","","","","html-keyboard-response","321","647258","0.0-26.0-1.7","","","","passed","","null","","","","","","","","","","","","","","null","yesOrNo","","","","9","","","lp","3000","","128","605.4000000000001","151"
"","","","","","html-keyboard-response","322","648819","0.0-26.0-0.8","","","","passed","","","","","","","","","","","","","","","","","ballFalling","604.4000000000001","575.4211431702997","266.76","12","fallScene","false","","","","129","",""
"","","","","","html-keyboard-response","323","651823","0.0-26.0-1.8","","","","passed","","null","","","","","","","","","","","","","","null","yesOrNo","","","","12","","","gt","3000","","129","575.4211431702997","266.76"
"","","","","","html-keyboard-response","324","653390","0.0-26.0-0.9","","","","passed","","","","","","","","","","","","","","","","","ballFalling","604.4000000000001","650.0211431702996","404.58000000000004","11","fallScene","false","","","","130","",""
"","","","","","html-keyboard-response","325","656393","0.0-26.0-1.9","","","","passed","","null","","","","","","","","","","","","","","null","yesOrNo","","","","11","","","lp","3000","","130","605.4000000000001","372.6340973215488"
"","","","","","html-keyboard-response","326","657971","0.0-26.0-0.10","","","","passed","","","","","","","","","","","","","","","","","ballFalling","500","553.4711431702997","282.51","7","fallScene","false","","","","131","",""
"","","","","","html-keyboard-response","327","660974","0.0-26.0-1.10","","","","passed","","null","","","","","","","","","","","","","","null","yesOrNo","","","","7","","","mid","3000","","131","501","300"
"","","","","","html-keyboard-response","328","662539","0.0-26.0-0.11","","","","passed","","","","","","","","","","","","","","","","","ballFalling","322.3","379.3711431702997","245.25","1","fallScene","true","","","","132","",""
"","","","","","html-keyboard-response","329","665543","0.0-26.0-1.11","","","","passed","","null","","","","","","","","","","","","","","null","yesOrNo","","","","1","","","lp","3000","","132","323.3","217.74551669457017"
"","","","","","html-keyboard-response","330","667121","0.0-26.0-0.12","","","","passed","","","","","","","","","","","","","","","","","ballFalling","500","553.4711431702997","282.51","7","fallScene","false","","","","133","",""
"","","","","","html-keyboard-response","331","670123","0.0-26.0-1.12","","","","passed","","null","","","","","","","","","","","","","","null","yesOrNo","","","","7","","","lp","3000","","133","501","227.2843295913261"
"","","","","","html-keyboard-response","332","671689","0.0-26.0-0.13","","","","passed","","","","","","","","","","","","","","","","","ballFalling","500","453.67114317029973","210.33","5","fallScene","true","","","","134","",""
"","","","","","html-keyboard-response","333","674692","0.0-26.0-1.13","","","","passed","","null","","","","","","","","","","","","","","null","yesOrNo","","","","5","","","mid","3000","","134","499","300"
"","","","","","html-keyboard-response","334","676189","0.0-26.0-0.14","","","","passed","","","","","","","","","","","","","","","","","ballFalling","604.4000000000001","667.6211431702998","201.78","9","fallScene","true","","","","135","",""
"","","","","","html-keyboard-response","335","679193","0.0-26.0-1.14","","","","passed","","null","","","","","","","","","","","","","","null","yesOrNo","","","","9","","","lp","3000","","135","605.4000000000001","151"
"","","","","","html-keyboard-response","336","680989","0.0-26.0-0.15","","","","passed","","","","","","","","","","","","","","","","","ballFalling","322.3","308.07114317029976","253.89","2","fallScene","true","","","","136","",""
"","","","","","html-keyboard-response","337","683991","0.0-26.0-1.15","","","","passed","","null","","","","","","","","","","","","","","null","yesOrNo","","","","2","","","lp","3000","","136","321.3","151"
"","","","","","html-keyboard-response","338","685488","0.0-26.0-0.16","","","","passed","","","","","","","","","","","","","","","","","ballFalling","604.4000000000001","667.6211431702998","201.78","9","fallScene","false","","","","137","",""
"","","","","","html-keyboard-response","339","688490","0.0-26.0-1.16","","","","passed","","null","","","","","","","","","","","","","","null","yesOrNo","","","","9","","","mid","3000","","137","605.4000000000001","300"
"","","","","","html-keyboard-response","340","690156","0.0-26.0-0.17","","","","passed","","","","","","","","","","","","","","","","","ballFalling","500","479.92114317029973","330.87","6","fallScene","true","","","","138","",""
"","","","","","html-keyboard-response","341","693158","0.0-26.0-1.17","","","","passed","","null","","","","","","","","","","","","","","null","yesOrNo","","","","6","","","mid","3000","","138","499","300"
"","","","","","html-keyboard-response","342","694723","0.0-26.0-0.18","","","","passed","","","","","","","","","","","","","","","","","ballFalling","604.4000000000001","650.0211431702996","404.58000000000004","11","fallScene","true","","","","139","",""
"","","","","","html-keyboard-response","343","697726","0.0-26.0-1.18","","","","passed","","null","","","","","","","","","","","","","","null","yesOrNo","","","","11","","","gt","3000","","139","650.0211431702996","404.58"
"","","","","","html-keyboard-response","344","699290","0.0-26.0-0.19","","","","passed","","","","","","","","","","","","","","","","","ballFalling","322.3","296.07114317029976","371.46","3","fallScene","true","","","","140","",""
"","","","","","html-keyboard-response","345","702293","0.0-26.0-1.19","","","","passed","","null","","","","","","","","","","","","","","null","yesOrNo","","","","3","","","gt","3000","","140","296.07114317029976","371.46"
"","","","","","html-keyboard-response","346","703857","0.0-26.0-0.20","","","","passed","","","","","","","","","","","","","","","","","ballFalling","322.3","356.42114317029973","357.87","4","fallScene","true","","","","141","",""
"","","","","","html-keyboard-response","347","706860","0.0-26.0-1.20","","","","passed","","null","","","","","","","","","","","","","","null","yesOrNo","","","","4","","","lp","3000","","141","323.3","297.4070551689986"
"","","","","","html-keyboard-response","348","708423","0.0-26.0-0.21","","","","passed","","","","","","","","","","","","","","","","","ballFalling","604.4000000000001","650.0211431702996","404.58000000000004","11","fallScene","false","","","","142","",""
"","","","","","html-keyboard-response","349","711425","0.0-26.0-1.21","","","","passed","","null","","","","","","","","","","","","","","null","yesOrNo","","","","11","","","mid","3000","","142","605.4000000000001","300"
"","","","","","html-keyboard-response","350","713441","0.0-26.0-0.22","","","","passed","","","","","","","","","","","","","","","","","ballFalling","604.4000000000001","596.8711431702998","394.5","10","fallScene","false","","","","143","",""
"","","","","","html-keyboard-response","351","716444","0.0-26.0-1.22","","","","passed","","null","","","","","","","","","","","","","","null","yesOrNo","","","","10","","","lp","3000","","143","603.4000000000001","215.50214355555383"
"","","","","","html-keyboard-response","352","718242","0.0-26.0-0.23","","","","passed","","","","","","","","","","","","","","","","","ballFalling","322.3","308.07114317029976","253.89","2","fallScene","false","","","","144","",""
"","","","","","html-keyboard-response","353","721245","0.0-26.0-1.23","","","","passed","","null","","","","","","","","","","","","","","null","yesOrNo","","","","2","","","gt","3000","","144","308.07114317029976","253.89"
"","","","","","survey-text","354","888530","0.0-27.0","","","","passed","","167284","","","","","","","","","","","","","","{""Summary"":""kkkkkkcindyteest""}","","","","","","","","","","","","",""
"","","","","","survey-text","355","892281","0.0-28.0","","","","passed","","3748","","","","","","","","","","","","","","{""Comments"":""cindy""}","","","","","","","","","","","","",""
