"success","timeout","failed_images","failed_audio","failed_video","trial_type","trial_index","time_elapsed","internal_node_id","subject_id","study_id","session_id","practiceTestResult","view_history","rt","width","height","webaudio","browser","browser_version","mobile","os","fullscreen","vsync_rate","webcam","microphone","url","stimulus","response","task","ball_X","obstacle_groundTruth_x","obstacle_groundTruth_y","stimulus_idx","trial_name","flipped","choice","timeLimit","question_order","currentTrial","obstacle_choice_x","obstacle_choice_y"
"true","false","[]","[]","[]","preload","0","72","0.0-0.0","","","","passed","","","","","","","","","","","","","","","","","","","","","","","","","","","","",""
"","","","","","instructions","1","40721","0.0-1.0","","","","passed","[{""page_index"":0,""viewing_time"":40648}]","40648","","","","","","","","","","","","","","","","","","","","","","","","","","",""
"","","","","","browser-check","2","42738","0.0-2.0","","","","passed","","","1483","876","true","safari","17.4.1","false","Mac OS","true","30.06","true","true","","","","","","","","","","","","","","","",""
"","","","","","external-html","3","68140","0.0-3.0","","","","passed","","25359","","","","","","","","","","","","consent.html","","","","","","","","","","","","","","",""
"true","","","","","fullscreen","4","73744","0.0-4.0","","","","passed","","5298","","","","","","","","","","","","","","","","","","","","","","","","","","",""
"","","","","","browser-check","5","75720","0.0-5.0","","","","passed","","","1920","1080","true","safari","17.4.1","false","Mac OS","true","30.4","true","true","","","","","","","","","","","","","","","",""
"","","","","","html-keyboard-response","6","81333","0.0-6.0","","","","passed","","5610","","","","","","","","","","","","","<p><b>This experiment requires keyboard input.</b></p> 
        <p><b>To ensure your response will be recorded successfully, please press 'Space' to continue.</b></p>
        <p>If you can't proceed, you won't be able to complete this study.</p>
        <p></p> <!-- Blank line -->
        <p id=""blinking-text"" style=""font-weight; animation: blink 2s infinite;"">Press Space to continue</p>
        <style>
            @keyframes blink {
                50% {
                    opacity: 0;
                }
            }
        </style>"," ","","","","","","","","","","","","",""
"","","","","","html-keyboard-response","7","84660","0.0-7.0","","","","passed","","3326","","","","","","","","","","","","","<p><b>This experiment requires keyboard input.</b></p> 
        <p><b>To ensure your response will be recorded successfully, please press the 'f' key to continue.</b></p>
        <p>If you can't proceed, you won't be able to complete this study.</p>
        <p></p> <!-- Blank line -->
        <p id=""blinking-text"" style=""font-weight; animation: blink 2s infinite;"">Press f to continue</p>
        <style>
            @keyframes blink {
                50% {
                    opacity: 0;
                }
            }
        </style>","f","","","","","","","","","","","","",""
"","","","","","html-keyboard-response","8","86598","0.0-8.0","","","","passed","","1935","","","","","","","","","","","","","<p><b>This experiment requires keyboard input.</b></p> 
        <p><b>To ensure your response will be recorded successfully, please press the 'j' key to continue.</b></p>
        <p>If you can't proceed, you won't be able to complete this study.</p>
        <p></p> <!-- Blank line -->
        <p id=""blinking-text"" style=""font-weight; animation: blink 2s infinite;"">Press j to continue</p>
        <style>
            @keyframes blink {
                50% {
                    opacity: 0;
                }
            }
        </style>","j","","","","","","","","","","","","",""
"","","","","","browser-check","9","88587","0.0-9.0","","","","passed","","","1920","1080","true","safari","17.4.1","false","Mac OS","true","30.23","true","true","","","","","","","","","","","","","","","",""
"","","","","","survey-text","10","98426","0.0-10.0","","","","passed","","9813","","","","","","","","","","","","","","{""prolificID"":""cindyTest_1_23""}","","","","","","","","","","","","",""
"","","","","","instructions","11","157524","0.0-11.0-0.0-0.0","","","","passed","[{""page_index"":0,""viewing_time"":23412},{""page_index"":1,""viewing_time"":17616},{""page_index"":2,""viewing_time"":10035},{""page_index"":3,""viewing_time"":8033}]","59097","","","","","","","","","","","","","","","","","","","","","","","","","","",""
"","","","","","html-keyboard-response","12","172855","0.0-11.0-0.0-1.0","","","","passed","","14823","","","","","","","","","","","","","<br>Remember! After a ball falls, the screen will disappear, and you'll decide if the proposed position is where the hidden triangle was. <br>You will now practice this by watching a few videos and making decisions.<p>To respond:<br style=""margin-bottom: 5px; text-indent: -20px; padding-left: 20px;"">- Press <b style=""color: #12AD2B;"">J for Yes</b>, if you think the triangle is in the correct position.<br style=""margin-top: 0; text-indent: -20px; padding-left: 20px;"">- Press <b style=""color: orange;"">F for No</b>, if you think the triangle is not in the correct position.</p><p>In this practice round, there is no time limit. Focus on getting comfortable with the task first.<br>Press either J or F to begin your practice trials.</p><img src = ""YesOrNo_instruction.png"" style=""width: 65%;""></img>","j","","","","","","","","","","","","",""
"","","","","","html-keyboard-response","13","174489","0.0-11.0-0.0-2.0-0.0","","","","passed","","","","","","","","","","","","","","","","","ballFalling_prac","416","464","296","1","fallScene","false","","","","","",""
"","","","","","html-keyboard-response","14","177779","0.0-11.0-0.0-2.0-1.0","","","","passed","","3285","","","","","","","","","","","","","","j","yesOrNo_prac_noTimed","","","","1","","","gt","NA","","","",""
"","","","","","html-keyboard-response","15","179355","0.0-11.0-0.0-2.0-0.1","","","","passed","","","","","","","","","","","","","","","","","ballFalling_prac","441","414","302","5","fallScene","true","","","","","",""
"","","","","","html-keyboard-response","16","183429","0.0-11.0-0.0-2.0-1.1","","","","passed","","4068","","","","","","","","","","","","","","f","yesOrNo_prac_noTimed","","","","5","","","close gt","NA","","","",""
"","","","","","html-keyboard-response","17","185556","0.0-11.0-0.0-2.0-0.2","","","","passed","","","","","","","","","","","","","","","","","ballFalling_prac","660","666","350","3","fallScene","false","","","","","",""
"","","","","","html-keyboard-response","18","188430","0.0-11.0-0.0-2.0-1.2","","","","passed","","2868","","","","","","","","","","","","","","f","yesOrNo_prac_noTimed","","","","3","","","wrong direction","NA","","","",""
"","","","","","instructions","19","255277","0.0-11.0-0.0-3.0","","","","passed","[{""page_index"":0,""viewing_time"":53525},{""page_index"":1,""viewing_time"":13318}]","66846","","","","","","","","","","","","","","","","","","","","","","","","","","",""
"","","","","","html-button-response","20","261895","0.0-11.0-0.0-4.0","","","","passed","","6113","","","","","","","","","","","","","<p>To make sure you understood the task, we just have a <b>brief quiz</b> here.</p><p>If you need to review the instructions, click 'Previous'.</p><p>It's important to understand the task to do the study, so you have to pass the quiz to move to the study.</p>","1","","","","","","","","","","","","",""
"","","","","","survey-multi-choice","21","264894","0.0-11.0-1.0-0.0","","","","passed","","2997","","","","","","","","","","","","","","{""generalProcedure"":""Watch a video of a ball falling, some of it behind a gray screen. After each video, decide if the triangle is at the spot where the ball hit the triangle behind the screen. There is time limit for the response.""}","","","","","","","","","","[0]","","",""
"","","","","","survey-multi-choice","22","266893","0.0-11.0-1.0-1.0","","","","passed","","1997","","","","","","","","","","","","","","{""checkBallHitObstacle"":""Yes.""}","","","","","","","","","","[0]","","",""
"","","","","","survey-multi-choice","23","274124","0.0-11.0-1.0-2.0","","","","passed","","7229","","","","","","","","","","","","","","{""checkTriangleVisibility"":""No, the triangle is hidden behind the gray screen.""}","","","","","","","","","","[0]","","",""
"","","","","","survey-multi-choice","24","282911","0.0-11.0-1.0-3.0","","","","passed","","8785","","","","","","","","","","","","","","{""checkTimedResponse"":""Your response will not be recorded, and the trial will move to the next one.""}","","","","","","","","","","[0]","","",""
"","","","","","survey-multi-choice","25","284543","0.0-11.0-1.0-4.0","","","","passed","","1630","","","","","","","","","","","","","","{""checkTimeBlockNotice"":""At the beginning of each block.""}","","","","","","","","","","[0]","","",""
"","","","","","survey-multi-choice","26","287442","0.0-11.0-1.0-5.0","","","","passed","","2896","","","","","","","","","","","","","","{""checkTimeBlockSameness"":""Yes, the time limit is the same for all trials within a block.""}","","","","","","","","","","[0]","","",""
"","","","","","survey-multi-choice","27","300107","0.0-11.0-1.0-6.0","","","","passed","","12664","","","","","","","","","","","","","","{""checkTrianglePrecision"":""No. The proposed purple triangle is not in the correct position because it doesn't match the location of the white triangle exactly.""}","","","","","","","","","","[0]","","",""
"","","","","","instructions","28","321976","0.0-12.0","","","","passed","[{""page_index"":0,""viewing_time"":3899},{""page_index"":1,""viewing_time"":6516},{""page_index"":2,""viewing_time"":7265},{""page_index"":3,""viewing_time"":4186}]","21867","","","","","","","","","","","","","","","","","","","","","","","","","","",""
"","","","","","instructions","29","336276","0.0-13.0-0.0","","","","passed","[{""page_index"":0,""viewing_time"":14299}]","14299","","","","","","","","","","","","","","","","","","","","","","","","","","",""
"","","","","","html-keyboard-response","30","339128","0.0-13.0-1.0","","","","passed","","2850","","","","","","","","","","","","","<p><span style=""font-size:40px;"">Practice BLOCK 1</span></p><p><span style=""font-size:25px;"">You have <b style=""color: #FF644F;""><strong>3 second(s)</strong></b> to respond to the following trials.</span><br></p><p id=""blinking-text"" style=""font-weight; animation: blink 2s infinite;"">Press Space to continue</p><style>
                    @keyframes blink {
                        50% {
                            opacity: 0;
                        }
                    }
                </style>"," ","","","","","","","","","","","","",""
"","","","","","html-keyboard-response","31","340657","0.0-13.0-2.0-0.0","","","","passed","","","","","","","","","","","","","","","","","ballFalling_prac","584","536","296","1","fallScene","true","","","","","",""
"","","","","","html-keyboard-response","32","343663","0.0-13.0-2.0-1.0","","","","passed","","2031","","","","","","","","","","","","","","j","yesOrNo_prac","","","","1","","","close gt","3000","","","",""
"","","","","","html-keyboard-response","33","345223","0.0-13.0-2.0-0.1","","","","passed","","","","","","","","","","","","","","","","","ballFalling_prac","416","464","296","1","fallScene","false","","","","","",""
"","","","","","html-keyboard-response","34","348227","0.0-13.0-2.0-1.1","","","","passed","","2366","","","","","","","","","","","","","","f","yesOrNo_prac","","","","1","","","far gt","3000","","","",""
"","","","","","html-keyboard-response","35","349824","0.0-13.0-2.0-0.2","","","","passed","","","","","","","","","","","","","","","","","ballFalling_prac","660","610","263","4","fallScene","false","","","","","",""
"","","","","","html-keyboard-response","36","352828","0.0-13.0-2.0-1.2","","","","passed","","1789","","","","","","","","","","","","","","j","yesOrNo_prac","","","","4","","","gt","3000","","","",""
"","","","","","html-keyboard-response","37","358769","0.0-13.0-3.0","","","","passed","","5939","","","","","","","","","","","","","<p><span style=""font-size:40px;"">Practice BLOCK 2</span></p><p><span style=""font-size:25px;"">You have <b style=""color: #FF644F;""><strong>1 second(s)</strong></b> to respond to the following trials.</span><br></p><p id=""blinking-text"" style=""font-weight; animation: blink 2s infinite;"">Press Space to continue</p><style>
                    @keyframes blink {
                        50% {
                            opacity: 0;
                        }
                    }
                </style>"," ","","","","","","","","","","","","",""
"","","","","","html-keyboard-response","38","360340","0.0-13.0-4.0-0.0","","","","passed","","","","","","","","","","","","","","","","","ballFalling_prac","660","610","263","4","fallScene","false","","","","","",""
"","","","","","html-keyboard-response","39","361346","0.0-13.0-4.0-1.0","","","","passed","","887","","","","","","","","","","","","","","f","yesOrNo_prac","","","","4","","","far gt","1000","","","",""
"","","","","","html-keyboard-response","40","362907","0.0-13.0-4.0-0.1","","","","passed","","","","","","","","","","","","","","","","","ballFalling_prac","441","500","317","6","fallScene","true","","","","","",""
"","","","","","html-keyboard-response","41","363912","0.0-13.0-4.0-1.1","","","","passed","","922","","","","","","","","","","","","","","j","yesOrNo_prac","","","","6","","","gt","1000","","","",""
"","","","","","html-keyboard-response","42","366040","0.0-13.0-4.0-0.2","","","","passed","","","","","","","","","","","","","","","","","ballFalling_prac","340","334","350","3","fallScene","true","","","","","",""
"","","","","","html-keyboard-response","43","367045","0.0-13.0-4.0-1.2","","","","passed","","933","","","","","","","","","","","","","","f","yesOrNo_prac","","","","3","","","close gt","1000","","","",""
"","","","","","instructions","44","372511","0.0-13.0-5.0","","","","passed","[{""page_index"":0,""viewing_time"":5465}]","5465","","","","","","","","","","","","","","","","","","","","","","","","","","",""
"","","","","","html-keyboard-response","45","374005","0.0-13.0-6.0","","","","passed","","1493","","","","","","","","","","","","","<p><span style=""font-size:40px;"">Practice Test BLOCK 1</span></p><p><span style=""font-size:25px;"">You have <b style=""color: #FF644F;""><strong>1 second(s)</strong></b> to respond to the following trials.</span><br></p><p id=""blinking-text"" style=""font-weight; animation: blink 2s infinite;"">Press Space to continue</p><style>
                    @keyframes blink {
                        50% {
                            opacity: 0;
                        }
                    }
                </style>"," ","","","","","","","","","","","","",""
"","","","","","html-keyboard-response","46","375541","0.0-13.0-7.0-0.0","","","","passed","","","","","","","","","","","","","","","","","ballFalling_prac","441","500","317","6","fallScene","true","","","","","",""
"","","","","","html-keyboard-response","47","376545","0.0-13.0-7.0-1.0","","","","passed","","717","","","","","","","","","","","","","","j","yesOrNo_prac","","","","6","","","close gt","1000","","","",""
"","","","","","html-keyboard-response","48","378141","0.0-13.0-7.0-0.1","","","","passed","","","","","","","","","","","","","","","","","ballFalling_prac","559","586","302","5","fallScene","false","","","","","",""
"","","","","","html-keyboard-response","49","379145","0.0-13.0-7.0-1.1","","","","passed","","966","","","","","","","","","","","","","","f","yesOrNo_prac","","","","5","","","gt","1000","","","",""
"","","","","","html-keyboard-response","50","380740","0.0-13.0-7.0-0.2","","","","passed","","","","","","","","","","","","","","","","","ballFalling_prac","340","390","263","4","fallScene","true","","","","","",""
"","","","","","html-keyboard-response","51","381744","0.0-13.0-7.0-1.2","","","","passed","","919","","","","","","","","","","","","","","f","yesOrNo_prac","","","","4","","","far gt","1000","","","",""
"","","","","","html-keyboard-response","52","383809","0.0-13.0-8.0","","","","passed","","2063","","","","","","","","","","","","","<p><span style=""font-size:40px;"">Practice Test BLOCK 2</span></p><p><span style=""font-size:25px;"">You have <b style=""color: #FF644F;""><strong>3 second(s)</strong></b> to respond to the following trials.</span><br></p><p id=""blinking-text"" style=""font-weight; animation: blink 2s infinite;"">Press Space to continue</p><style>
                    @keyframes blink {
                        50% {
                            opacity: 0;
                        }
                    }
                </style>"," ","","","","","","","","","","","","",""
"","","","","","html-keyboard-response","53","385374","0.0-13.0-9.0-0.0","","","","passed","","","","","","","","","","","","","","","","","ballFalling_prac","340","390","263","4","fallScene","true","","","","","",""
"","","","","","html-keyboard-response","54","388378","0.0-13.0-9.0-1.0","","","","passed","","1934","","","","","","","","","","","","","","f","yesOrNo_prac","","","","4","","","close gt","3000","","","",""
"","","","","","html-keyboard-response","55","389974","0.0-13.0-9.0-0.1","","","","passed","","","","","","","","","","","","","","","","","ballFalling_prac","559","586","302","5","fallScene","false","","","","","",""
"","","","","","html-keyboard-response","56","392979","0.0-13.0-9.0-1.1","","","","passed","","1894","","","","","","","","","","","","","","f","yesOrNo_prac","","","","5","","","far gt","3000","","","",""
"","","","","","html-keyboard-response","57","394573","0.0-13.0-9.0-0.2","","","","passed","","","","","","","","","","","","","","","","","ballFalling_prac","416","365","249","2","fallScene","false","","","","","",""
"","","","","","html-keyboard-response","58","397577","0.0-13.0-9.0-1.2","","","","passed","","2305","","","","","","","","","","","","","","j","yesOrNo_prac","","","","2","","","gt","3000","","","",""
"","","","","","instructions","59","412048","0.0-14.0","","","","passed","[{""page_index"":0,""viewing_time"":14469}]","14469","","","","","","","","","","","","","","","","","","","","","","","","","","",""
"","","","","","html-keyboard-response","60","416386","0.0-15.0","","","","passed","","4335","","","","","","","","","","","","","<p><span style=""font-size:40px;"">BLOCK 1</span></p><p><span style=""font-size:25px;"">You have <b style=""color: #FF644F;""><strong>1 second(s)</strong></b> to respond to the following trials.</span><br></p><p></p> <!-- Blank line -->
                <p id=""blinking-text"" style=""font-weight; animation: blink 2s infinite;"">Press Space to continue</p>
                <style>
                    @keyframes blink {
                        50% {
                            opacity: 0;
                        }
                    }
                </style></p>"," ","","","","","","","","","","","","",""
"","","","","","html-keyboard-response","61","417924","0.0-16.0-0.0","","","","passed","","","","","","","","","","","","","","","","","ballFalling","322.3","379.3711431702997","245.25","1","fallScene","false","","","","1","",""
"","","","","","html-keyboard-response","62","418929","0.0-16.0-1.0","","","","passed","","786","","","","","","","","","","","","","","j","yesOrNo","","","","1","","","gt","1000","","1","379.3711431702997","245.25"
"","","","","","html-keyboard-response","63","420491","0.0-16.0-0.1","","","","passed","","","","","","","","","","","","","","","","","ballFalling","604.4000000000001","650.0211431702996","404.58000000000004","11","fallScene","false","","","","2","",""
"","","","","","html-keyboard-response","64","421494","0.0-16.0-1.1","","","","passed","","755","","","","","","","","","","","","","","f","yesOrNo","","","","11","","","mid","1000","","2","605.4000000000001","300"
"","","","","","html-keyboard-response","65","423158","0.0-16.0-0.2","","","","passed","","","","","","","","","","","","","","","","","ballFalling","500","479.92114317029973","330.87","6","fallScene","true","","","","3","",""
"","","","","","html-keyboard-response","66","424161","0.0-16.0-1.2","","","","passed","","818","","","","","","","","","","","","","","f","yesOrNo","","","","6","","","gt","1000","","3","479.9211431702998","330.87"
"","","","","","html-keyboard-response","67","425723","0.0-16.0-0.3","","","","passed","","","","","","","","","","","","","","","","","ballFalling","604.4000000000001","575.4211431702997","266.76","12","fallScene","false","","","","4","",""
"","","","","","html-keyboard-response","68","426726","0.0-16.0-1.3","","","","passed","","716","","","","","","","","","","","","","","f","yesOrNo","","","","12","","","lp","1000","","4","603.4000000000001","151"
"","","","","","html-keyboard-response","69","428757","0.0-16.0-0.4","","","","passed","","","","","","","","","","","","","","","","","ballFalling","604.4000000000001","596.8711431702998","394.5","10","fallScene","false","","","","5","",""
"","","","","","html-keyboard-response","70","429765","0.0-16.0-1.4","","","","passed","","899","","","","","","","","","","","","","","f","yesOrNo","","","","10","","","lp","1000","","5","603.4000000000001","215.50214355555383"
"","","","","","html-keyboard-response","71","431791","0.0-16.0-0.5","","","","passed","","","","","","","","","","","","","","","","","ballFalling","604.4000000000001","596.8711431702998","394.5","10","fallScene","true","","","","6","",""
"","","","","","html-keyboard-response","72","432795","0.0-16.0-1.5","","","","passed","","725","","","","","","","","","","","","","","f","yesOrNo","","","","10","","","gt","1000","","6","596.8711431702998","394.5"
"","","","","","html-keyboard-response","73","434358","0.0-16.0-0.6","","","","passed","","","","","","","","","","","","","","","","","ballFalling","322.3","379.3711431702997","245.25","1","fallScene","false","","","","7","",""
"","","","","","html-keyboard-response","74","435362","0.0-16.0-1.6","","","","passed","","885","","","","","","","","","","","","","","j","yesOrNo","","","","1","","","gt","1000","","7","379.3711431702997","245.25"
"","","","","","html-keyboard-response","75","436957","0.0-16.0-0.7","","","","passed","","","","","","","","","","","","","","","","","ballFalling","500","553.4711431702997","282.51","7","fallScene","true","","","","8","",""
"","","","","","html-keyboard-response","76","437961","0.0-16.0-1.7","","","","passed","","804","","","","","","","","","","","","","","j","yesOrNo","","","","7","","","gt","1000","","8","553.4711431702997","282.51"
"","","","","","html-keyboard-response","77","439457","0.0-16.0-0.8","","","","passed","","","","","","","","","","","","","","","","","ballFalling","604.4000000000001","667.6211431702998","201.78","9","fallScene","true","","","","9","",""
"","","","","","html-keyboard-response","78","440460","0.0-16.0-1.8","","","","passed","","791","","","","","","","","","","","","","","f","yesOrNo","","","","9","","","lp","1000","","9","605.4000000000001","151"
"","","","","","html-keyboard-response","79","442491","0.0-16.0-0.9","","","","passed","","","","","","","","","","","","","","","","","ballFalling","500","510.8711431702997","369.03","8","fallScene","false","","","","10","",""
"","","","","","html-keyboard-response","80","443497","0.0-16.0-1.9","","","","passed","","882","","","","","","","","","","","","","","f","yesOrNo","","","","8","","","mid","1000","","10","501","300"
"","","","","","html-keyboard-response","81","445290","0.0-16.0-0.10","","","","passed","","","","","","","","","","","","","","","","","ballFalling","322.3","308.07114317029976","253.89","2","fallScene","true","","","","11","",""
"","","","","","html-keyboard-response","82","446294","0.0-16.0-1.10","","","","passed","","818","","","","","","","","","","","","","","f","yesOrNo","","","","2","","","lp","1000","","11","321.3","151"
"","","","","","html-keyboard-response","83","448324","0.0-16.0-0.11","","","","passed","","","","","","","","","","","","","","","","","ballFalling","604.4000000000001","596.8711431702998","394.5","10","fallScene","false","","","","12","",""
"","","","","","html-keyboard-response","84","449328","0.0-16.0-1.11","","","","passed","","861","","","","","","","","","","","","","","f","yesOrNo","","","","10","","","mid","1000","","12","536.4288568297004","300"
"","","","","","html-keyboard-response","85","450825","0.0-16.0-0.12","","","","passed","","","","","","","","","","","","","","","","","ballFalling","604.4000000000001","667.6211431702998","201.78","9","fallScene","false","","","","13","",""
"","","","","","html-keyboard-response","86","451828","0.0-16.0-1.12","","","","passed","","938","","","","","","","","","","","","","","f","yesOrNo","","","","9","","","lp","1000","","13","605.4000000000001","151"
"","","","","","html-keyboard-response","87","453858","0.0-16.0-0.13","","","","passed","","","","","","","","","","","","","","","","","ballFalling","500","510.8711431702997","369.03","8","fallScene","false","","","","14","",""
"","","","","","html-keyboard-response","88","454861","0.0-16.0-1.13","","","","passed","","910","","","","","","","","","","","","","","f","yesOrNo","","","","8","","","lp","1000","","14","501","151"
"","","","","","html-keyboard-response","89","456424","0.0-16.0-0.14","","","","passed","","","","","","","","","","","","","","","","","ballFalling","322.3","379.3711431702997","245.25","1","fallScene","false","","","","15","",""
"","","","","","html-keyboard-response","90","457431","0.0-16.0-1.14","","","","passed","","null","","","","","","","","","","","","","","null","yesOrNo","","","","1","","","mid","1000","","15","390.27114317029975","300"
"","","","","","html-keyboard-response","91","458991","0.0-16.0-0.15","","","","passed","","","","","","","","","","","","","","","","","ballFalling","322.3","356.42114317029973","357.87","4","fallScene","false","","","","16","",""
"","","","","","html-keyboard-response","92","459995","0.0-16.0-1.15","","","","passed","","755","","","","","","","","","","","","","","f","yesOrNo","","","","4","","","lp","1000","","16","323.3","297.4070551689986"
"","","","","","html-keyboard-response","93","461557","0.0-16.0-0.16","","","","passed","","","","","","","","","","","","","","","","","ballFalling","322.3","296.07114317029976","371.46","3","fallScene","true","","","","17","",""
"","","","","","html-keyboard-response","94","462560","0.0-16.0-1.16","","","","passed","","858","","","","","","","","","","","","","","f","yesOrNo","","","","3","","","mid","1000","","17","321.3","300"
"","","","","","html-keyboard-response","95","464124","0.0-16.0-0.17","","","","passed","","","","","","","","","","","","","","","","","ballFalling","322.3","356.42114317029973","357.87","4","fallScene","true","","","","18","",""
"","","","","","html-keyboard-response","96","465128","0.0-16.0-1.17","","","","passed","","750","","","","","","","","","","","","","","j","yesOrNo","","","","4","","","gt","1000","","18","356.42114317029973","357.87"
"","","","","","html-keyboard-response","97","466692","0.0-16.0-0.18","","","","passed","","","","","","","","","","","","","","","","","ballFalling","322.3","356.42114317029973","357.87","4","fallScene","false","","","","19","",""
"","","","","","html-keyboard-response","98","467695","0.0-16.0-1.18","","","","passed","","797","","","","","","","","","","","","","","f","yesOrNo","","","","4","","","lp","1000","","19","323.3","297.4070551689986"
"","","","","","html-keyboard-response","99","469258","0.0-16.0-0.19","","","","passed","","","","","","","","","","","","","","","","","ballFalling","500","453.67114317029973","210.33","5","fallScene","true","","","","20","",""
"","","","","","html-keyboard-response","100","470264","0.0-16.0-1.19","","","","passed","","596","","","","","","","","","","","","","","f","yesOrNo","","","","5","","","lp","1000","","20","499","151"
"","","","","","html-keyboard-response","101","471824","0.0-16.0-0.20","","","","passed","","","","","","","","","","","","","","","","","ballFalling","322.3","296.07114317029976","371.46","3","fallScene","true","","","","21","",""
"","","","","","html-keyboard-response","102","472828","0.0-16.0-1.20","","","","passed","","652","","","","","","","","","","","","","","f","yesOrNo","","","","3","","","lp","1000","","21","321.3","287.3327096511259"
"","","","","","html-keyboard-response","103","474858","0.0-16.0-0.21","","","","passed","","","","","","","","","","","","","","","","","ballFalling","500","510.8711431702997","369.03","8","fallScene","false","","","","22","",""
"","","","","","html-keyboard-response","104","475862","0.0-16.0-1.21","","","","passed","","901","","","","","","","","","","","","","","f","yesOrNo","","","","8","","","lp","1000","","22","501","151"
"","","","","","html-keyboard-response","105","477524","0.0-16.0-0.22","","","","passed","","","","","","","","","","","","","","","","","ballFalling","500","479.92114317029973","330.87","6","fallScene","true","","","","23","",""
"","","","","","html-keyboard-response","106","478529","0.0-16.0-1.22","","","","passed","","823","","","","","","","","","","","","","","f","yesOrNo","","","","6","","","lp","1000","","23","499","189.92909825697632"
"","","","","","html-keyboard-response","107","480090","0.0-16.0-0.23","","","","passed","","","","","","","","","","","","","","","","","ballFalling","322.3","296.07114317029976","371.46","3","fallScene","true","","","","24","",""
"","","","","","html-keyboard-response","108","481094","0.0-16.0-1.23","","","","passed","","833","","","","","","","","","","","","","","f","yesOrNo","","","","3","","","lp","1000","","24","321.3","287.3327096511259"
"","","","","","html-keyboard-response","109","484179","0.0-17.0","","","","passed","","3084","","","","","","","","","","","","","<p><span style=""font-size:40px;"">BLOCK 2</span></p><p><span style=""font-size:25px;"">You have <b style=""color: #FF644F;""><strong>1 second(s)</strong></b> to respond to the following trials.</span><br></p><p></p> <!-- Blank line -->
                <p id=""blinking-text"" style=""font-weight; animation: blink 2s infinite;"">Press Space to continue</p>
                <style>
                    @keyframes blink {
                        50% {
                            opacity: 0;
                        }
                    }
                </style></p>"," ","","","","","","","","","","","","",""
"","","","","","html-keyboard-response","110","485708","0.0-18.0-0.0","","","","passed","","","","","","","","","","","","","","","","","ballFalling","322.3","379.3711431702997","245.25","1","fallScene","false","","","","25","",""
"","","","","","html-keyboard-response","111","486713","0.0-18.0-1.0","","","","passed","","760","","","","","","","","","","","","","","f","yesOrNo","","","","1","","","lp","1000","","25","323.3","217.74551669457017"
"","","","","","html-keyboard-response","112","488741","0.0-18.0-0.1","","","","passed","","","","","","","","","","","","","","","","","ballFalling","604.4000000000001","596.8711431702998","394.5","10","fallScene","true","","","","26","",""
"","","","","","html-keyboard-response","113","489746","0.0-18.0-1.1","","","","passed","","770","","","","","","","","","","","","","","f","yesOrNo","","","","10","","","gt","1000","","26","596.8711431702998","394.5"
"","","","","","html-keyboard-response","114","491308","0.0-18.0-0.2","","","","passed","","","","","","","","","","","","","","","","","ballFalling","604.4000000000001","650.0211431702996","404.58000000000004","11","fallScene","true","","","","27","",""
"","","","","","html-keyboard-response","115","492311","0.0-18.0-1.2","","","","passed","","607","","","","","","","","","","","","","","j","yesOrNo","","","","11","","","gt","1000","","27","650.0211431702996","404.58"
"","","","","","html-keyboard-response","116","493873","0.0-18.0-0.3","","","","passed","","","","","","","","","","","","","","","","","ballFalling","604.4000000000001","650.0211431702996","404.58000000000004","11","fallScene","true","","","","28","",""
"","","","","","html-keyboard-response","117","494878","0.0-18.0-1.3","","","","passed","","null","","","","","","","","","","","","","","null","yesOrNo","","","","11","","","gt","1000","","28","650.0211431702996","404.58"
"","","","","","html-keyboard-response","118","496374","0.0-18.0-0.4","","","","passed","","","","","","","","","","","","","","","","","ballFalling","604.4000000000001","667.6211431702998","201.78","9","fallScene","true","","","","29","",""
"","","","","","html-keyboard-response","119","497378","0.0-18.0-1.4","","","","passed","","930","","","","","","","","","","","","","","f","yesOrNo","","","","9","","","mid","1000","","29","605.4000000000001","300"
"","","","","","html-keyboard-response","120","498975","0.0-18.0-0.5","","","","passed","","","","","","","","","","","","","","","","","ballFalling","500","553.4711431702997","282.51","7","fallScene","false","","","","30","",""
"","","","","","html-keyboard-response","121","499981","0.0-18.0-1.5","","","","passed","","714","","","","","","","","","","","","","","f","yesOrNo","","","","7","","","mid","1000","","30","501","300"
"","","","","","html-keyboard-response","122","501642","0.0-18.0-0.6","","","","passed","","","","","","","","","","","","","","","","","ballFalling","500","479.92114317029973","330.87","6","fallScene","true","","","","31","",""
"","","","","","html-keyboard-response","123","502645","0.0-18.0-1.6","","","","passed","","899","","","","","","","","","","","","","","f","yesOrNo","","","","6","","","gt","1000","","31","479.9211431702998","330.87"
"","","","","","html-keyboard-response","124","504674","0.0-18.0-0.7","","","","passed","","","","","","","","","","","","","","","","","ballFalling","604.4000000000001","596.8711431702998","394.5","10","fallScene","true","","","","32","",""
"","","","","","html-keyboard-response","125","505678","0.0-18.0-1.7","","","","passed","","null","","","","","","","","","","","","","","null","yesOrNo","","","","10","","","lp","1000","","32","603.4000000000001","215.50214355555383"
"","","","","","html-keyboard-response","126","507241","0.0-18.0-0.8","","","","passed","","","","","","","","","","","","","","","","","ballFalling","604.4000000000001","575.4211431702997","266.76","12","fallScene","true","","","","33","",""
"","","","","","html-keyboard-response","127","508244","0.0-18.0-1.8","","","","passed","","954","","","","","","","","","","","","","","f","yesOrNo","","","","12","","","mid","1000","","33","536.4288568297004","300"
"","","","","","html-keyboard-response","128","509808","0.0-18.0-0.9","","","","passed","","","","","","","","","","","","","","","","","ballFalling","604.4000000000001","650.0211431702996","404.58000000000004","11","fallScene","false","","","","34","",""
"","","","","","html-keyboard-response","129","510811","0.0-18.0-1.9","","","","passed","","707","","","","","","","","","","","","","","f","yesOrNo","","","","11","","","lp","1000","","34","605.4000000000001","372.6340973215488"
"","","","","","html-keyboard-response","130","512407","0.0-18.0-0.10","","","","passed","","","","","","","","","","","","","","","","","ballFalling","500","553.4711431702997","282.51","7","fallScene","true","","","","35","",""
"","","","","","html-keyboard-response","131","513414","0.0-18.0-1.10","","","","passed","","771","","","","","","","","","","","","","","f","yesOrNo","","","","7","","","lp","1000","","35","501","227.2843295913261"
"","","","","","html-keyboard-response","132","514975","0.0-18.0-0.11","","","","passed","","","","","","","","","","","","","","","","","ballFalling","500","453.67114317029973","210.33","5","fallScene","false","","","","36","",""
"","","","","","html-keyboard-response","133","515978","0.0-18.0-1.11","","","","passed","","600","","","","","","","","","","","","","","j","yesOrNo","","","","5","","","gt","1000","","36","453.6711431702998","210.33"
"","","","","","html-keyboard-response","134","518007","0.0-18.0-0.12","","","","passed","","","","","","","","","","","","","","","","","ballFalling","500","510.8711431702997","369.03","8","fallScene","false","","","","37","",""
"","","","","","html-keyboard-response","135","519010","0.0-18.0-1.12","","","","passed","","null","","","","","","","","","","","","","","null","yesOrNo","","","","8","","","gt","1000","","37","510.8711431702997","369.03"
"","","","","","html-keyboard-response","136","520508","0.0-18.0-0.13","","","","passed","","","","","","","","","","","","","","","","","ballFalling","604.4000000000001","667.6211431702998","201.78","9","fallScene","true","","","","38","",""
"","","","","","html-keyboard-response","137","521512","0.0-18.0-1.13","","","","passed","","null","","","","","","","","","","","","","","null","yesOrNo","","","","9","","","gt","1000","","38","667.6211431702998","201.78"
"","","","","","html-keyboard-response","138","523175","0.0-18.0-0.14","","","","passed","","","","","","","","","","","","","","","","","ballFalling","500","479.92114317029973","330.87","6","fallScene","false","","","","39","",""
"","","","","","html-keyboard-response","139","524179","0.0-18.0-1.14","","","","passed","","768","","","","","","","","","","","","","","f","yesOrNo","","","","6","","","mid","1000","","39","499","300"
"","","","","","html-keyboard-response","140","525741","0.0-18.0-0.15","","","","passed","","","","","","","","","","","","","","","","","ballFalling","500","453.67114317029973","210.33","5","fallScene","true","","","","40","",""
"","","","","","html-keyboard-response","141","526748","0.0-18.0-1.15","","","","passed","","666","","","","","","","","","","","","","","f","yesOrNo","","","","5","","","lp","1000","","40","499","151"
"","","","","","html-keyboard-response","142","528408","0.0-18.0-0.16","","","","passed","","","","","","","","","","","","","","","","","ballFalling","500","479.92114317029973","330.87","6","fallScene","true","","","","41","",""
"","","","","","html-keyboard-response","143","529412","0.0-18.0-1.16","","","","passed","","752","","","","","","","","","","","","","","f","yesOrNo","","","","6","","","mid","1000","","41","499","300"
"","","","","","html-keyboard-response","144","531208","0.0-18.0-0.17","","","","passed","","","","","","","","","","","","","","","","","ballFalling","322.3","308.07114317029976","253.89","2","fallScene","true","","","","42","",""
"","","","","","html-keyboard-response","145","532212","0.0-18.0-1.17","","","","passed","","566","","","","","","","","","","","","","","f","yesOrNo","","","","2","","","mid","1000","","42","321.3","300"
"","","","","","html-keyboard-response","146","533809","0.0-18.0-0.18","","","","passed","","","","","","","","","","","","","","","","","ballFalling","500","553.4711431702997","282.51","7","fallScene","true","","","","43","",""
"","","","","","html-keyboard-response","147","534813","0.0-18.0-1.18","","","","passed","","602","","","","","","","","","","","","","","f","yesOrNo","","","","7","","","lp","1000","","43","501","227.2843295913261"
"","","","","","html-keyboard-response","148","536408","0.0-18.0-0.19","","","","passed","","","","","","","","","","","","","","","","","ballFalling","500","553.4711431702997","282.51","7","fallScene","true","","","","44","",""
"","","","","","html-keyboard-response","149","537411","0.0-18.0-1.19","","","","passed","","869","","","","","","","","","","","","","","f","yesOrNo","","","","7","","","mid","1000","","44","501","300"
"","","","","","html-keyboard-response","150","538974","0.0-18.0-0.20","","","","passed","","","","","","","","","","","","","","","","","ballFalling","322.3","356.42114317029973","357.87","4","fallScene","false","","","","45","",""
"","","","","","html-keyboard-response","151","539982","0.0-18.0-1.20","","","","passed","","764","","","","","","","","","","","","","","j","yesOrNo","","","","4","","","gt","1000","","45","356.42114317029973","357.87"
"","","","","","html-keyboard-response","152","541541","0.0-18.0-0.21","","","","passed","","","","","","","","","","","","","","","","","ballFalling","604.4000000000001","650.0211431702996","404.58000000000004","11","fallScene","true","","","","46","",""
"","","","","","html-keyboard-response","153","542544","0.0-18.0-1.21","","","","passed","","860","","","","","","","","","","","","","","f","yesOrNo","","","","11","","","mid","1000","","46","605.4000000000001","300"
"","","","","","html-keyboard-response","154","544208","0.0-18.0-0.22","","","","passed","","","","","","","","","","","","","","","","","ballFalling","500","479.92114317029973","330.87","6","fallScene","true","","","","47","",""
"","","","","","html-keyboard-response","155","545210","0.0-18.0-1.22","","","","passed","","796","","","","","","","","","","","","","","f","yesOrNo","","","","6","","","lp","1000","","47","499","189.92909825697632"
"","","","","","html-keyboard-response","156","546775","0.0-18.0-0.23","","","","passed","","","","","","","","","","","","","","","","","ballFalling","322.3","356.42114317029973","357.87","4","fallScene","false","","","","48","",""
"","","","","","html-keyboard-response","157","547779","0.0-18.0-1.23","","","","passed","","778","","","","","","","","","","","","","","j","yesOrNo","","","","4","","","mid","1000","","48","390.27114317029975","300"
"","","","","","html-keyboard-response","158","549469","0.0-19.0","","","","passed","","1689","","","","","","","","","","","","","<p><span style=""font-size:40px;"">BLOCK 3</span></p><p><span style=""font-size:25px;"">You have <b style=""color: #FF644F;""><strong>1 second(s)</strong></b> to respond to the following trials.</span><br></p><p></p> <!-- Blank line -->
                <p id=""blinking-text"" style=""font-weight; animation: blink 2s infinite;"">Press Space to continue</p>
                <style>
                    @keyframes blink {
                        50% {
                            opacity: 0;
                        }
                    }
                </style></p>"," ","","","","","","","","","","","","",""
"","","","","","html-keyboard-response","159","550991","0.0-20.0-0.0","","","","passed","","","","","","","","","","","","","","","","","ballFalling","322.3","379.3711431702997","245.25","1","fallScene","true","","","","49","",""
"","","","","","html-keyboard-response","160","551995","0.0-20.0-1.0","","","","passed","","626","","","","","","","","","","","","","","f","yesOrNo","","","","1","","","lp","1000","","49","323.3","217.74551669457017"
"","","","","","html-keyboard-response","161","553559","0.0-20.0-0.1","","","","passed","","","","","","","","","","","","","","","","","ballFalling","604.4000000000001","575.4211431702997","266.76","12","fallScene","false","","","","50","",""
"","","","","","html-keyboard-response","162","554565","0.0-20.0-1.1","","","","passed","","717","","","","","","","","","","","","","","f","yesOrNo","","","","12","","","gt","1000","","50","575.4211431702997","266.76"
"","","","","","html-keyboard-response","163","556124","0.0-20.0-0.2","","","","passed","","","","","","","","","","","","","","","","","ballFalling","500","453.67114317029973","210.33","5","fallScene","true","","","","51","",""
"","","","","","html-keyboard-response","164","557128","0.0-20.0-1.2","","","","passed","","721","","","","","","","","","","","","","","f","yesOrNo","","","","5","","","mid","1000","","51","499","300"
"","","","","","html-keyboard-response","165","558691","0.0-20.0-0.3","","","","passed","","","","","","","","","","","","","","","","","ballFalling","322.3","296.07114317029976","371.46","3","fallScene","false","","","","52","",""
"","","","","","html-keyboard-response","166","559696","0.0-20.0-1.3","","","","passed","","717","","","","","","","","","","","","","","j","yesOrNo","","","","3","","","mid","1000","","52","321.3","300"
"","","","","","html-keyboard-response","167","561258","0.0-20.0-0.4","","","","passed","","","","","","","","","","","","","","","","","ballFalling","500","453.67114317029973","210.33","5","fallScene","false","","","","53","",""
"","","","","","html-keyboard-response","168","562262","0.0-20.0-1.4","","","","passed","","793","","","","","","","","","","","","","","j","yesOrNo","","","","5","","","gt","1000","","53","453.6711431702998","210.33"
"","","","","","html-keyboard-response","169","563825","0.0-20.0-0.5","","","","passed","","","","","","","","","","","","","","","","","ballFalling","604.4000000000001","575.4211431702997","266.76","12","fallScene","false","","","","54","",""
"","","","","","html-keyboard-response","170","564830","0.0-20.0-1.5","","","","passed","","885","","","","","","","","","","","","","","f","yesOrNo","","","","12","","","mid","1000","","54","536.4288568297004","300"
"","","","","","html-keyboard-response","171","566325","0.0-20.0-0.6","","","","passed","","","","","","","","","","","","","","","","","ballFalling","604.4000000000001","667.6211431702998","201.78","9","fallScene","true","","","","55","",""
"","","","","","html-keyboard-response","172","567328","0.0-20.0-1.6","","","","passed","","971","","","","","","","","","","","","","","f","yesOrNo","","","","9","","","gt","1000","","55","667.6211431702998","201.78"
"","","","","","html-keyboard-response","173","568892","0.0-20.0-0.7","","","","passed","","","","","","","","","","","","","","","","","ballFalling","322.3","296.07114317029976","371.46","3","fallScene","false","","","","56","",""
"","","","","","html-keyboard-response","174","569896","0.0-20.0-1.7","","","","passed","","651","","","","","","","","","","","","","","f","yesOrNo","","","","3","","","gt","1000","","56","296.07114317029976","371.46"
"","","","","","html-keyboard-response","175","571693","0.0-20.0-0.8","","","","passed","","","","","","","","","","","","","","","","","ballFalling","322.3","308.07114317029976","253.89","2","fallScene","false","","","","57","",""
"","","","","","html-keyboard-response","176","572696","0.0-20.0-1.8","","","","passed","","654","","","","","","","","","","","","","","f","yesOrNo","","","","2","","","gt","1000","","57","308.07114317029976","253.89"
"","","","","","html-keyboard-response","177","574258","0.0-20.0-0.9","","","","passed","","","","","","","","","","","","","","","","","ballFalling","500","453.67114317029973","210.33","5","fallScene","false","","","","58","",""
"","","","","","html-keyboard-response","178","575261","0.0-20.0-1.9","","","","passed","","520","","","","","","","","","","","","","","f","yesOrNo","","","","5","","","mid","1000","","58","499","300"
"","","","","","html-keyboard-response","179","576825","0.0-20.0-0.10","","","","passed","","","","","","","","","","","","","","","","","ballFalling","604.4000000000001","650.0211431702996","404.58000000000004","11","fallScene","false","","","","59","",""
"","","","","","html-keyboard-response","180","577830","0.0-20.0-1.10","","","","passed","","665","","","","","","","","","","","","","","j","yesOrNo","","","","11","","","lp","1000","","59","605.4000000000001","372.6340973215488"
"","","","","","html-keyboard-response","181","579426","0.0-20.0-0.11","","","","passed","","","","","","","","","","","","","","","","","ballFalling","500","553.4711431702997","282.51","7","fallScene","true","","","","60","",""
"","","","","","html-keyboard-response","182","580429","0.0-20.0-1.11","","","","passed","","774","","","","","","","","","","","","","","j","yesOrNo","","","","7","","","gt","1000","","60","553.4711431702997","282.51"
"","","","","","html-keyboard-response","183","581991","0.0-20.0-0.12","","","","passed","","","","","","","","","","","","","","","","","ballFalling","604.4000000000001","575.4211431702997","266.76","12","fallScene","true","","","","61","",""
"","","","","","html-keyboard-response","184","582996","0.0-20.0-1.12","","","","passed","","828","","","","","","","","","","","","","","j","yesOrNo","","","","12","","","gt","1000","","61","575.4211431702997","266.76"
"","","","","","html-keyboard-response","185","584559","0.0-20.0-0.13","","","","passed","","","","","","","","","","","","","","","","","ballFalling","322.3","356.42114317029973","357.87","4","fallScene","false","","","","62","",""
"","","","","","html-keyboard-response","186","585563","0.0-20.0-1.13","","","","passed","","683","","","","","","","","","","","","","","f","yesOrNo","","","","4","","","mid","1000","","62","390.27114317029975","300"
"","","","","","html-keyboard-response","187","587591","0.0-20.0-0.14","","","","passed","","","","","","","","","","","","","","","","","ballFalling","604.4000000000001","596.8711431702998","394.5","10","fallScene","true","","","","63","",""
"","","","","","html-keyboard-response","188","588595","0.0-20.0-1.14","","","","passed","","736","","","","","","","","","","","","","","j","yesOrNo","","","","10","","","mid","1000","","63","536.4288568297004","300"
"","","","","","html-keyboard-response","189","590625","0.0-20.0-0.15","","","","passed","","","","","","","","","","","","","","","","","ballFalling","500","510.8711431702997","369.03","8","fallScene","true","","","","64","",""
"","","","","","html-keyboard-response","190","591629","0.0-20.0-1.15","","","","passed","","793","","","","","","","","","","","","","","f","yesOrNo","","","","8","","","mid","1000","","64","501","300"
"","","","","","html-keyboard-response","191","593426","0.0-20.0-0.16","","","","passed","","","","","","","","","","","","","","","","","ballFalling","322.3","308.07114317029976","253.89","2","fallScene","false","","","","65","",""
"","","","","","html-keyboard-response","192","594430","0.0-20.0-1.16","","","","passed","","734","","","","","","","","","","","","","","j","yesOrNo","","","","2","","","gt","1000","","65","308.07114317029976","253.89"
"","","","","","html-keyboard-response","193","595992","0.0-20.0-0.17","","","","passed","","","","","","","","","","","","","","","","","ballFalling","322.3","296.07114317029976","371.46","3","fallScene","true","","","","66","",""
"","","","","","html-keyboard-response","194","596996","0.0-20.0-1.17","","","","passed","","744","","","","","","","","","","","","","","j","yesOrNo","","","","3","","","gt","1000","","66","296.07114317029976","371.46"
"","","","","","html-keyboard-response","195","598492","0.0-20.0-0.18","","","","passed","","","","","","","","","","","","","","","","","ballFalling","604.4000000000001","667.6211431702998","201.78","9","fallScene","true","","","","67","",""
"","","","","","html-keyboard-response","196","599496","0.0-20.0-1.18","","","","passed","","622","","","","","","","","","","","","","","j","yesOrNo","","","","9","","","mid","1000","","67","605.4000000000001","300"
"","","","","","html-keyboard-response","197","601526","0.0-20.0-0.19","","","","passed","","","","","","","","","","","","","","","","","ballFalling","500","510.8711431702997","369.03","8","fallScene","false","","","","68","",""
"","","","","","html-keyboard-response","198","602530","0.0-20.0-1.19","","","","passed","","687","","","","","","","","","","","","","","f","yesOrNo","","","","8","","","gt","1000","","68","510.8711431702997","369.03"
"","","","","","html-keyboard-response","199","604091","0.0-20.0-0.20","","","","passed","","","","","","","","","","","","","","","","","ballFalling","604.4000000000001","575.4211431702997","266.76","12","fallScene","false","","","","69","",""
"","","","","","html-keyboard-response","200","605095","0.0-20.0-1.20","","","","passed","","706","","","","","","","","","","","","","","f","yesOrNo","","","","12","","","lp","1000","","69","603.4000000000001","151"
"","","","","","html-keyboard-response","201","606892","0.0-20.0-0.21","","","","passed","","","","","","","","","","","","","","","","","ballFalling","322.3","308.07114317029976","253.89","2","fallScene","true","","","","70","",""
"","","","","","html-keyboard-response","202","607896","0.0-20.0-1.21","","","","passed","","919","","","","","","","","","","","","","","j","yesOrNo","","","","2","","","mid","1000","","70","321.3","300"
"","","","","","html-keyboard-response","203","609692","0.0-20.0-0.22","","","","passed","","","","","","","","","","","","","","","","","ballFalling","322.3","308.07114317029976","253.89","2","fallScene","false","","","","71","",""
"","","","","","html-keyboard-response","204","610696","0.0-20.0-1.22","","","","passed","","700","","","","","","","","","","","","","","f","yesOrNo","","","","2","","","lp","1000","","71","321.3","151"
"","","","","","html-keyboard-response","205","612259","0.0-20.0-0.23","","","","passed","","","","","","","","","","","","","","","","","ballFalling","322.3","379.3711431702997","245.25","1","fallScene","true","","","","72","",""
"","","","","","html-keyboard-response","206","613263","0.0-20.0-1.23","","","","passed","","676","","","","","","","","","","","","","","j","yesOrNo","","","","1","","","mid","1000","","72","390.27114317029975","300"
"","","","","","html-keyboard-response","207","615588","0.0-21.0","","","","passed","","2323","","","","","","","","","","","","","<p><span style=""font-size:40px;"">BLOCK 4</span></p><p><span style=""font-size:25px;"">You have <b style=""color: #FF644F;""><strong>3 second(s)</strong></b> to respond to the following trials.</span><br></p><p></p> <!-- Blank line -->
                <p id=""blinking-text"" style=""font-weight; animation: blink 2s infinite;"">Press Space to continue</p>
                <style>
                    @keyframes blink {
                        50% {
                            opacity: 0;
                        }
                    }
                </style></p>"," ","","","","","","","","","","","","",""
"","","","","","html-keyboard-response","208","617125","0.0-22.0-0.0","","","","passed","","","","","","","","","","","","","","","","","ballFalling","604.4000000000001","575.4211431702997","266.76","12","fallScene","true","","","","73","",""
"","","","","","html-keyboard-response","209","620130","0.0-22.0-1.0","","","","passed","","2065","","","","","","","","","","","","","","f","yesOrNo","","","","12","","","lp","3000","","73","603.4000000000001","151"
"","","","","","html-keyboard-response","210","621692","0.0-22.0-0.1","","","","passed","","","","","","","","","","","","","","","","","ballFalling","322.3","379.3711431702997","245.25","1","fallScene","false","","","","74","",""
"","","","","","html-keyboard-response","211","624697","0.0-22.0-1.1","","","","passed","","1419","","","","","","","","","","","","","","j","yesOrNo","","","","1","","","mid","3000","","74","390.27114317029975","300"
"","","","","","html-keyboard-response","212","626259","0.0-22.0-0.2","","","","passed","","","","","","","","","","","","","","","","","ballFalling","500","453.67114317029973","210.33","5","fallScene","false","","","","75","",""
"","","","","","html-keyboard-response","213","629263","0.0-22.0-1.2","","","","passed","","2061","","","","","","","","","","","","","","f","yesOrNo","","","","5","","","lp","3000","","75","499","151"
"","","","","","html-keyboard-response","214","630759","0.0-22.0-0.3","","","","passed","","","","","","","","","","","","","","","","","ballFalling","604.4000000000001","667.6211431702998","201.78","9","fallScene","false","","","","76","",""
"","","","","","html-keyboard-response","215","633763","0.0-22.0-1.3","","","","passed","","1765","","","","","","","","","","","","","","j","yesOrNo","","","","9","","","mid","3000","","76","605.4000000000001","300"
"","","","","","html-keyboard-response","216","635259","0.0-22.0-0.4","","","","passed","","","","","","","","","","","","","","","","","ballFalling","604.4000000000001","667.6211431702998","201.78","9","fallScene","false","","","","77","",""
"","","","","","html-keyboard-response","217","638265","0.0-22.0-1.4","","","","passed","","2132","","","","","","","","","","","","","","j","yesOrNo","","","","9","","","mid","3000","","77","605.4000000000001","300"
"","","","","","html-keyboard-response","218","640060","0.0-22.0-0.5","","","","passed","","","","","","","","","","","","","","","","","ballFalling","322.3","308.07114317029976","253.89","2","fallScene","false","","","","78","",""
"","","","","","html-keyboard-response","219","643064","0.0-22.0-1.5","","","","passed","","2602","","","","","","","","","","","","","","f","yesOrNo","","","","2","","","gt","3000","","78","308.07114317029976","253.89"
"","","","","","html-keyboard-response","220","644626","0.0-22.0-0.6","","","","passed","","","","","","","","","","","","","","","","","ballFalling","604.4000000000001","650.0211431702996","404.58000000000004","11","fallScene","true","","","","79","",""
"","","","","","html-keyboard-response","221","647632","0.0-22.0-1.6","","","","passed","","2354","","","","","","","","","","","","","","f","yesOrNo","","","","11","","","lp","3000","","79","605.4000000000001","372.6340973215488"
"","","","","","html-keyboard-response","222","649292","0.0-22.0-0.7","","","","passed","","","","","","","","","","","","","","","","","ballFalling","500","479.92114317029973","330.87","6","fallScene","true","","","","80","",""
"","","","","","html-keyboard-response","223","652296","0.0-22.0-1.7","","","","passed","","2332","","","","","","","","","","","","","","f","yesOrNo","","","","6","","","lp","3000","","80","499","189.92909825697632"
"","","","","","html-keyboard-response","224","653960","0.0-22.0-0.8","","","","passed","","","","","","","","","","","","","","","","","ballFalling","500","479.92114317029973","330.87","6","fallScene","false","","","","81","",""
"","","","","","html-keyboard-response","225","656963","0.0-22.0-1.8","","","","passed","","1572","","","","","","","","","","","","","","j","yesOrNo","","","","6","","","gt","3000","","81","479.9211431702998","330.87"
"","","","","","html-keyboard-response","226","658559","0.0-22.0-0.9","","","","passed","","","","","","","","","","","","","","","","","ballFalling","500","553.4711431702997","282.51","7","fallScene","false","","","","82","",""
"","","","","","html-keyboard-response","227","661562","0.0-22.0-1.9","","","","passed","","1258","","","","","","","","","","","","","","j","yesOrNo","","","","7","","","gt","3000","","82","553.4711431702997","282.51"
"","","","","","html-keyboard-response","228","663059","0.0-22.0-0.10","","","","passed","","","","","","","","","","","","","","","","","ballFalling","604.4000000000001","667.6211431702998","201.78","9","fallScene","true","","","","83","",""
"","","","","","html-keyboard-response","229","666063","0.0-22.0-1.10","","","","passed","","2213","","","","","","","","","","","","","","j","yesOrNo","","","","9","","","gt","3000","","83","667.6211431702998","201.78"
"","","","","","html-keyboard-response","230","667626","0.0-22.0-0.11","","","","passed","","","","","","","","","","","","","","","","","ballFalling","322.3","296.07114317029976","371.46","3","fallScene","true","","","","84","",""
"","","","","","html-keyboard-response","231","670630","0.0-22.0-1.11","","","","passed","","2267","","","","","","","","","","","","","","f","yesOrNo","","","","3","","","mid","3000","","84","321.3","300"
"","","","","","html-keyboard-response","232","672293","0.0-22.0-0.12","","","","passed","","","","","","","","","","","","","","","","","ballFalling","500","479.92114317029973","330.87","6","fallScene","true","","","","85","",""
"","","","","","html-keyboard-response","233","675297","0.0-22.0-1.12","","","","passed","","2295","","","","","","","","","","","","","","f","yesOrNo","","","","6","","","mid","3000","","85","499","300"
"","","","","","html-keyboard-response","234","676860","0.0-22.0-0.13","","","","passed","","","","","","","","","","","","","","","","","ballFalling","604.4000000000001","575.4211431702997","266.76","12","fallScene","true","","","","86","",""
"","","","","","html-keyboard-response","235","679864","0.0-22.0-1.13","","","","passed","","2026","","","","","","","","","","","","","","j","yesOrNo","","","","12","","","gt","3000","","86","575.4211431702997","266.76"
"","","","","","html-keyboard-response","236","681660","0.0-22.0-0.14","","","","passed","","","","","","","","","","","","","","","","","ballFalling","322.3","308.07114317029976","253.89","2","fallScene","true","","","","87","",""
"","","","","","html-keyboard-response","237","684664","0.0-22.0-1.14","","","","passed","","2865","","","","","","","","","","","","","","f","yesOrNo","","","","2","","","mid","3000","","87","321.3","300"
"","","","","","html-keyboard-response","238","686326","0.0-22.0-0.15","","","","passed","","","","","","","","","","","","","","","","","ballFalling","500","479.92114317029973","330.87","6","fallScene","false","","","","88","",""
"","","","","","html-keyboard-response","239","689331","0.0-22.0-1.15","","","","passed","","null","","","","","","","","","","","","","","null","yesOrNo","","","","6","","","lp","3000","","88","499","189.92909825697632"
"","","","","","html-keyboard-response","240","690926","0.0-22.0-0.16","","","","passed","","","","","","","","","","","","","","","","","ballFalling","500","553.4711431702997","282.51","7","fallScene","false","","","","89","",""
"","","","","","html-keyboard-response","241","693930","0.0-22.0-1.16","","","","passed","","2668","","","","","","","","","","","","","","j","yesOrNo","","","","7","","","gt","3000","","89","553.4711431702997","282.51"
"","","","","","html-keyboard-response","242","695527","0.0-22.0-0.17","","","","passed","","","","","","","","","","","","","","","","","ballFalling","500","553.4711431702997","282.51","7","fallScene","false","","","","90","",""
"","","","","","html-keyboard-response","243","698531","0.0-22.0-1.17","","","","passed","","2131","","","","","","","","","","","","","","f","yesOrNo","","","","7","","","mid","3000","","90","501","300"
"","","","","","html-keyboard-response","244","700092","0.0-22.0-0.18","","","","passed","","","","","","","","","","","","","","","","","ballFalling","604.4000000000001","575.4211431702997","266.76","12","fallScene","true","","","","91","",""
"","","","","","html-keyboard-response","245","703095","0.0-22.0-1.18","","","","passed","","1750","","","","","","","","","","","","","","j","yesOrNo","","","","12","","","mid","3000","","91","536.4288568297004","300"
"","","","","","html-keyboard-response","246","704660","0.0-22.0-0.19","","","","passed","","","","","","","","","","","","","","","","","ballFalling","322.3","356.42114317029973","357.87","4","fallScene","true","","","","92","",""
"","","","","","html-keyboard-response","247","707664","0.0-22.0-1.19","","","","passed","","1806","","","","","","","","","","","","","","f","yesOrNo","","","","4","","","lp","3000","","92","323.3","297.4070551689986"
"","","","","","html-keyboard-response","248","709227","0.0-22.0-0.20","","","","passed","","","","","","","","","","","","","","","","","ballFalling","322.3","296.07114317029976","371.46","3","fallScene","false","","","","93","",""
"","","","","","html-keyboard-response","249","712230","0.0-22.0-1.20","","","","passed","","1632","","","","","","","","","","","","","","j","yesOrNo","","","","3","","","mid","3000","","93","321.3","300"
"","","","","","html-keyboard-response","250","713825","0.0-22.0-0.21","","","","passed","","","","","","","","","","","","","","","","","ballFalling","500","553.4711431702997","282.51","7","fallScene","true","","","","94","",""
"","","","","","html-keyboard-response","251","716830","0.0-22.0-1.21","","","","passed","","2335","","","","","","","","","","","","","","f","yesOrNo","","","","7","","","lp","3000","","94","501","227.2843295913261"
"","","","","","html-keyboard-response","252","718393","0.0-22.0-0.22","","","","passed","","","","","","","","","","","","","","","","","ballFalling","322.3","296.07114317029976","371.46","3","fallScene","true","","","","95","",""
"","","","","","html-keyboard-response","253","721398","0.0-22.0-1.22","","","","passed","","2454","","","","","","","","","","","","","","j","yesOrNo","","","","3","","","gt","3000","","95","296.07114317029976","371.46"
"","","","","","html-keyboard-response","254","722960","0.0-22.0-0.23","","","","passed","","","","","","","","","","","","","","","","","ballFalling","322.3","379.3711431702997","245.25","1","fallScene","false","","","","96","",""
"","","","","","html-keyboard-response","255","725965","0.0-22.0-1.23","","","","passed","","2247","","","","","","","","","","","","","","j","yesOrNo","","","","1","","","mid","3000","","96","390.27114317029975","300"
"","","","","","html-keyboard-response","256","728212","0.0-23.0","","","","passed","","2246","","","","","","","","","","","","","<p><span style=""font-size:40px;"">BLOCK 5</span></p><p><span style=""font-size:25px;"">You have <b style=""color: #FF644F;""><strong>3 second(s)</strong></b> to respond to the following trials.</span><br></p><p></p> <!-- Blank line -->
                <p id=""blinking-text"" style=""font-weight; animation: blink 2s infinite;"">Press Space to continue</p>
                <style>
                    @keyframes blink {
                        50% {
                            opacity: 0;
                        }
                    }
                </style></p>"," ","","","","","","","","","","","","",""
"","","","","","html-keyboard-response","257","730227","0.0-24.0-0.0","","","","passed","","","","","","","","","","","","","","","","","ballFalling","500","510.8711431702997","369.03","8","fallScene","false","","","","97","",""
"","","","","","html-keyboard-response","258","733233","0.0-24.0-1.0","","","","passed","","1913","","","","","","","","","","","","","","f","yesOrNo","","","","8","","","mid","3000","","97","501","300"
"","","","","","html-keyboard-response","259","734826","0.0-24.0-0.1","","","","passed","","","","","","","","","","","","","","","","","ballFalling","500","553.4711431702997","282.51","7","fallScene","true","","","","98","",""
"","","","","","html-keyboard-response","260","737832","0.0-24.0-1.1","","","","passed","","1849","","","","","","","","","","","","","","f","yesOrNo","","","","7","","","lp","3000","","98","501","227.2843295913261"
"","","","","","html-keyboard-response","261","739394","0.0-24.0-0.2","","","","passed","","","","","","","","","","","","","","","","","ballFalling","604.4000000000001","575.4211431702997","266.76","12","fallScene","false","","","","99","",""
"","","","","","html-keyboard-response","262","742398","0.0-24.0-1.2","","","","passed","","2297","","","","","","","","","","","","","","f","yesOrNo","","","","12","","","lp","3000","","99","603.4000000000001","151"
"","","","","","html-keyboard-response","263","744194","0.0-24.0-0.3","","","","passed","","","","","","","","","","","","","","","","","ballFalling","322.3","308.07114317029976","253.89","2","fallScene","false","","","","100","",""
"","","","","","html-keyboard-response","264","747198","0.0-24.0-1.3","","","","passed","","2106","","","","","","","","","","","","","","f","yesOrNo","","","","2","","","mid","3000","","100","321.3","300"
"","","","","","html-keyboard-response","265","749227","0.0-24.0-0.4","","","","passed","","","","","","","","","","","","","","","","","ballFalling","604.4000000000001","596.8711431702998","394.5","10","fallScene","false","","","","101","",""
"","","","","","html-keyboard-response","266","752231","0.0-24.0-1.4","","","","passed","","2279","","","","","","","","","","","","","","f","yesOrNo","","","","10","","","lp","3000","","101","603.4000000000001","215.50214355555383"
"","","","","","html-keyboard-response","267","753726","0.0-24.0-0.5","","","","passed","","","","","","","","","","","","","","","","","ballFalling","604.4000000000001","667.6211431702998","201.78","9","fallScene","false","","","","102","",""
"","","","","","html-keyboard-response","268","756731","0.0-24.0-1.5","","","","passed","","938","","","","","","","","","","","","","","f","yesOrNo","","","","9","","","lp","3000","","102","605.4000000000001","151"
"","","","","","html-keyboard-response","269","758294","0.0-24.0-0.6","","","","passed","","","","","","","","","","","","","","","","","ballFalling","322.3","296.07114317029976","371.46","3","fallScene","true","","","","103","",""
"","","","","","html-keyboard-response","270","761298","0.0-24.0-1.6","","","","passed","","1773","","","","","","","","","","","","","","f","yesOrNo","","","","3","","","lp","3000","","103","321.3","287.3327096511259"
"","","","","","html-keyboard-response","271","762860","0.0-24.0-0.7","","","","passed","","","","","","","","","","","","","","","","","ballFalling","500","453.67114317029973","210.33","5","fallScene","true","","","","104","",""
"","","","","","html-keyboard-response","272","765864","0.0-24.0-1.7","","","","passed","","2074","","","","","","","","","","","","","","f","yesOrNo","","","","5","","","lp","3000","","104","499","151"
"","","","","","html-keyboard-response","273","767360","0.0-24.0-0.8","","","","passed","","","","","","","","","","","","","","","","","ballFalling","604.4000000000001","667.6211431702998","201.78","9","fallScene","true","","","","105","",""
"","","","","","html-keyboard-response","274","770364","0.0-24.0-1.8","","","","passed","","1778","","","","","","","","","","","","","","f","yesOrNo","","","","9","","","lp","3000","","105","605.4000000000001","151"
"","","","","","html-keyboard-response","275","771927","0.0-24.0-0.9","","","","passed","","","","","","","","","","","","","","","","","ballFalling","322.3","356.42114317029973","357.87","4","fallScene","false","","","","106","",""
"","","","","","html-keyboard-response","276","774932","0.0-24.0-1.9","","","","passed","","983","","","","","","","","","","","","","","j","yesOrNo","","","","4","","","mid","3000","","106","390.27114317029975","300"
"","","","","","html-keyboard-response","277","776494","0.0-24.0-0.10","","","","passed","","","","","","","","","","","","","","","","","ballFalling","604.4000000000001","650.0211431702996","404.58000000000004","11","fallScene","false","","","","107","",""
"","","","","","html-keyboard-response","278","779499","0.0-24.0-1.10","","","","passed","","1202","","","","","","","","","","","","","","f","yesOrNo","","","","11","","","mid","3000","","107","605.4000000000001","300"
"","","","","","html-keyboard-response","279","781060","0.0-24.0-0.11","","","","passed","","","","","","","","","","","","","","","","","ballFalling","500","453.67114317029973","210.33","5","fallScene","false","","","","108","",""
"","","","","","html-keyboard-response","280","784064","0.0-24.0-1.11","","","","passed","","2334","","","","","","","","","","","","","","f","yesOrNo","","","","5","","","mid","3000","","108","499","300"
"","","","","","html-keyboard-response","281","785627","0.0-24.0-0.12","","","","passed","","","","","","","","","","","","","","","","","ballFalling","500","453.67114317029973","210.33","5","fallScene","true","","","","109","",""
"","","","","","html-keyboard-response","282","788632","0.0-24.0-1.12","","","","passed","","1220","","","","","","","","","","","","","","j","yesOrNo","","","","5","","","gt","3000","","109","453.6711431702998","210.33"
"","","","","","html-keyboard-response","283","790661","0.0-24.0-0.13","","","","passed","","","","","","","","","","","","","","","","","ballFalling","604.4000000000001","596.8711431702998","394.5","10","fallScene","false","","","","110","",""
"","","","","","html-keyboard-response","284","793665","0.0-24.0-1.13","","","","passed","","1582","","","","","","","","","","","","","","f","yesOrNo","","","","10","","","gt","3000","","110","596.8711431702998","394.5"
"","","","","","html-keyboard-response","285","795228","0.0-24.0-0.14","","","","passed","","","","","","","","","","","","","","","","","ballFalling","322.3","356.42114317029973","357.87","4","fallScene","true","","","","111","",""
"","","","","","html-keyboard-response","286","798232","0.0-24.0-1.14","","","","passed","","2233","","","","","","","","","","","","","","j","yesOrNo","","","","4","","","gt","3000","","111","356.42114317029973","357.87"
"","","","","","html-keyboard-response","287","799794","0.0-24.0-0.15","","","","passed","","","","","","","","","","","","","","","","","ballFalling","322.3","379.3711431702997","245.25","1","fallScene","true","","","","112","",""
"","","","","","html-keyboard-response","288","802797","0.0-24.0-1.15","","","","passed","","1935","","","","","","","","","","","","","","f","yesOrNo","","","","1","","","gt","3000","","112","379.3711431702997","245.25"
"","","","","","html-keyboard-response","289","804827","0.0-24.0-0.16","","","","passed","","","","","","","","","","","","","","","","","ballFalling","604.4000000000001","596.8711431702998","394.5","10","fallScene","false","","","","113","",""
"","","","","","html-keyboard-response","290","807832","0.0-24.0-1.16","","","","passed","","2252","","","","","","","","","","","","","","f","yesOrNo","","","","10","","","lp","3000","","113","603.4000000000001","215.50214355555383"
"","","","","","html-keyboard-response","291","809627","0.0-24.0-0.17","","","","passed","","","","","","","","","","","","","","","","","ballFalling","322.3","308.07114317029976","253.89","2","fallScene","true","","","","114","",""
"","","","","","html-keyboard-response","292","812631","0.0-24.0-1.17","","","","passed","","2475","","","","","","","","","","","","","","f","yesOrNo","","","","2","","","lp","3000","","114","321.3","151"
"","","","","","html-keyboard-response","293","814194","0.0-24.0-0.18","","","","passed","","","","","","","","","","","","","","","","","ballFalling","322.3","296.07114317029976","371.46","3","fallScene","true","","","","115","",""
"","","","","","html-keyboard-response","294","817199","0.0-24.0-1.18","","","","passed","","1790","","","","","","","","","","","","","","f","yesOrNo","","","","3","","","lp","3000","","115","321.3","287.3327096511259"
"","","","","","html-keyboard-response","295","818760","0.0-24.0-0.19","","","","passed","","","","","","","","","","","","","","","","","ballFalling","322.3","379.3711431702997","245.25","1","fallScene","false","","","","116","",""
"","","","","","html-keyboard-response","296","821764","0.0-24.0-1.19","","","","passed","","873","","","","","","","","","","","","","","j","yesOrNo","","","","1","","","gt","3000","","116","379.3711431702997","245.25"
"","","","","","html-keyboard-response","297","823327","0.0-24.0-0.20","","","","passed","","","","","","","","","","","","","","","","","ballFalling","322.3","356.42114317029973","357.87","4","fallScene","false","","","","117","",""
"","","","","","html-keyboard-response","298","826331","0.0-24.0-1.20","","","","passed","","1786","","","","","","","","","","","","","","j","yesOrNo","","","","4","","","gt","3000","","117","356.42114317029973","357.87"
"","","","","","html-keyboard-response","299","827893","0.0-24.0-0.21","","","","passed","","","","","","","","","","","","","","","","","ballFalling","604.4000000000001","575.4211431702997","266.76","12","fallScene","false","","","","118","",""
"","","","","","html-keyboard-response","300","830898","0.0-24.0-1.21","","","","passed","","1348","","","","","","","","","","","","","","j","yesOrNo","","","","12","","","mid","3000","","118","536.4288568297004","300"
"","","","","","html-keyboard-response","301","832494","0.0-24.0-0.22","","","","passed","","","","","","","","","","","","","","","","","ballFalling","500","553.4711431702997","282.51","7","fallScene","false","","","","119","",""
"","","","","","html-keyboard-response","302","835498","0.0-24.0-1.22","","","","passed","","2637","","","","","","","","","","","","","","f","yesOrNo","","","","7","","","mid","3000","","119","501","300"
"","","","","","html-keyboard-response","303","837061","0.0-24.0-0.23","","","","passed","","","","","","","","","","","","","","","","","ballFalling","604.4000000000001","650.0211431702996","404.58000000000004","11","fallScene","false","","","","120","",""
"","","","","","html-keyboard-response","304","840065","0.0-24.0-1.23","","","","passed","","1699","","","","","","","","","","","","","","j","yesOrNo","","","","11","","","gt","3000","","120","650.0211431702996","404.58"
"","","","","","html-keyboard-response","305","841455","0.0-25.0","","","","passed","","1388","","","","","","","","","","","","","<p><span style=""font-size:40px;"">BLOCK 6</span></p><p><span style=""font-size:25px;"">You have <b style=""color: #FF644F;""><strong>3 second(s)</strong></b> to respond to the following trials.</span><br></p><p></p> <!-- Blank line -->
                <p id=""blinking-text"" style=""font-weight; animation: blink 2s infinite;"">Press Space to continue</p>
                <style>
                    @keyframes blink {
                        50% {
                            opacity: 0;
                        }
                    }
                </style></p>"," ","","","","","","","","","","","","",""
"","","","","","html-keyboard-response","306","843228","0.0-26.0-0.0","","","","passed","","","","","","","","","","","","","","","","","ballFalling","322.3","308.07114317029976","253.89","2","fallScene","true","","","","121","",""
"","","","","","html-keyboard-response","307","846233","0.0-26.0-1.0","","","","passed","","1367","","","","","","","","","","","","","","j","yesOrNo","","","","2","","","gt","3000","","121","308.07114317029976","253.89"
"","","","","","html-keyboard-response","308","847794","0.0-26.0-0.1","","","","passed","","","","","","","","","","","","","","","","","ballFalling","322.3","379.3711431702997","245.25","1","fallScene","true","","","","122","",""
"","","","","","html-keyboard-response","309","850799","0.0-26.0-1.1","","","","passed","","999","","","","","","","","","","","","","","f","yesOrNo","","","","1","","","lp","3000","","122","323.3","217.74551669457017"
"","","","","","html-keyboard-response","310","852828","0.0-26.0-0.2","","","","passed","","","","","","","","","","","","","","","","","ballFalling","500","510.8711431702997","369.03","8","fallScene","true","","","","123","",""
"","","","","","html-keyboard-response","311","855831","0.0-26.0-1.2","","","","passed","","1560","","","","","","","","","","","","","","j","yesOrNo","","","","8","","","gt","3000","","123","510.8711431702997","369.03"
"","","","","","html-keyboard-response","312","857861","0.0-26.0-0.3","","","","passed","","","","","","","","","","","","","","","","","ballFalling","604.4000000000001","596.8711431702998","394.5","10","fallScene","false","","","","124","",""
"","","","","","html-keyboard-response","313","860865","0.0-26.0-1.3","","","","passed","","1990","","","","","","","","","","","","","","f","yesOrNo","","","","10","","","gt","3000","","124","596.8711431702998","394.5"
"","","","","","html-keyboard-response","314","862662","0.0-26.0-0.4","","","","passed","","","","","","","","","","","","","","","","","ballFalling","322.3","308.07114317029976","253.89","2","fallScene","true","","","","125","",""
"","","","","","html-keyboard-response","315","865665","0.0-26.0-1.4","","","","passed","","2360","","","","","","","","","","","","","","f","yesOrNo","","","","2","","","lp","3000","","125","321.3","151"
"","","","","","html-keyboard-response","316","867227","0.0-26.0-0.5","","","","passed","","","","","","","","","","","","","","","","","ballFalling","322.3","356.42114317029973","357.87","4","fallScene","true","","","","126","",""
"","","","","","html-keyboard-response","317","870231","0.0-26.0-1.5","","","","passed","","2403","","","","","","","","","","","","","","j","yesOrNo","","","","4","","","lp","3000","","126","323.3","297.4070551689986"
"","","","","","html-keyboard-response","318","871728","0.0-26.0-0.6","","","","passed","","","","","","","","","","","","","","","","","ballFalling","604.4000000000001","667.6211431702998","201.78","9","fallScene","false","","","","127","",""
"","","","","","html-keyboard-response","319","874732","0.0-26.0-1.6","","","","passed","","2626","","","","","","","","","","","","","","f","yesOrNo","","","","9","","","gt","3000","","127","667.6211431702998","201.78"
"","","","","","html-keyboard-response","320","876295","0.0-26.0-0.7","","","","passed","","","","","","","","","","","","","","","","","ballFalling","604.4000000000001","575.4211431702997","266.76","12","fallScene","false","","","","128","",""
"","","","","","html-keyboard-response","321","879299","0.0-26.0-1.7","","","","passed","","1351","","","","","","","","","","","","","","j","yesOrNo","","","","12","","","gt","3000","","128","575.4211431702997","266.76"
"","","","","","html-keyboard-response","322","880962","0.0-26.0-0.8","","","","passed","","","","","","","","","","","","","","","","","ballFalling","500","479.92114317029973","330.87","6","fallScene","true","","","","129","",""
"","","","","","html-keyboard-response","323","883966","0.0-26.0-1.8","","","","passed","","2067","","","","","","","","","","","","","","f","yesOrNo","","","","6","","","mid","3000","","129","499","300"
"","","","","","html-keyboard-response","324","885994","0.0-26.0-0.9","","","","passed","","","","","","","","","","","","","","","","","ballFalling","604.4000000000001","596.8711431702998","394.5","10","fallScene","false","","","","130","",""
"","","","","","html-keyboard-response","325","888998","0.0-26.0-1.9","","","","passed","","1338","","","","","","","","","","","","","","j","yesOrNo","","","","10","","","mid","3000","","130","536.4288568297004","300"
"","","","","","html-keyboard-response","326","890561","0.0-26.0-0.10","","","","passed","","","","","","","","","","","","","","","","","ballFalling","322.3","379.3711431702997","245.25","1","fallScene","false","","","","131","",""
"","","","","","html-keyboard-response","327","893566","0.0-26.0-1.10","","","","passed","","1777","","","","","","","","","","","","","","f","yesOrNo","","","","1","","","lp","3000","","131","323.3","217.74551669457017"
"","","","","","html-keyboard-response","328","895129","0.0-26.0-0.11","","","","passed","","","","","","","","","","","","","","","","","ballFalling","322.3","296.07114317029976","371.46","3","fallScene","false","","","","132","",""
"","","","","","html-keyboard-response","329","898133","0.0-26.0-1.11","","","","passed","","1552","","","","","","","","","","","","","","j","yesOrNo","","","","3","","","gt","3000","","132","296.07114317029976","371.46"
"","","","","","html-keyboard-response","330","900162","0.0-26.0-0.12","","","","passed","","","","","","","","","","","","","","","","","ballFalling","500","510.8711431702997","369.03","8","fallScene","false","","","","133","",""
"","","","","","html-keyboard-response","331","903165","0.0-26.0-1.12","","","","passed","","2185","","","","","","","","","","","","","","f","yesOrNo","","","","8","","","mid","3000","","133","501","300"
"","","","","","html-keyboard-response","332","904728","0.0-26.0-0.13","","","","passed","","","","","","","","","","","","","","","","","ballFalling","500","453.67114317029973","210.33","5","fallScene","true","","","","134","",""
"","","","","","html-keyboard-response","333","907733","0.0-26.0-1.13","","","","passed","","1209","","","","","","","","","","","","","","j","yesOrNo","","","","5","","","gt","3000","","134","453.6711431702998","210.33"
"","","","","","html-keyboard-response","334","909294","0.0-26.0-0.14","","","","passed","","","","","","","","","","","","","","","","","ballFalling","500","453.67114317029973","210.33","5","fallScene","false","","","","135","",""
"","","","","","html-keyboard-response","335","912300","0.0-26.0-1.14","","","","passed","","1334","","","","","","","","","","","","","","j","yesOrNo","","","","5","","","mid","3000","","135","499","300"
"","","","","","html-keyboard-response","336","914329","0.0-26.0-0.15","","","","passed","","","","","","","","","","","","","","","","","ballFalling","500","510.8711431702997","369.03","8","fallScene","true","","","","136","",""
"","","","","","html-keyboard-response","337","917333","0.0-26.0-1.15","","","","passed","","1774","","","","","","","","","","","","","","f","yesOrNo","","","","8","","","lp","3000","","136","501","151"
"","","","","","html-keyboard-response","338","918895","0.0-26.0-0.16","","","","passed","","","","","","","","","","","","","","","","","ballFalling","322.3","356.42114317029973","357.87","4","fallScene","true","","","","137","",""
"","","","","","html-keyboard-response","339","921899","0.0-26.0-1.16","","","","passed","","1238","","","","","","","","","","","","","","j","yesOrNo","","","","4","","","mid","3000","","137","390.27114317029975","300"
"","","","","","html-keyboard-response","340","923928","0.0-26.0-0.17","","","","passed","","","","","","","","","","","","","","","","","ballFalling","500","510.8711431702997","369.03","8","fallScene","false","","","","138","",""
"","","","","","html-keyboard-response","341","926932","0.0-26.0-1.17","","","","passed","","802","","","","","","","","","","","","","","f","yesOrNo","","","","8","","","lp","3000","","138","501","151"
"","","","","","html-keyboard-response","342","928495","0.0-26.0-0.18","","","","passed","","","","","","","","","","","","","","","","","ballFalling","604.4000000000001","650.0211431702996","404.58000000000004","11","fallScene","true","","","","139","",""
"","","","","","html-keyboard-response","343","931499","0.0-26.0-1.18","","","","passed","","2778","","","","","","","","","","","","","","f","yesOrNo","","","","11","","","lp","3000","","139","605.4000000000001","372.6340973215488"
"","","","","","html-keyboard-response","344","933528","0.0-26.0-0.19","","","","passed","","","","","","","","","","","","","","","","","ballFalling","604.4000000000001","596.8711431702998","394.5","10","fallScene","false","","","","140","",""
"","","","","","html-keyboard-response","345","936532","0.0-26.0-1.19","","","","passed","","1882","","","","","","","","","","","","","","f","yesOrNo","","","","10","","","mid","3000","","140","536.4288568297004","300"
"","","","","","html-keyboard-response","346","938095","0.0-26.0-0.20","","","","passed","","","","","","","","","","","","","","","","","ballFalling","604.4000000000001","650.0211431702996","404.58000000000004","11","fallScene","false","","","","141","",""
"","","","","","html-keyboard-response","347","941101","0.0-26.0-1.20","","","","passed","","1127","","","","","","","","","","","","","","j","yesOrNo","","","","11","","","gt","3000","","141","650.0211431702996","404.58"
"","","","","","html-keyboard-response","348","943128","0.0-26.0-0.21","","","","passed","","","","","","","","","","","","","","","","","ballFalling","500","510.8711431702997","369.03","8","fallScene","false","","","","142","",""
"","","","","","html-keyboard-response","349","946132","0.0-26.0-1.21","","","","passed","","2141","","","","","","","","","","","","","","j","yesOrNo","","","","8","","","gt","3000","","142","510.8711431702997","369.03"
"","","","","","html-keyboard-response","350","947795","0.0-26.0-0.22","","","","passed","","","","","","","","","","","","","","","","","ballFalling","500","479.92114317029973","330.87","6","fallScene","false","","","","143","",""
"","","","","","html-keyboard-response","351","950801","0.0-26.0-1.22","","","","passed","","2268","","","","","","","","","","","","","","j","yesOrNo","","","","6","","","gt","3000","","143","479.9211431702998","330.87"
"","","","","","html-keyboard-response","352","952362","0.0-26.0-0.23","","","","passed","","","","","","","","","","","","","","","","","ballFalling","604.4000000000001","650.0211431702996","404.58000000000004","11","fallScene","true","","","","144","",""
"","","","","","html-keyboard-response","353","955366","0.0-26.0-1.23","","","","passed","","2667","","","","","","","","","","","","","","f","yesOrNo","","","","11","","","mid","3000","","144","605.4000000000001","300"
"","","","","","survey-text","354","960879","0.0-27.0","","","","passed","","5502","","","","","","","","","","","","","","{""Summary"":""cindyTest_1_23""}","","","","","","","","","","","","",""
"","","","","","survey-text","355","971698","0.0-28.0","","","","passed","","10816","","","","","","","","","","","","","","{""Comments"":""hope this round goes well!""}","","","","","","","","","","","","",""
