"success","timeout","failed_images","failed_audio","failed_video","trial_type","trial_index","time_elapsed","internal_node_id","subject_id","study_id","session_id","practiceTestResult","view_history","rt","width","height","webaudio","browser","browser_version","mobile","os","fullscreen","vsync_rate","webcam","microphone","url","stimulus","response","task","ball_X","obstacle_groundTruth_x","obstacle_groundTruth_y","stimulus_idx","trial_name","flipped","choice","timeLimit","question_order","comprehensionCheck","currentTrial","obstacle_choice_x","obstacle_choice_y"
"true","false","[]","[]","[]","preload","0","148","0.0-0.0","5e5dba9e3d60470d71dde9ef","6790928bebf0b969fc839b02","6798275644cc9476fcb60f5f","passed","","","","","","","","","","","","","","","","","","","","","","","","","","","","","",""
"","","","","","instructions","1","48852","0.0-1.0","5e5dba9e3d60470d71dde9ef","6790928bebf0b969fc839b02","6798275644cc9476fcb60f5f","passed","[{""page_index"":0,""viewing_time"":48703}]","48704","","","","","","","","","","","","","","","","","","","","","","","","","","","",""
"","","","","","browser-check","2","49347","0.0-2.0","5e5dba9e3d60470d71dde9ef","6790928bebf0b969fc839b02","6798275644cc9476fcb60f5f","passed","","","1512","863","true","chrome","132.0.0","false","Mac OS","true","122.35","true","true","","","","","","","","","","","","","","","","",""
"","","","","","external-html","3","55615","0.0-3.0","5e5dba9e3d60470d71dde9ef","6790928bebf0b969fc839b02","6798275644cc9476fcb60f5f","passed","","6172","","","","","","","","","","","","consent.html","","","","","","","","","","","","","","","",""
"true","","","","","fullscreen","4","83557","0.0-4.0","5e5dba9e3d60470d71dde9ef","6790928bebf0b969fc839b02","6798275644cc9476fcb60f5f","passed","","27638","","","","","","","","","","","","","","","","","","","","","","","","","","","",""
"","","","","","browser-check","5","84060","0.0-5.0","5e5dba9e3d60470d71dde9ef","6790928bebf0b969fc839b02","6798275644cc9476fcb60f5f","passed","","","1512","945","true","chrome","132.0.0","false","Mac OS","true","119.86","true","true","","","","","","","","","","","","","","","","",""
"","","","","","html-keyboard-response","6","91546","0.0-6.0","5e5dba9e3d60470d71dde9ef","6790928bebf0b969fc839b02","6798275644cc9476fcb60f5f","passed","","7485","","","","","","","","","","","","","<p><b>This experiment requires keyboard input.</b></p> 
        <p><b>To ensure your response will be recorded successfully, please press 'Space' to continue.</b></p>
        <p>If you can't proceed, you won't be able to complete this study.</p>
        <p></p> <!-- Blank line -->
        <p id=""blinking-text"" style=""font-weight; animation: blink 2s infinite;"">Press Space to continue</p>
        <style>
            @keyframes blink {
                50% {
                    opacity: 0;
                }
            }
        </style>"," ","","","","","","","","","","","","","",""
"","","","","","html-keyboard-response","7","93345","0.0-7.0","5e5dba9e3d60470d71dde9ef","6790928bebf0b969fc839b02","6798275644cc9476fcb60f5f","passed","","1798","","","","","","","","","","","","","<p><b>This experiment requires keyboard input.</b></p> 
        <p><b>To ensure your response will be recorded successfully, please press the 'f' key to continue.</b></p>
        <p>If you can't proceed, you won't be able to complete this study.</p>
        <p></p> <!-- Blank line -->
        <p id=""blinking-text"" style=""font-weight; animation: blink 2s infinite;"">Press f to continue</p>
        <style>
            @keyframes blink {
                50% {
                    opacity: 0;
                }
            }
        </style>","f","","","","","","","","","","","","","",""
"","","","","","html-keyboard-response","8","94809","0.0-8.0","5e5dba9e3d60470d71dde9ef","6790928bebf0b969fc839b02","6798275644cc9476fcb60f5f","passed","","1463","","","","","","","","","","","","","<p><b>This experiment requires keyboard input.</b></p> 
        <p><b>To ensure your response will be recorded successfully, please press the 'j' key to continue.</b></p>
        <p>If you can't proceed, you won't be able to complete this study.</p>
        <p></p> <!-- Blank line -->
        <p id=""blinking-text"" style=""font-weight; animation: blink 2s infinite;"">Press j to continue</p>
        <style>
            @keyframes blink {
                50% {
                    opacity: 0;
                }
            }
        </style>","j","","","","","","","","","","","","","",""
"","","","","","browser-check","9","95311","0.0-9.0","5e5dba9e3d60470d71dde9ef","6790928bebf0b969fc839b02","6798275644cc9476fcb60f5f","passed","","","1512","945","true","chrome","132.0.0","false","Mac OS","true","120.19","true","true","","","","","","","","","","","","","","","","",""
"","","","","","survey-text","10","100047","0.0-10.0","5e5dba9e3d60470d71dde9ef","6790928bebf0b969fc839b02","6798275644cc9476fcb60f5f","passed","","4730","","","","","","","","","","","","","","{""prolificID"":""5e5dba9e3d60470d71dde9ef""}","","","","","","","","","","","","","",""
"","","","","","instructions","11","214643","0.0-11.0-0.0-0.0","5e5dba9e3d60470d71dde9ef","6790928bebf0b969fc839b02","6798275644cc9476fcb60f5f","passed","[{""page_index"":0,""viewing_time"":25574},{""page_index"":1,""viewing_time"":68890},{""page_index"":2,""viewing_time"":7717},{""page_index"":3,""viewing_time"":12414}]","114595","","","","","","","","","","","","","","","","","","","","","","","","","","","",""
"","","","","","html-keyboard-response","12","240497","0.0-11.0-0.0-1.0","5e5dba9e3d60470d71dde9ef","6790928bebf0b969fc839b02","6798275644cc9476fcb60f5f","passed","","25347","","","","","","","","","","","","","<br>Remember! After a ball falls, the screen will disappear, and you'll decide if the proposed position is where the hidden triangle was. <br>You will now practice this by watching a few videos and making decisions.<p>To respond:<br style=""margin-bottom: 5px; text-indent: -20px; padding-left: 20px;"">- Press <b style=""color: #12AD2B;"">J for Yes</b>, if you think the triangle is in the correct position.<br style=""margin-top: 0; text-indent: -20px; padding-left: 20px;"">- Press <b style=""color: orange;"">F for No</b>, if you think the triangle is not in the correct position.</p><p>In this practice round, there is no time limit. Focus on getting comfortable with the task first.<br>Press either J or F to begin your practice trials.</p><img src = ""YesOrNo_instruction.png"" style=""width: 65%;""></img>","f","","","","","","","","","","","","","",""
"","","","","","html-keyboard-response","13","242157","0.0-11.0-0.0-2.0-0.0","5e5dba9e3d60470d71dde9ef","6790928bebf0b969fc839b02","6798275644cc9476fcb60f5f","passed","","","","","","","","","","","","","","","","","ballFalling_prac","416","464","296","1","fallScene","false","","","","","","",""
"","","","","","html-keyboard-response","14","245214","0.0-11.0-0.0-2.0-1.0","5e5dba9e3d60470d71dde9ef","6790928bebf0b969fc839b02","6798275644cc9476fcb60f5f","passed","","3054","","","","","","","","","","","","","","j","yesOrNo_prac_noTimed","","","","1","","","gt","NA","","","","",""
"","","","","","html-keyboard-response","15","246788","0.0-11.0-0.0-2.0-0.1","5e5dba9e3d60470d71dde9ef","6790928bebf0b969fc839b02","6798275644cc9476fcb60f5f","passed","","","","","","","","","","","","","","","","","ballFalling_prac","441","414","302","5","fallScene","true","","","","","","",""
"","","","","","html-keyboard-response","16","249232","0.0-11.0-0.0-2.0-1.1","5e5dba9e3d60470d71dde9ef","6790928bebf0b969fc839b02","6798275644cc9476fcb60f5f","passed","","2440","","","","","","","","","","","","","","j","yesOrNo_prac_noTimed","","","","5","","","close gt","NA","","","","",""
"","","","","","html-keyboard-response","17","251336","0.0-11.0-0.0-2.0-0.2","5e5dba9e3d60470d71dde9ef","6790928bebf0b969fc839b02","6798275644cc9476fcb60f5f","passed","","","","","","","","","","","","","","","","","ballFalling_prac","660","666","350","3","fallScene","false","","","","","","",""
"","","","","","html-keyboard-response","18","254074","0.0-11.0-0.0-2.0-1.2","5e5dba9e3d60470d71dde9ef","6790928bebf0b969fc839b02","6798275644cc9476fcb60f5f","passed","","2732","","","","","","","","","","","","","","j","yesOrNo_prac_noTimed","","","","3","","","wrong direction","NA","","","","",""
"","","","","","instructions","19","291522","0.0-11.0-0.0-3.0","5e5dba9e3d60470d71dde9ef","6790928bebf0b969fc839b02","6798275644cc9476fcb60f5f","passed","[{""page_index"":0,""viewing_time"":23173},{""page_index"":1,""viewing_time"":14273}]","37446","","","","","","","","","","","","","","","","","","","","","","","","","","","",""
"","","","","","html-button-response","20","295210","0.0-11.0-0.0-4.0","5e5dba9e3d60470d71dde9ef","6790928bebf0b969fc839b02","6798275644cc9476fcb60f5f","passed","","3185","","","","","","","","","","","","","<p>To make sure you understood the task, we just have a <b>brief quiz</b> here.</p><p>If you need to review the instructions, click 'Previous'.</p><p>It's important to understand the task to do the study, so you have to pass the quiz to move to the study.</p>","1","","","","","","","","","","","","","",""
"","","","","","survey-multi-choice","21","315157","0.0-11.0-1.0-0.0","5e5dba9e3d60470d71dde9ef","6790928bebf0b969fc839b02","6798275644cc9476fcb60f5f","passed","","19945","","","","","","","","","","","","","","{""generalProcedure"":""Watch a video of a ball falling, some of it behind a gray screen. After each video, decide if the triangle is at the spot where the ball hit the triangle behind the screen. There is time limit for the response.""}","","","","","","","","","","[0]","","","",""
"","","","","","survey-multi-choice","22","320222","0.0-11.0-1.0-1.0","5e5dba9e3d60470d71dde9ef","6790928bebf0b969fc839b02","6798275644cc9476fcb60f5f","passed","","5064","","","","","","","","","","","","","","{""checkBallHitObstacle"":""Yes.""}","","","","","","","","","","[0]","","","",""
"","","","","","survey-multi-choice","23","323584","0.0-11.0-1.0-2.0","5e5dba9e3d60470d71dde9ef","6790928bebf0b969fc839b02","6798275644cc9476fcb60f5f","passed","","3361","","","","","","","","","","","","","","{""checkTriangleVisibility"":""No, the triangle is hidden behind the gray screen.""}","","","","","","","","","","[0]","","","",""
"","","","","","survey-multi-choice","24","328568","0.0-11.0-1.0-3.0","5e5dba9e3d60470d71dde9ef","6790928bebf0b969fc839b02","6798275644cc9476fcb60f5f","passed","","4983","","","","","","","","","","","","","","{""checkTimedResponse"":""Your response will not be recorded, and the trial will move to the next one.""}","","","","","","","","","","[0]","","","",""
"","","","","","survey-multi-choice","25","340139","0.0-11.0-1.0-4.0","5e5dba9e3d60470d71dde9ef","6790928bebf0b969fc839b02","6798275644cc9476fcb60f5f","passed","","11569","","","","","","","","","","","","","","{""checkTimeBlockNotice"":""Before every individual trial.""}","","","","","","","","","","[0]","","","",""
"","","","","","survey-multi-choice","26","358960","0.0-11.0-1.0-5.0","5e5dba9e3d60470d71dde9ef","6790928bebf0b969fc839b02","6798275644cc9476fcb60f5f","passed","","18820","","","","","","","","","","","","","","{""checkTimeBlockSameness"":""Yes, the time limit is the same for all trials within a block.""}","","","","","","","","","","[0]","","","",""
"","","","","","survey-multi-choice","27","382752","0.0-11.0-1.0-6.0","5e5dba9e3d60470d71dde9ef","6790928bebf0b969fc839b02","6798275644cc9476fcb60f5f","passed","","23790","","","","","","","","","","","","","","{""checkTrianglePrecision"":""No. The proposed purple triangle is not in the correct position because it doesn't match the location of the white triangle exactly.""}","","","","","","","","","","[0]","","","",""
"","","","","","html-button-response","28","385122","0.0-11.0-2.0-0.0","5e5dba9e3d60470d71dde9ef","6790928bebf0b969fc839b02","6798275644cc9476fcb60f5f","passed","","2368","","","","","","","","","","","","","<p>Oops! You did not pass the quiz.</p><p>You will now repeat the instructions and practice.</p>","0","","","","","","","","","","","failed","","",""
"","","","","","instructions","29","444043","0.0-11.1-0.1-0.1","5e5dba9e3d60470d71dde9ef","6790928bebf0b969fc839b02","6798275644cc9476fcb60f5f","passed","[{""page_index"":0,""viewing_time"":32592},{""page_index"":1,""viewing_time"":13687},{""page_index"":2,""viewing_time"":4249},{""page_index"":3,""viewing_time"":8392}]","58920","","","","","","","","","","","","","","","","","","","","","","","","","","","",""
"","","","","","html-keyboard-response","30","452131","0.0-11.1-0.1-1.1","5e5dba9e3d60470d71dde9ef","6790928bebf0b969fc839b02","6798275644cc9476fcb60f5f","passed","","7583","","","","","","","","","","","","","<br>Remember! After a ball falls, the screen will disappear, and you'll decide if the proposed position is where the hidden triangle was. <br>You will now practice this by watching a few videos and making decisions.<p>To respond:<br style=""margin-bottom: 5px; text-indent: -20px; padding-left: 20px;"">- Press <b style=""color: #12AD2B;"">J for Yes</b>, if you think the triangle is in the correct position.<br style=""margin-top: 0; text-indent: -20px; padding-left: 20px;"">- Press <b style=""color: orange;"">F for No</b>, if you think the triangle is not in the correct position.</p><p>In this practice round, there is no time limit. Focus on getting comfortable with the task first.<br>Press either J or F to begin your practice trials.</p><img src = ""YesOrNo_instruction.png"" style=""width: 65%;""></img>","f","","","","","","","","","","","","","",""
"","","","","","html-keyboard-response","31","453711","0.0-11.1-0.1-2.1-0.3","5e5dba9e3d60470d71dde9ef","6790928bebf0b969fc839b02","6798275644cc9476fcb60f5f","passed","","","","","","","","","","","","","","","","","ballFalling_prac","441","414","302","5","fallScene","true","","","","","","",""
"","","","","","html-keyboard-response","32","457737","0.0-11.1-0.1-2.1-1.3","5e5dba9e3d60470d71dde9ef","6790928bebf0b969fc839b02","6798275644cc9476fcb60f5f","passed","","4023","","","","","","","","","","","","","","f","yesOrNo_prac_noTimed","","","","5","","","close gt","NA","","","","",""
"","","","","","html-keyboard-response","33","459287","0.0-11.1-0.1-2.1-0.4","5e5dba9e3d60470d71dde9ef","6790928bebf0b969fc839b02","6798275644cc9476fcb60f5f","passed","","","","","","","","","","","","","","","","","ballFalling_prac","416","464","296","1","fallScene","false","","","","","","",""
"","","","","","html-keyboard-response","34","460575","0.0-11.1-0.1-2.1-1.4","5e5dba9e3d60470d71dde9ef","6790928bebf0b969fc839b02","6798275644cc9476fcb60f5f","passed","","1286","","","","","","","","","","","","","","j","yesOrNo_prac_noTimed","","","","1","","","gt","NA","","","","",""
"","","","","","html-keyboard-response","35","462680","0.0-11.1-0.1-2.1-0.5","5e5dba9e3d60470d71dde9ef","6790928bebf0b969fc839b02","6798275644cc9476fcb60f5f","passed","","","","","","","","","","","","","","","","","ballFalling_prac","660","666","350","3","fallScene","false","","","","","","",""
"","","","","","html-keyboard-response","36","465129","0.0-11.1-0.1-2.1-1.5","5e5dba9e3d60470d71dde9ef","6790928bebf0b969fc839b02","6798275644cc9476fcb60f5f","passed","","2445","","","","","","","","","","","","","","f","yesOrNo_prac_noTimed","","","","3","","","wrong direction","NA","","","","",""
"","","","","","instructions","37","498527","0.0-11.1-0.1-3.1","5e5dba9e3d60470d71dde9ef","6790928bebf0b969fc839b02","6798275644cc9476fcb60f5f","passed","[{""page_index"":0,""viewing_time"":30752},{""page_index"":1,""viewing_time"":2646}]","33397","","","","","","","","","","","","","","","","","","","","","","","","","","","",""
"","","","","","html-button-response","38","501018","0.0-11.1-0.1-4.1","5e5dba9e3d60470d71dde9ef","6790928bebf0b969fc839b02","6798275644cc9476fcb60f5f","passed","","1987","","","","","","","","","","","","","<p>To make sure you understood the task, we just have a <b>brief quiz</b> here.</p><p>If you need to review the instructions, click 'Previous'.</p><p>It's important to understand the task to do the study, so you have to pass the quiz to move to the study.</p>","1","","","","","","","","","","","","","",""
"","","","","","survey-multi-choice","39","508736","0.0-11.1-1.1-0.1","5e5dba9e3d60470d71dde9ef","6790928bebf0b969fc839b02","6798275644cc9476fcb60f5f","passed","","7717","","","","","","","","","","","","","","{""generalProcedure"":""Watch a video of a ball falling, some of it behind a gray screen. After each video, decide if the triangle is at the spot where the ball hit the triangle behind the screen. There is time limit for the response.""}","","","","","","","","","","[0]","","","",""
"","","","","","survey-multi-choice","40","512472","0.0-11.1-1.1-1.1","5e5dba9e3d60470d71dde9ef","6790928bebf0b969fc839b02","6798275644cc9476fcb60f5f","passed","","3735","","","","","","","","","","","","","","{""checkBallHitObstacle"":""Yes.""}","","","","","","","","","","[0]","","","",""
"","","","","","survey-multi-choice","41","515456","0.0-11.1-1.1-2.1","5e5dba9e3d60470d71dde9ef","6790928bebf0b969fc839b02","6798275644cc9476fcb60f5f","passed","","2983","","","","","","","","","","","","","","{""checkTriangleVisibility"":""No, the triangle is hidden behind the gray screen.""}","","","","","","","","","","[0]","","","",""
"","","","","","survey-multi-choice","42","518445","0.0-11.1-1.1-3.1","5e5dba9e3d60470d71dde9ef","6790928bebf0b969fc839b02","6798275644cc9476fcb60f5f","passed","","2988","","","","","","","","","","","","","","{""checkTimedResponse"":""Your response will not be recorded, and the trial will move to the next one.""}","","","","","","","","","","[0]","","","",""
"","","","","","survey-multi-choice","43","534294","0.0-11.1-1.1-4.1","5e5dba9e3d60470d71dde9ef","6790928bebf0b969fc839b02","6798275644cc9476fcb60f5f","passed","","15848","","","","","","","","","","","","","","{""checkTimeBlockNotice"":""At the beginning of each block.""}","","","","","","","","","","[0]","","","",""
"","","","","","survey-multi-choice","44","539983","0.0-11.1-1.1-5.1","5e5dba9e3d60470d71dde9ef","6790928bebf0b969fc839b02","6798275644cc9476fcb60f5f","passed","","5687","","","","","","","","","","","","","","{""checkTimeBlockSameness"":""Yes, the time limit is the same for all trials within a block.""}","","","","","","","","","","[0]","","","",""
"","","","","","survey-multi-choice","45","568545","0.0-11.1-1.1-6.1","5e5dba9e3d60470d71dde9ef","6790928bebf0b969fc839b02","6798275644cc9476fcb60f5f","passed","","28560","","","","","","","","","","","","","","{""checkTrianglePrecision"":""No. The proposed purple triangle is not in the correct position because it doesn't match the location of the white triangle exactly.""}","","","","","","","","","","[0]","","","",""
"","","","","","instructions","46","599183","0.0-12.0","5e5dba9e3d60470d71dde9ef","6790928bebf0b969fc839b02","6798275644cc9476fcb60f5f","passed","[{""page_index"":0,""viewing_time"":7182},{""page_index"":1,""viewing_time"":9507},{""page_index"":2,""viewing_time"":8234},{""page_index"":3,""viewing_time"":5713}]","30637","","","","","","","","","","","","","","","","","","","","","","","","","","","",""
"","","","","","instructions","47","606829","0.0-13.0-0.0","5e5dba9e3d60470d71dde9ef","6790928bebf0b969fc839b02","6798275644cc9476fcb60f5f","passed","[{""page_index"":0,""viewing_time"":7645}]","7645","","","","","","","","","","","","","","","","","","","","","","","","","","","",""
"","","","","","html-keyboard-response","48","609696","0.0-13.0-1.0","5e5dba9e3d60470d71dde9ef","6790928bebf0b969fc839b02","6798275644cc9476fcb60f5f","passed","","2866","","","","","","","","","","","","","<p><span style=""font-size:40px;"">Practice BLOCK 1</span></p><p><span style=""font-size:25px;"">You have <b style=""color: #FF644F;""><strong>3 second(s)</strong></b> to respond to the following trials.</span><br></p><p id=""blinking-text"" style=""font-weight; animation: blink 2s infinite;"">Press Space to continue</p><style>
                    @keyframes blink {
                        50% {
                            opacity: 0;
                        }
                    }
                </style>"," ","","","","","","","","","","","","","",""
"","","","","","html-keyboard-response","49","611255","0.0-13.0-2.0-0.0","5e5dba9e3d60470d71dde9ef","6790928bebf0b969fc839b02","6798275644cc9476fcb60f5f","passed","","","","","","","","","","","","","","","","","ballFalling_prac","416","464","296","1","fallScene","false","","","","","","",""
"","","","","","html-keyboard-response","50","614263","0.0-13.0-2.0-1.0","5e5dba9e3d60470d71dde9ef","6790928bebf0b969fc839b02","6798275644cc9476fcb60f5f","passed","","1356","","","","","","","","","","","","","","f","yesOrNo_prac","","","","1","","","far gt","3000","","","","",""
"","","","","","html-keyboard-response","51","615815","0.0-13.0-2.0-0.1","5e5dba9e3d60470d71dde9ef","6790928bebf0b969fc839b02","6798275644cc9476fcb60f5f","passed","","","","","","","","","","","","","","","","","ballFalling_prac","584","536","296","1","fallScene","true","","","","","","",""
"","","","","","html-keyboard-response","52","618822","0.0-13.0-2.0-1.1","5e5dba9e3d60470d71dde9ef","6790928bebf0b969fc839b02","6798275644cc9476fcb60f5f","passed","","1254","","","","","","","","","","","","","","j","yesOrNo_prac","","","","1","","","close gt","3000","","","","",""
"","","","","","html-keyboard-response","53","620398","0.0-13.0-2.0-0.2","5e5dba9e3d60470d71dde9ef","6790928bebf0b969fc839b02","6798275644cc9476fcb60f5f","passed","","","","","","","","","","","","","","","","","ballFalling_prac","660","610","263","4","fallScene","false","","","","","","",""
"","","","","","html-keyboard-response","54","623403","0.0-13.0-2.0-1.2","5e5dba9e3d60470d71dde9ef","6790928bebf0b969fc839b02","6798275644cc9476fcb60f5f","passed","","1867","","","","","","","","","","","","","","j","yesOrNo_prac","","","","4","","","gt","3000","","","","",""
"","","","","","html-keyboard-response","55","625466","0.0-13.0-3.0","5e5dba9e3d60470d71dde9ef","6790928bebf0b969fc839b02","6798275644cc9476fcb60f5f","passed","","2061","","","","","","","","","","","","","<p><span style=""font-size:40px;"">Practice BLOCK 2</span></p><p><span style=""font-size:25px;"">You have <b style=""color: #FF644F;""><strong>1 second(s)</strong></b> to respond to the following trials.</span><br></p><p id=""blinking-text"" style=""font-weight; animation: blink 2s infinite;"">Press Space to continue</p><style>
                    @keyframes blink {
                        50% {
                            opacity: 0;
                        }
                    }
                </style>"," ","","","","","","","","","","","","","",""
"","","","","","html-keyboard-response","56","627020","0.0-13.0-4.0-0.0","5e5dba9e3d60470d71dde9ef","6790928bebf0b969fc839b02","6798275644cc9476fcb60f5f","passed","","","","","","","","","","","","","","","","","ballFalling_prac","441","500","317","6","fallScene","true","","","","","","",""
"","","","","","html-keyboard-response","57","628023","0.0-13.0-4.0-1.0","5e5dba9e3d60470d71dde9ef","6790928bebf0b969fc839b02","6798275644cc9476fcb60f5f","passed","","515","","","","","","","","","","","","","","f","yesOrNo_prac","","","","6","","","gt","1000","","","","",""
"","","","","","html-keyboard-response","58","629594","0.0-13.0-4.0-0.1","5e5dba9e3d60470d71dde9ef","6790928bebf0b969fc839b02","6798275644cc9476fcb60f5f","passed","","","","","","","","","","","","","","","","","ballFalling_prac","660","610","263","4","fallScene","false","","","","","","",""
"","","","","","html-keyboard-response","59","630597","0.0-13.0-4.0-1.1","5e5dba9e3d60470d71dde9ef","6790928bebf0b969fc839b02","6798275644cc9476fcb60f5f","passed","","721","","","","","","","","","","","","","","j","yesOrNo_prac","","","","4","","","far gt","1000","","","","",""
"","","","","","html-keyboard-response","60","632703","0.0-13.0-4.0-0.2","5e5dba9e3d60470d71dde9ef","6790928bebf0b969fc839b02","6798275644cc9476fcb60f5f","passed","","","","","","","","","","","","","","","","","ballFalling_prac","340","334","350","3","fallScene","true","","","","","","",""
"","","","","","html-keyboard-response","61","633707","0.0-13.0-4.0-1.2","5e5dba9e3d60470d71dde9ef","6790928bebf0b969fc839b02","6798275644cc9476fcb60f5f","passed","","723","","","","","","","","","","","","","","j","yesOrNo_prac","","","","3","","","close gt","1000","","","","",""
"","","","","","instructions","62","738259","0.0-13.0-5.0","5e5dba9e3d60470d71dde9ef","6790928bebf0b969fc839b02","6798275644cc9476fcb60f5f","passed","[{""page_index"":0,""viewing_time"":104550}]","104551","","","","","","","","","","","","","","","","","","","","","","","","","","","",""
"","","","","","html-keyboard-response","63","740167","0.0-13.0-6.0","5e5dba9e3d60470d71dde9ef","6790928bebf0b969fc839b02","6798275644cc9476fcb60f5f","passed","","1907","","","","","","","","","","","","","<p><span style=""font-size:40px;"">Practice Test BLOCK 1</span></p><p><span style=""font-size:25px;"">You have <b style=""color: #FF644F;""><strong>1 second(s)</strong></b> to respond to the following trials.</span><br></p><p id=""blinking-text"" style=""font-weight; animation: blink 2s infinite;"">Press Space to continue</p><style>
                    @keyframes blink {
                        50% {
                            opacity: 0;
                        }
                    }
                </style>"," ","","","","","","","","","","","","","",""
"","","","","","html-keyboard-response","64","741740","0.0-13.0-7.0-0.0","5e5dba9e3d60470d71dde9ef","6790928bebf0b969fc839b02","6798275644cc9476fcb60f5f","passed","","","","","","","","","","","","","","","","","ballFalling_prac","559","586","302","5","fallScene","false","","","","","","",""
"","","","","","html-keyboard-response","65","742743","0.0-13.0-7.0-1.0","5e5dba9e3d60470d71dde9ef","6790928bebf0b969fc839b02","6798275644cc9476fcb60f5f","passed","","511","","","","","","","","","","","","","","f","yesOrNo_prac","","","","5","","","gt","1000","","","","",""
"","","","","","html-keyboard-response","66","744294","0.0-13.0-7.0-0.1","5e5dba9e3d60470d71dde9ef","6790928bebf0b969fc839b02","6798275644cc9476fcb60f5f","passed","","","","","","","","","","","","","","","","","ballFalling_prac","441","500","317","6","fallScene","true","","","","","","",""
"","","","","","html-keyboard-response","67","745299","0.0-13.0-7.0-1.1","5e5dba9e3d60470d71dde9ef","6790928bebf0b969fc839b02","6798275644cc9476fcb60f5f","passed","","560","","","","","","","","","","","","","","j","yesOrNo_prac","","","","6","","","close gt","1000","","","","",""
"","","","","","html-keyboard-response","68","746869","0.0-13.0-7.0-0.2","5e5dba9e3d60470d71dde9ef","6790928bebf0b969fc839b02","6798275644cc9476fcb60f5f","passed","","","","","","","","","","","","","","","","","ballFalling_prac","340","390","263","4","fallScene","true","","","","","","",""
"","","","","","html-keyboard-response","69","747873","0.0-13.0-7.0-1.2","5e5dba9e3d60470d71dde9ef","6790928bebf0b969fc839b02","6798275644cc9476fcb60f5f","passed","","643","","","","","","","","","","","","","","j","yesOrNo_prac","","","","4","","","far gt","1000","","","","",""
"","","","","","html-keyboard-response","70","749287","0.0-13.0-8.0","5e5dba9e3d60470d71dde9ef","6790928bebf0b969fc839b02","6798275644cc9476fcb60f5f","passed","","1413","","","","","","","","","","","","","<p><span style=""font-size:40px;"">Practice Test BLOCK 2</span></p><p><span style=""font-size:25px;"">You have <b style=""color: #FF644F;""><strong>3 second(s)</strong></b> to respond to the following trials.</span><br></p><p id=""blinking-text"" style=""font-weight; animation: blink 2s infinite;"">Press Space to continue</p><style>
                    @keyframes blink {
                        50% {
                            opacity: 0;
                        }
                    }
                </style>"," ","","","","","","","","","","","","","",""
"","","","","","html-keyboard-response","71","750857","0.0-13.0-9.0-0.0","5e5dba9e3d60470d71dde9ef","6790928bebf0b969fc839b02","6798275644cc9476fcb60f5f","passed","","","","","","","","","","","","","","","","","ballFalling_prac","416","365","249","2","fallScene","false","","","","","","",""
"","","","","","html-keyboard-response","72","753861","0.0-13.0-9.0-1.0","5e5dba9e3d60470d71dde9ef","6790928bebf0b969fc839b02","6798275644cc9476fcb60f5f","passed","","1249","","","","","","","","","","","","","","j","yesOrNo_prac","","","","2","","","gt","3000","","","","",""
"","","","","","html-keyboard-response","73","755432","0.0-13.0-9.0-0.1","5e5dba9e3d60470d71dde9ef","6790928bebf0b969fc839b02","6798275644cc9476fcb60f5f","passed","","","","","","","","","","","","","","","","","ballFalling_prac","340","390","263","4","fallScene","true","","","","","","",""
"","","","","","html-keyboard-response","74","758436","0.0-13.0-9.0-1.1","5e5dba9e3d60470d71dde9ef","6790928bebf0b969fc839b02","6798275644cc9476fcb60f5f","passed","","947","","","","","","","","","","","","","","j","yesOrNo_prac","","","","4","","","close gt","3000","","","","",""
"","","","","","html-keyboard-response","75","760007","0.0-13.0-9.0-0.2","5e5dba9e3d60470d71dde9ef","6790928bebf0b969fc839b02","6798275644cc9476fcb60f5f","passed","","","","","","","","","","","","","","","","","ballFalling_prac","559","586","302","5","fallScene","false","","","","","","",""
"","","","","","html-keyboard-response","76","763012","0.0-13.0-9.0-1.2","5e5dba9e3d60470d71dde9ef","6790928bebf0b969fc839b02","6798275644cc9476fcb60f5f","passed","","1747","","","","","","","","","","","","","","j","yesOrNo_prac","","","","5","","","far gt","3000","","","","",""
"","","","","","instructions","77","792626","0.0-14.0","5e5dba9e3d60470d71dde9ef","6790928bebf0b969fc839b02","6798275644cc9476fcb60f5f","passed","[{""page_index"":0,""viewing_time"":29611}]","29612","","","","","","","","","","","","","","","","","","","","","","","","","","","",""
"","","","","","html-keyboard-response","78","794242","0.0-15.0","5e5dba9e3d60470d71dde9ef","6790928bebf0b969fc839b02","6798275644cc9476fcb60f5f","passed","","1615","","","","","","","","","","","","","<p><span style=""font-size:40px;"">BLOCK 1</span></p><p><span style=""font-size:25px;"">You have <b style=""color: #FF644F;""><strong>3 second(s)</strong></b> to respond to the following trials.</span><br></p><p></p> <!-- Blank line -->
                <p id=""blinking-text"" style=""font-weight; animation: blink 2s infinite;"">Press Space to continue</p>
                <style>
                    @keyframes blink {
                        50% {
                            opacity: 0;
                        }
                    }
                </style></p>"," ","","","","","","","","","","","","","",""
"","","","","","html-keyboard-response","79","796035","0.0-16.0-0.0","5e5dba9e3d60470d71dde9ef","6790928bebf0b969fc839b02","6798275644cc9476fcb60f5f","passed","","","","","","","","","","","","","","","","","ballFalling","322.3","308.07114317029976","253.89","2","fallScene","true","","","","","1","",""
"","","","","","html-keyboard-response","80","799039","0.0-16.0-1.0","5e5dba9e3d60470d71dde9ef","6790928bebf0b969fc839b02","6798275644cc9476fcb60f5f","passed","","2018","","","","","","","","","","","","","","f","yesOrNo","","","","2","","","lp","3000","","","1","321.3","151"
"","","","","","html-keyboard-response","81","800594","0.0-16.0-0.1","5e5dba9e3d60470d71dde9ef","6790928bebf0b969fc839b02","6798275644cc9476fcb60f5f","passed","","","","","","","","","","","","","","","","","ballFalling","322.3","296.07114317029976","371.46","3","fallScene","true","","","","","2","",""
"","","","","","html-keyboard-response","82","803599","0.0-16.0-1.1","5e5dba9e3d60470d71dde9ef","6790928bebf0b969fc839b02","6798275644cc9476fcb60f5f","passed","","965","","","","","","","","","","","","","","j","yesOrNo","","","","3","","","lp","3000","","","2","321.3","287.3327096511259"
"","","","","","html-keyboard-response","83","805152","0.0-16.0-0.2","5e5dba9e3d60470d71dde9ef","6790928bebf0b969fc839b02","6798275644cc9476fcb60f5f","passed","","","","","","","","","","","","","","","","","ballFalling","500","453.67114317029973","210.33","5","fallScene","false","","","","","3","",""
"","","","","","html-keyboard-response","84","808155","0.0-16.0-1.2","5e5dba9e3d60470d71dde9ef","6790928bebf0b969fc839b02","6798275644cc9476fcb60f5f","passed","","1064","","","","","","","","","","","","","","j","yesOrNo","","","","5","","","gt","3000","","","3","453.6711431702998","210.33"
"","","","","","html-keyboard-response","85","809813","0.0-16.0-0.3","5e5dba9e3d60470d71dde9ef","6790928bebf0b969fc839b02","6798275644cc9476fcb60f5f","passed","","","","","","","","","","","","","","","","","ballFalling","500","479.92114317029973","330.87","6","fallScene","true","","","","","4","",""
"","","","","","html-keyboard-response","86","812816","0.0-16.0-1.3","5e5dba9e3d60470d71dde9ef","6790928bebf0b969fc839b02","6798275644cc9476fcb60f5f","passed","","1065","","","","","","","","","","","","","","j","yesOrNo","","","","6","","","gt","3000","","","4","479.9211431702998","330.87"
"","","","","","html-keyboard-response","87","814368","0.0-16.0-0.4","5e5dba9e3d60470d71dde9ef","6790928bebf0b969fc839b02","6798275644cc9476fcb60f5f","passed","","","","","","","","","","","","","","","","","ballFalling","322.3","379.3711431702997","245.25","1","fallScene","false","","","","","5","",""
"","","","","","html-keyboard-response","88","817372","0.0-16.0-1.4","5e5dba9e3d60470d71dde9ef","6790928bebf0b969fc839b02","6798275644cc9476fcb60f5f","passed","","2117","","","","","","","","","","","","","","f","yesOrNo","","","","1","","","lp","3000","","","5","323.3","217.74551669457017"
"","","","","","html-keyboard-response","89","818928","0.0-16.0-0.5","5e5dba9e3d60470d71dde9ef","6790928bebf0b969fc839b02","6798275644cc9476fcb60f5f","passed","","","","","","","","","","","","","","","","","ballFalling","604.4000000000001","650.0211431702996","404.58000000000004","11","fallScene","true","","","","","6","",""
"","","","","","html-keyboard-response","90","821933","0.0-16.0-1.5","5e5dba9e3d60470d71dde9ef","6790928bebf0b969fc839b02","6798275644cc9476fcb60f5f","passed","","1538","","","","","","","","","","","","","","f","yesOrNo","","","","11","","","lp","3000","","","6","605.4000000000001","372.6340973215488"
"","","","","","html-keyboard-response","91","823419","0.0-16.0-0.6","5e5dba9e3d60470d71dde9ef","6790928bebf0b969fc839b02","6798275644cc9476fcb60f5f","passed","","","","","","","","","","","","","","","","","ballFalling","604.4000000000001","667.6211431702998","201.78","9","fallScene","true","","","","","7","",""
"","","","","","html-keyboard-response","92","826424","0.0-16.0-1.6","5e5dba9e3d60470d71dde9ef","6790928bebf0b969fc839b02","6798275644cc9476fcb60f5f","passed","","1856","","","","","","","","","","","","","","j","yesOrNo","","","","9","","","mid","3000","","","7","605.4000000000001","300"
"","","","","","html-keyboard-response","93","827977","0.0-16.0-0.7","5e5dba9e3d60470d71dde9ef","6790928bebf0b969fc839b02","6798275644cc9476fcb60f5f","passed","","","","","","","","","","","","","","","","","ballFalling","322.3","296.07114317029976","371.46","3","fallScene","false","","","","","8","",""
"","","","","","html-keyboard-response","94","830984","0.0-16.0-1.7","5e5dba9e3d60470d71dde9ef","6790928bebf0b969fc839b02","6798275644cc9476fcb60f5f","passed","","1932","","","","","","","","","","","","","","f","yesOrNo","","","","3","","","mid","3000","","","8","321.3","300"
"","","","","","html-keyboard-response","95","832469","0.0-16.0-0.8","5e5dba9e3d60470d71dde9ef","6790928bebf0b969fc839b02","6798275644cc9476fcb60f5f","passed","","","","","","","","","","","","","","","","","ballFalling","604.4000000000001","667.6211431702998","201.78","9","fallScene","true","","","","","9","",""
"","","","","","html-keyboard-response","96","835473","0.0-16.0-1.8","5e5dba9e3d60470d71dde9ef","6790928bebf0b969fc839b02","6798275644cc9476fcb60f5f","passed","","2018","","","","","","","","","","","","","","j","yesOrNo","","","","9","","","gt","3000","","","9","667.6211431702998","201.78"
"","","","","","html-keyboard-response","97","837262","0.0-16.0-0.9","5e5dba9e3d60470d71dde9ef","6790928bebf0b969fc839b02","6798275644cc9476fcb60f5f","passed","","","","","","","","","","","","","","","","","ballFalling","322.3","308.07114317029976","253.89","2","fallScene","true","","","","","10","",""
"","","","","","html-keyboard-response","98","840267","0.0-16.0-1.9","5e5dba9e3d60470d71dde9ef","6790928bebf0b969fc839b02","6798275644cc9476fcb60f5f","passed","","1716","","","","","","","","","","","","","","j","yesOrNo","","","","2","","","mid","3000","","","10","321.3","300"
"","","","","","html-keyboard-response","99","841820","0.0-16.0-0.10","5e5dba9e3d60470d71dde9ef","6790928bebf0b969fc839b02","6798275644cc9476fcb60f5f","passed","","","","","","","","","","","","","","","","","ballFalling","322.3","356.42114317029973","357.87","4","fallScene","true","","","","","11","",""
"","","","","","html-keyboard-response","100","844824","0.0-16.0-1.10","5e5dba9e3d60470d71dde9ef","6790928bebf0b969fc839b02","6798275644cc9476fcb60f5f","passed","","2140","","","","","","","","","","","","","","f","yesOrNo","","","","4","","","lp","3000","","","11","323.3","297.4070551689986"
"","","","","","html-keyboard-response","101","846378","0.0-16.0-0.11","5e5dba9e3d60470d71dde9ef","6790928bebf0b969fc839b02","6798275644cc9476fcb60f5f","passed","","","","","","","","","","","","","","","","","ballFalling","322.3","379.3711431702997","245.25","1","fallScene","true","","","","","12","",""
"","","","","","html-keyboard-response","102","849383","0.0-16.0-1.11","5e5dba9e3d60470d71dde9ef","6790928bebf0b969fc839b02","6798275644cc9476fcb60f5f","passed","","981","","","","","","","","","","","","","","j","yesOrNo","","","","1","","","gt","3000","","","12","379.3711431702997","245.25"
"","","","","","html-keyboard-response","103","850935","0.0-16.0-0.12","5e5dba9e3d60470d71dde9ef","6790928bebf0b969fc839b02","6798275644cc9476fcb60f5f","passed","","","","","","","","","","","","","","","","","ballFalling","604.4000000000001","575.4211431702997","266.76","12","fallScene","false","","","","","13","",""
"","","","","","html-keyboard-response","104","853940","0.0-16.0-1.12","5e5dba9e3d60470d71dde9ef","6790928bebf0b969fc839b02","6798275644cc9476fcb60f5f","passed","","1142","","","","","","","","","","","","","","j","yesOrNo","","","","12","","","mid","3000","","","13","536.4288568297004","300"
"","","","","","html-keyboard-response","105","855495","0.0-16.0-0.13","5e5dba9e3d60470d71dde9ef","6790928bebf0b969fc839b02","6798275644cc9476fcb60f5f","passed","","","","","","","","","","","","","","","","","ballFalling","500","453.67114317029973","210.33","5","fallScene","false","","","","","14","",""
"","","","","","html-keyboard-response","106","858501","0.0-16.0-1.13","5e5dba9e3d60470d71dde9ef","6790928bebf0b969fc839b02","6798275644cc9476fcb60f5f","passed","","1929","","","","","","","","","","","","","","f","yesOrNo","","","","5","","","mid","3000","","","14","499","300"
"","","","","","html-keyboard-response","107","860070","0.0-16.0-0.14","5e5dba9e3d60470d71dde9ef","6790928bebf0b969fc839b02","6798275644cc9476fcb60f5f","passed","","","","","","","","","","","","","","","","","ballFalling","500","553.4711431702997","282.51","7","fallScene","true","","","","","15","",""
"","","","","","html-keyboard-response","108","863076","0.0-16.0-1.14","5e5dba9e3d60470d71dde9ef","6790928bebf0b969fc839b02","6798275644cc9476fcb60f5f","passed","","2045","","","","","","","","","","","","","","f","yesOrNo","","","","7","","","lp","3000","","","15","501","227.2843295913261"
"","","","","","html-keyboard-response","109","865079","0.0-16.0-0.15","5e5dba9e3d60470d71dde9ef","6790928bebf0b969fc839b02","6798275644cc9476fcb60f5f","passed","","","","","","","","","","","","","","","","","ballFalling","604.4000000000001","596.8711431702998","394.5","10","fallScene","true","","","","","16","",""
"","","","","","html-keyboard-response","110","868082","0.0-16.0-1.15","5e5dba9e3d60470d71dde9ef","6790928bebf0b969fc839b02","6798275644cc9476fcb60f5f","passed","","2072","","","","","","","","","","","","","","f","yesOrNo","","","","10","","","mid","3000","","","16","536.4288568297004","300"
"","","","","","html-keyboard-response","111","869636","0.0-16.0-0.16","5e5dba9e3d60470d71dde9ef","6790928bebf0b969fc839b02","6798275644cc9476fcb60f5f","passed","","","","","","","","","","","","","","","","","ballFalling","500","453.67114317029973","210.33","5","fallScene","false","","","","","17","",""
"","","","","","html-keyboard-response","112","872640","0.0-16.0-1.16","5e5dba9e3d60470d71dde9ef","6790928bebf0b969fc839b02","6798275644cc9476fcb60f5f","passed","","2206","","","","","","","","","","","","","","f","yesOrNo","","","","5","","","lp","3000","","","17","499","151"
"","","","","","html-keyboard-response","113","874294","0.0-16.0-0.17","5e5dba9e3d60470d71dde9ef","6790928bebf0b969fc839b02","6798275644cc9476fcb60f5f","passed","","","","","","","","","","","","","","","","","ballFalling","500","479.92114317029973","330.87","6","fallScene","true","","","","","18","",""
"","","","","","html-keyboard-response","114","877296","0.0-16.0-1.17","5e5dba9e3d60470d71dde9ef","6790928bebf0b969fc839b02","6798275644cc9476fcb60f5f","passed","","787","","","","","","","","","","","","","","j","yesOrNo","","","","6","","","gt","3000","","","18","479.9211431702998","330.87"
"","","","","","html-keyboard-response","115","878870","0.0-16.0-0.18","5e5dba9e3d60470d71dde9ef","6790928bebf0b969fc839b02","6798275644cc9476fcb60f5f","passed","","","","","","","","","","","","","","","","","ballFalling","500","553.4711431702997","282.51","7","fallScene","false","","","","","19","",""
"","","","","","html-keyboard-response","116","881873","0.0-16.0-1.18","5e5dba9e3d60470d71dde9ef","6790928bebf0b969fc839b02","6798275644cc9476fcb60f5f","passed","","1116","","","","","","","","","","","","","","j","yesOrNo","","","","7","","","mid","3000","","","19","501","300"
"","","","","","html-keyboard-response","117","883661","0.0-16.0-0.19","5e5dba9e3d60470d71dde9ef","6790928bebf0b969fc839b02","6798275644cc9476fcb60f5f","passed","","","","","","","","","","","","","","","","","ballFalling","322.3","308.07114317029976","253.89","2","fallScene","true","","","","","20","",""
"","","","","","html-keyboard-response","118","886665","0.0-16.0-1.19","5e5dba9e3d60470d71dde9ef","6790928bebf0b969fc839b02","6798275644cc9476fcb60f5f","passed","","1167","","","","","","","","","","","","","","j","yesOrNo","","","","2","","","gt","3000","","","20","308.07114317029976","253.89"
"","","","","","html-keyboard-response","119","888219","0.0-16.0-0.20","5e5dba9e3d60470d71dde9ef","6790928bebf0b969fc839b02","6798275644cc9476fcb60f5f","passed","","","","","","","","","","","","","","","","","ballFalling","322.3","296.07114317029976","371.46","3","fallScene","false","","","","","21","",""
"","","","","","html-keyboard-response","120","891224","0.0-16.0-1.20","5e5dba9e3d60470d71dde9ef","6790928bebf0b969fc839b02","6798275644cc9476fcb60f5f","passed","","1751","","","","","","","","","","","","","","j","yesOrNo","","","","3","","","gt","3000","","","21","296.07114317029976","371.46"
"","","","","","html-keyboard-response","121","893012","0.0-16.0-0.21","5e5dba9e3d60470d71dde9ef","6790928bebf0b969fc839b02","6798275644cc9476fcb60f5f","passed","","","","","","","","","","","","","","","","","ballFalling","322.3","308.07114317029976","253.89","2","fallScene","false","","","","","22","",""
"","","","","","html-keyboard-response","122","896017","0.0-16.0-1.21","5e5dba9e3d60470d71dde9ef","6790928bebf0b969fc839b02","6798275644cc9476fcb60f5f","passed","","1280","","","","","","","","","","","","","","j","yesOrNo","","","","2","","","gt","3000","","","22","308.07114317029976","253.89"
"","","","","","html-keyboard-response","123","897571","0.0-16.0-0.22","5e5dba9e3d60470d71dde9ef","6790928bebf0b969fc839b02","6798275644cc9476fcb60f5f","passed","","","","","","","","","","","","","","","","","ballFalling","500","453.67114317029973","210.33","5","fallScene","false","","","","","23","",""
"","","","","","html-keyboard-response","124","900574","0.0-16.0-1.22","5e5dba9e3d60470d71dde9ef","6790928bebf0b969fc839b02","6798275644cc9476fcb60f5f","passed","","1841","","","","","","","","","","","","","","j","yesOrNo","","","","5","","","mid","3000","","","23","499","300"
"","","","","","html-keyboard-response","125","902578","0.0-16.0-0.23","5e5dba9e3d60470d71dde9ef","6790928bebf0b969fc839b02","6798275644cc9476fcb60f5f","passed","","","","","","","","","","","","","","","","","ballFalling","604.4000000000001","596.8711431702998","394.5","10","fallScene","true","","","","","24","",""
"","","","","","html-keyboard-response","126","905582","0.0-16.0-1.23","5e5dba9e3d60470d71dde9ef","6790928bebf0b969fc839b02","6798275644cc9476fcb60f5f","passed","","1106","","","","","","","","","","","","","","f","yesOrNo","","","","10","","","lp","3000","","","24","603.4000000000001","215.50214355555383"
"","","","","","html-keyboard-response","127","949943","0.0-17.0","5e5dba9e3d60470d71dde9ef","6790928bebf0b969fc839b02","6798275644cc9476fcb60f5f","passed","","44359","","","","","","","","","","","","","<p><span style=""font-size:40px;"">BLOCK 2</span></p><p><span style=""font-size:25px;"">You have <b style=""color: #FF644F;""><strong>1 second(s)</strong></b> to respond to the following trials.</span><br></p><p></p> <!-- Blank line -->
                <p id=""blinking-text"" style=""font-weight; animation: blink 2s infinite;"">Press Space to continue</p>
                <style>
                    @keyframes blink {
                        50% {
                            opacity: 0;
                        }
                    }
                </style></p>"," ","","","","","","","","","","","","","",""
"","","","","","html-keyboard-response","128","951432","0.0-18.0-0.0","5e5dba9e3d60470d71dde9ef","6790928bebf0b969fc839b02","6798275644cc9476fcb60f5f","passed","","","","","","","","","","","","","","","","","ballFalling","604.4000000000001","667.6211431702998","201.78","9","fallScene","true","","","","","25","",""
"","","","","","html-keyboard-response","129","952437","0.0-18.0-1.0","5e5dba9e3d60470d71dde9ef","6790928bebf0b969fc839b02","6798275644cc9476fcb60f5f","passed","","698","","","","","","","","","","","","","","j","yesOrNo","","","","9","","","mid","1000","","","25","605.4000000000001","300"
"","","","","","html-keyboard-response","130","953991","0.0-18.0-0.1","5e5dba9e3d60470d71dde9ef","6790928bebf0b969fc839b02","6798275644cc9476fcb60f5f","passed","","","","","","","","","","","","","","","","","ballFalling","322.3","379.3711431702997","245.25","1","fallScene","true","","","","","26","",""
"","","","","","html-keyboard-response","131","954997","0.0-18.0-1.1","5e5dba9e3d60470d71dde9ef","6790928bebf0b969fc839b02","6798275644cc9476fcb60f5f","passed","","667","","","","","","","","","","","","","","f","yesOrNo","","","","1","","","mid","1000","","","26","390.27114317029975","300"
"","","","","","html-keyboard-response","132","956782","0.0-18.0-0.2","5e5dba9e3d60470d71dde9ef","6790928bebf0b969fc839b02","6798275644cc9476fcb60f5f","passed","","","","","","","","","","","","","","","","","ballFalling","322.3","308.07114317029976","253.89","2","fallScene","true","","","","","27","",""
"","","","","","html-keyboard-response","133","957786","0.0-18.0-1.2","5e5dba9e3d60470d71dde9ef","6790928bebf0b969fc839b02","6798275644cc9476fcb60f5f","passed","","684","","","","","","","","","","","","","","f","yesOrNo","","","","2","","","mid","1000","","","27","321.3","300"
"","","","","","html-keyboard-response","134","959275","0.0-18.0-0.3","5e5dba9e3d60470d71dde9ef","6790928bebf0b969fc839b02","6798275644cc9476fcb60f5f","passed","","","","","","","","","","","","","","","","","ballFalling","604.4000000000001","667.6211431702998","201.78","9","fallScene","false","","","","","28","",""
"","","","","","html-keyboard-response","135","960280","0.0-18.0-1.3","5e5dba9e3d60470d71dde9ef","6790928bebf0b969fc839b02","6798275644cc9476fcb60f5f","passed","","671","","","","","","","","","","","","","","j","yesOrNo","","","","9","","","gt","1000","","","28","667.6211431702998","201.78"
"","","","","","html-keyboard-response","136","961766","0.0-18.0-0.4","5e5dba9e3d60470d71dde9ef","6790928bebf0b969fc839b02","6798275644cc9476fcb60f5f","passed","","","","","","","","","","","","","","","","","ballFalling","604.4000000000001","667.6211431702998","201.78","9","fallScene","true","","","","","29","",""
"","","","","","html-keyboard-response","137","962772","0.0-18.0-1.4","5e5dba9e3d60470d71dde9ef","6790928bebf0b969fc839b02","6798275644cc9476fcb60f5f","passed","","518","","","","","","","","","","","","","","j","yesOrNo","","","","9","","","gt","1000","","","29","667.6211431702998","201.78"
"","","","","","html-keyboard-response","138","964341","0.0-18.0-0.5","5e5dba9e3d60470d71dde9ef","6790928bebf0b969fc839b02","6798275644cc9476fcb60f5f","passed","","","","","","","","","","","","","","","","","ballFalling","500","553.4711431702997","282.51","7","fallScene","false","","","","","30","",""
"","","","","","html-keyboard-response","139","965343","0.0-18.0-1.5","5e5dba9e3d60470d71dde9ef","6790928bebf0b969fc839b02","6798275644cc9476fcb60f5f","passed","","642","","","","","","","","","","","","","","f","yesOrNo","","","","7","","","mid","1000","","","30","501","300"
"","","","","","html-keyboard-response","140","966898","0.0-18.0-0.6","5e5dba9e3d60470d71dde9ef","6790928bebf0b969fc839b02","6798275644cc9476fcb60f5f","passed","","","","","","","","","","","","","","","","","ballFalling","604.4000000000001","575.4211431702997","266.76","12","fallScene","false","","","","","31","",""
"","","","","","html-keyboard-response","141","967901","0.0-18.0-1.6","5e5dba9e3d60470d71dde9ef","6790928bebf0b969fc839b02","6798275644cc9476fcb60f5f","passed","","458","","","","","","","","","","","","","","j","yesOrNo","","","","12","","","mid","1000","","","31","536.4288568297004","300"
"","","","","","html-keyboard-response","142","969558","0.0-18.0-0.7","5e5dba9e3d60470d71dde9ef","6790928bebf0b969fc839b02","6798275644cc9476fcb60f5f","passed","","","","","","","","","","","","","","","","","ballFalling","500","479.92114317029973","330.87","6","fallScene","false","","","","","32","",""
"","","","","","html-keyboard-response","143","970563","0.0-18.0-1.7","5e5dba9e3d60470d71dde9ef","6790928bebf0b969fc839b02","6798275644cc9476fcb60f5f","passed","","704","","","","","","","","","","","","","","j","yesOrNo","","","","6","","","gt","1000","","","32","479.9211431702998","330.87"
"","","","","","html-keyboard-response","144","972116","0.0-18.0-0.8","5e5dba9e3d60470d71dde9ef","6790928bebf0b969fc839b02","6798275644cc9476fcb60f5f","passed","","","","","","","","","","","","","","","","","ballFalling","604.4000000000001","575.4211431702997","266.76","12","fallScene","false","","","","","33","",""
"","","","","","html-keyboard-response","145","973120","0.0-18.0-1.8","5e5dba9e3d60470d71dde9ef","6790928bebf0b969fc839b02","6798275644cc9476fcb60f5f","passed","","575","","","","","","","","","","","","","","j","yesOrNo","","","","12","","","gt","1000","","","33","575.4211431702997","266.76"
"","","","","","html-keyboard-response","146","974674","0.0-18.0-0.9","5e5dba9e3d60470d71dde9ef","6790928bebf0b969fc839b02","6798275644cc9476fcb60f5f","passed","","","","","","","","","","","","","","","","","ballFalling","604.4000000000001","650.0211431702996","404.58000000000004","11","fallScene","true","","","","","34","",""
"","","","","","html-keyboard-response","147","975679","0.0-18.0-1.9","5e5dba9e3d60470d71dde9ef","6790928bebf0b969fc839b02","6798275644cc9476fcb60f5f","passed","","924","","","","","","","","","","","","","","f","yesOrNo","","","","11","","","mid","1000","","","34","605.4000000000001","300"
"","","","","","html-keyboard-response","148","977233","0.0-18.0-0.10","5e5dba9e3d60470d71dde9ef","6790928bebf0b969fc839b02","6798275644cc9476fcb60f5f","passed","","","","","","","","","","","","","","","","","ballFalling","500","453.67114317029973","210.33","5","fallScene","true","","","","","35","",""
"","","","","","html-keyboard-response","149","978237","0.0-18.0-1.10","5e5dba9e3d60470d71dde9ef","6790928bebf0b969fc839b02","6798275644cc9476fcb60f5f","passed","","525","","","","","","","","","","","","","","f","yesOrNo","","","","5","","","mid","1000","","","35","499","300"
"","","","","","html-keyboard-response","150","979792","0.0-18.0-0.11","5e5dba9e3d60470d71dde9ef","6790928bebf0b969fc839b02","6798275644cc9476fcb60f5f","passed","","","","","","","","","","","","","","","","","ballFalling","604.4000000000001","575.4211431702997","266.76","12","fallScene","false","","","","","36","",""
"","","","","","html-keyboard-response","151","980798","0.0-18.0-1.11","5e5dba9e3d60470d71dde9ef","6790928bebf0b969fc839b02","6798275644cc9476fcb60f5f","passed","","660","","","","","","","","","","","","","","f","yesOrNo","","","","12","","","lp","1000","","","36","603.4000000000001","151"
"","","","","","html-keyboard-response","152","982451","0.0-18.0-0.12","5e5dba9e3d60470d71dde9ef","6790928bebf0b969fc839b02","6798275644cc9476fcb60f5f","passed","","","","","","","","","","","","","","","","","ballFalling","500","479.92114317029973","330.87","6","fallScene","true","","","","","37","",""
"","","","","","html-keyboard-response","153","983453","0.0-18.0-1.12","5e5dba9e3d60470d71dde9ef","6790928bebf0b969fc839b02","6798275644cc9476fcb60f5f","passed","","520","","","","","","","","","","","","","","j","yesOrNo","","","","6","","","mid","1000","","","37","499","300"
"","","","","","html-keyboard-response","154","985008","0.0-18.0-0.13","5e5dba9e3d60470d71dde9ef","6790928bebf0b969fc839b02","6798275644cc9476fcb60f5f","passed","","","","","","","","","","","","","","","","","ballFalling","322.3","356.42114317029973","357.87","4","fallScene","false","","","","","38","",""
"","","","","","html-keyboard-response","155","986013","0.0-18.0-1.13","5e5dba9e3d60470d71dde9ef","6790928bebf0b969fc839b02","6798275644cc9476fcb60f5f","passed","","545","","","","","","","","","","","","","","j","yesOrNo","","","","4","","","mid","1000","","","38","390.27114317029975","300"
"","","","","","html-keyboard-response","156","987566","0.0-18.0-0.14","5e5dba9e3d60470d71dde9ef","6790928bebf0b969fc839b02","6798275644cc9476fcb60f5f","passed","","","","","","","","","","","","","","","","","ballFalling","322.3","356.42114317029973","357.87","4","fallScene","true","","","","","39","",""
"","","","","","html-keyboard-response","157","988569","0.0-18.0-1.14","5e5dba9e3d60470d71dde9ef","6790928bebf0b969fc839b02","6798275644cc9476fcb60f5f","passed","","531","","","","","","","","","","","","","","j","yesOrNo","","","","4","","","mid","1000","","","39","390.27114317029975","300"
"","","","","","html-keyboard-response","158","990125","0.0-18.0-0.15","5e5dba9e3d60470d71dde9ef","6790928bebf0b969fc839b02","6798275644cc9476fcb60f5f","passed","","","","","","","","","","","","","","","","","ballFalling","500","453.67114317029973","210.33","5","fallScene","false","","","","","40","",""
"","","","","","html-keyboard-response","159","991129","0.0-18.0-1.15","5e5dba9e3d60470d71dde9ef","6790928bebf0b969fc839b02","6798275644cc9476fcb60f5f","passed","","558","","","","","","","","","","","","","","j","yesOrNo","","","","5","","","gt","1000","","","40","453.6711431702998","210.33"
"","","","","","html-keyboard-response","160","992683","0.0-18.0-0.16","5e5dba9e3d60470d71dde9ef","6790928bebf0b969fc839b02","6798275644cc9476fcb60f5f","passed","","","","","","","","","","","","","","","","","ballFalling","322.3","296.07114317029976","371.46","3","fallScene","true","","","","","41","",""
"","","","","","html-keyboard-response","161","993688","0.0-18.0-1.16","5e5dba9e3d60470d71dde9ef","6790928bebf0b969fc839b02","6798275644cc9476fcb60f5f","passed","","530","","","","","","","","","","","","","","f","yesOrNo","","","","3","","","lp","1000","","","41","321.3","287.3327096511259"
"","","","","","html-keyboard-response","162","995341","0.0-18.0-0.17","5e5dba9e3d60470d71dde9ef","6790928bebf0b969fc839b02","6798275644cc9476fcb60f5f","passed","","","","","","","","","","","","","","","","","ballFalling","500","479.92114317029973","330.87","6","fallScene","false","","","","","42","",""
"","","","","","html-keyboard-response","163","996346","0.0-18.0-1.17","5e5dba9e3d60470d71dde9ef","6790928bebf0b969fc839b02","6798275644cc9476fcb60f5f","passed","","674","","","","","","","","","","","","","","j","yesOrNo","","","","6","","","gt","1000","","","42","479.9211431702998","330.87"
"","","","","","html-keyboard-response","164","997917","0.0-18.0-0.18","5e5dba9e3d60470d71dde9ef","6790928bebf0b969fc839b02","6798275644cc9476fcb60f5f","passed","","","","","","","","","","","","","","","","","ballFalling","500","553.4711431702997","282.51","7","fallScene","true","","","","","43","",""
"","","","","","html-keyboard-response","165","998922","0.0-18.0-1.18","5e5dba9e3d60470d71dde9ef","6790928bebf0b969fc839b02","6798275644cc9476fcb60f5f","passed","","695","","","","","","","","","","","","","","j","yesOrNo","","","","7","","","mid","1000","","","43","501","300"
"","","","","","html-keyboard-response","166","1000475","0.0-18.0-0.19","5e5dba9e3d60470d71dde9ef","6790928bebf0b969fc839b02","6798275644cc9476fcb60f5f","passed","","","","","","","","","","","","","","","","","ballFalling","322.3","296.07114317029976","371.46","3","fallScene","false","","","","","44","",""
"","","","","","html-keyboard-response","167","1001479","0.0-18.0-1.19","5e5dba9e3d60470d71dde9ef","6790928bebf0b969fc839b02","6798275644cc9476fcb60f5f","passed","","660","","","","","","","","","","","","","","f","yesOrNo","","","","3","","","mid","1000","","","44","321.3","300"
"","","","","","html-keyboard-response","168","1003033","0.0-18.0-0.20","5e5dba9e3d60470d71dde9ef","6790928bebf0b969fc839b02","6798275644cc9476fcb60f5f","passed","","","","","","","","","","","","","","","","","ballFalling","604.4000000000001","650.0211431702996","404.58000000000004","11","fallScene","true","","","","","45","",""
"","","","","","html-keyboard-response","169","1004039","0.0-18.0-1.20","5e5dba9e3d60470d71dde9ef","6790928bebf0b969fc839b02","6798275644cc9476fcb60f5f","passed","","579","","","","","","","","","","","","","","j","yesOrNo","","","","11","","","mid","1000","","","45","605.4000000000001","300"
"","","","","","html-keyboard-response","170","1006042","0.0-18.0-0.21","5e5dba9e3d60470d71dde9ef","6790928bebf0b969fc839b02","6798275644cc9476fcb60f5f","passed","","","","","","","","","","","","","","","","","ballFalling","604.4000000000001","596.8711431702998","394.5","10","fallScene","true","","","","","46","",""
"","","","","","html-keyboard-response","171","1007046","0.0-18.0-1.21","5e5dba9e3d60470d71dde9ef","6790928bebf0b969fc839b02","6798275644cc9476fcb60f5f","passed","","744","","","","","","","","","","","","","","f","yesOrNo","","","","10","","","lp","1000","","","46","603.4000000000001","215.50214355555383"
"","","","","","html-keyboard-response","172","1008599","0.0-18.0-0.22","5e5dba9e3d60470d71dde9ef","6790928bebf0b969fc839b02","6798275644cc9476fcb60f5f","passed","","","","","","","","","","","","","","","","","ballFalling","322.3","379.3711431702997","245.25","1","fallScene","true","","","","","47","",""
"","","","","","html-keyboard-response","173","1009605","0.0-18.0-1.22","5e5dba9e3d60470d71dde9ef","6790928bebf0b969fc839b02","6798275644cc9476fcb60f5f","passed","","632","","","","","","","","","","","","","","j","yesOrNo","","","","1","","","lp","1000","","","47","323.3","217.74551669457017"
"","","","","","html-keyboard-response","174","1011393","0.0-18.0-0.23","5e5dba9e3d60470d71dde9ef","6790928bebf0b969fc839b02","6798275644cc9476fcb60f5f","passed","","","","","","","","","","","","","","","","","ballFalling","322.3","308.07114317029976","253.89","2","fallScene","false","","","","","48","",""
"","","","","","html-keyboard-response","175","1012396","0.0-18.0-1.23","5e5dba9e3d60470d71dde9ef","6790928bebf0b969fc839b02","6798275644cc9476fcb60f5f","passed","","480","","","","","","","","","","","","","","f","yesOrNo","","","","2","","","lp","1000","","","48","321.3","151"
"","","","","","html-keyboard-response","176","1024517","0.0-19.0","5e5dba9e3d60470d71dde9ef","6790928bebf0b969fc839b02","6798275644cc9476fcb60f5f","passed","","12119","","","","","","","","","","","","","<p><span style=""font-size:40px;"">BLOCK 3</span></p><p><span style=""font-size:25px;"">You have <b style=""color: #FF644F;""><strong>1 second(s)</strong></b> to respond to the following trials.</span><br></p><p></p> <!-- Blank line -->
                <p id=""blinking-text"" style=""font-weight; animation: blink 2s infinite;"">Press Space to continue</p>
                <style>
                    @keyframes blink {
                        50% {
                            opacity: 0;
                        }
                    }
                </style></p>"," ","","","","","","","","","","","","","",""
"","","","","","html-keyboard-response","177","1026074","0.0-20.0-0.0","5e5dba9e3d60470d71dde9ef","6790928bebf0b969fc839b02","6798275644cc9476fcb60f5f","passed","","","","","","","","","","","","","","","","","ballFalling","322.3","296.07114317029976","371.46","3","fallScene","false","","","","","49","",""
"","","","","","html-keyboard-response","178","1027078","0.0-20.0-1.0","5e5dba9e3d60470d71dde9ef","6790928bebf0b969fc839b02","6798275644cc9476fcb60f5f","passed","","649","","","","","","","","","","","","","","f","yesOrNo","","","","3","","","mid","1000","","","49","321.3","300"
"","","","","","html-keyboard-response","179","1029083","0.0-20.0-0.1","5e5dba9e3d60470d71dde9ef","6790928bebf0b969fc839b02","6798275644cc9476fcb60f5f","passed","","","","","","","","","","","","","","","","","ballFalling","500","510.8711431702997","369.03","8","fallScene","false","","","","","50","",""
"","","","","","html-keyboard-response","180","1030087","0.0-20.0-1.1","5e5dba9e3d60470d71dde9ef","6790928bebf0b969fc839b02","6798275644cc9476fcb60f5f","passed","","521","","","","","","","","","","","","","","f","yesOrNo","","","","8","","","lp","1000","","","50","501","151"
"","","","","","html-keyboard-response","181","1031660","0.0-20.0-0.2","5e5dba9e3d60470d71dde9ef","6790928bebf0b969fc839b02","6798275644cc9476fcb60f5f","passed","","","","","","","","","","","","","","","","","ballFalling","500","553.4711431702997","282.51","7","fallScene","true","","","","","51","",""
"","","","","","html-keyboard-response","182","1032663","0.0-20.0-1.2","5e5dba9e3d60470d71dde9ef","6790928bebf0b969fc839b02","6798275644cc9476fcb60f5f","passed","","582","","","","","","","","","","","","","","j","yesOrNo","","","","7","","","gt","1000","","","51","553.4711431702997","282.51"
"","","","","","html-keyboard-response","183","1034150","0.0-20.0-0.3","5e5dba9e3d60470d71dde9ef","6790928bebf0b969fc839b02","6798275644cc9476fcb60f5f","passed","","","","","","","","","","","","","","","","","ballFalling","604.4000000000001","667.6211431702998","201.78","9","fallScene","false","","","","","52","",""
"","","","","","html-keyboard-response","184","1035155","0.0-20.0-1.3","5e5dba9e3d60470d71dde9ef","6790928bebf0b969fc839b02","6798275644cc9476fcb60f5f","passed","","512","","","","","","","","","","","","","","f","yesOrNo","","","","9","","","lp","1000","","","52","605.4000000000001","151"
"","","","","","html-keyboard-response","185","1036708","0.0-20.0-0.4","5e5dba9e3d60470d71dde9ef","6790928bebf0b969fc839b02","6798275644cc9476fcb60f5f","passed","","","","","","","","","","","","","","","","","ballFalling","604.4000000000001","575.4211431702997","266.76","12","fallScene","true","","","","","53","",""
"","","","","","html-keyboard-response","186","1037713","0.0-20.0-1.4","5e5dba9e3d60470d71dde9ef","6790928bebf0b969fc839b02","6798275644cc9476fcb60f5f","passed","","824","","","","","","","","","","","","","","j","yesOrNo","","","","12","","","gt","1000","","","53","575.4211431702997","266.76"
"","","","","","html-keyboard-response","187","1039716","0.0-20.0-0.5","5e5dba9e3d60470d71dde9ef","6790928bebf0b969fc839b02","6798275644cc9476fcb60f5f","passed","","","","","","","","","","","","","","","","","ballFalling","500","510.8711431702997","369.03","8","fallScene","false","","","","","54","",""
"","","","","","html-keyboard-response","188","1040720","0.0-20.0-1.5","5e5dba9e3d60470d71dde9ef","6790928bebf0b969fc839b02","6798275644cc9476fcb60f5f","passed","","416","","","","","","","","","","","","","","j","yesOrNo","","","","8","","","gt","1000","","","54","510.8711431702997","369.03"
"","","","","","html-keyboard-response","189","1042275","0.0-20.0-0.6","5e5dba9e3d60470d71dde9ef","6790928bebf0b969fc839b02","6798275644cc9476fcb60f5f","passed","","","","","","","","","","","","","","","","","ballFalling","322.3","379.3711431702997","245.25","1","fallScene","false","","","","","55","",""
"","","","","","html-keyboard-response","190","1043276","0.0-20.0-1.6","5e5dba9e3d60470d71dde9ef","6790928bebf0b969fc839b02","6798275644cc9476fcb60f5f","passed","","677","","","","","","","","","","","","","","j","yesOrNo","","","","1","","","mid","1000","","","55","390.27114317029975","300"
"","","","","","html-keyboard-response","191","1044832","0.0-20.0-0.7","5e5dba9e3d60470d71dde9ef","6790928bebf0b969fc839b02","6798275644cc9476fcb60f5f","passed","","","","","","","","","","","","","","","","","ballFalling","322.3","356.42114317029973","357.87","4","fallScene","true","","","","","56","",""
"","","","","","html-keyboard-response","192","1045837","0.0-20.0-1.7","5e5dba9e3d60470d71dde9ef","6790928bebf0b969fc839b02","6798275644cc9476fcb60f5f","passed","","524","","","","","","","","","","","","","","j","yesOrNo","","","","4","","","lp","1000","","","56","323.3","297.4070551689986"
"","","","","","html-keyboard-response","193","1047391","0.0-20.0-0.8","5e5dba9e3d60470d71dde9ef","6790928bebf0b969fc839b02","6798275644cc9476fcb60f5f","passed","","","","","","","","","","","","","","","","","ballFalling","604.4000000000001","650.0211431702996","404.58000000000004","11","fallScene","false","","","","","57","",""
"","","","","","html-keyboard-response","194","1048394","0.0-20.0-1.8","5e5dba9e3d60470d71dde9ef","6790928bebf0b969fc839b02","6798275644cc9476fcb60f5f","passed","","665","","","","","","","","","","","","","","j","yesOrNo","","","","11","","","gt","1000","","","57","650.0211431702996","404.58"
"","","","","","html-keyboard-response","195","1049883","0.0-20.0-0.9","5e5dba9e3d60470d71dde9ef","6790928bebf0b969fc839b02","6798275644cc9476fcb60f5f","passed","","","","","","","","","","","","","","","","","ballFalling","604.4000000000001","667.6211431702998","201.78","9","fallScene","true","","","","","58","",""
"","","","","","html-keyboard-response","196","1050888","0.0-20.0-1.9","5e5dba9e3d60470d71dde9ef","6790928bebf0b969fc839b02","6798275644cc9476fcb60f5f","passed","","751","","","","","","","","","","","","","","f","yesOrNo","","","","9","","","lp","1000","","","58","605.4000000000001","151"
"","","","","","html-keyboard-response","197","1052674","0.0-20.0-0.10","5e5dba9e3d60470d71dde9ef","6790928bebf0b969fc839b02","6798275644cc9476fcb60f5f","passed","","","","","","","","","","","","","","","","","ballFalling","322.3","308.07114317029976","253.89","2","fallScene","true","","","","","59","",""
"","","","","","html-keyboard-response","198","1053678","0.0-20.0-1.10","5e5dba9e3d60470d71dde9ef","6790928bebf0b969fc839b02","6798275644cc9476fcb60f5f","passed","","689","","","","","","","","","","","","","","j","yesOrNo","","","","2","","","gt","1000","","","59","308.07114317029976","253.89"
"","","","","","html-keyboard-response","199","1055683","0.0-20.0-0.11","5e5dba9e3d60470d71dde9ef","6790928bebf0b969fc839b02","6798275644cc9476fcb60f5f","passed","","","","","","","","","","","","","","","","","ballFalling","604.4000000000001","596.8711431702998","394.5","10","fallScene","false","","","","","60","",""
"","","","","","html-keyboard-response","200","1056687","0.0-20.0-1.11","5e5dba9e3d60470d71dde9ef","6790928bebf0b969fc839b02","6798275644cc9476fcb60f5f","passed","","700","","","","","","","","","","","","","","j","yesOrNo","","","","10","","","gt","1000","","","60","596.8711431702998","394.5"
"","","","","","html-keyboard-response","201","1058242","0.0-20.0-0.12","5e5dba9e3d60470d71dde9ef","6790928bebf0b969fc839b02","6798275644cc9476fcb60f5f","passed","","","","","","","","","","","","","","","","","ballFalling","322.3","296.07114317029976","371.46","3","fallScene","true","","","","","61","",""
"","","","","","html-keyboard-response","202","1059245","0.0-20.0-1.12","5e5dba9e3d60470d71dde9ef","6790928bebf0b969fc839b02","6798275644cc9476fcb60f5f","passed","","934","","","","","","","","","","","","","","f","yesOrNo","","","","3","","","gt","1000","","","61","296.07114317029976","371.46"
"","","","","","html-keyboard-response","203","1060801","0.0-20.0-0.13","5e5dba9e3d60470d71dde9ef","6790928bebf0b969fc839b02","6798275644cc9476fcb60f5f","passed","","","","","","","","","","","","","","","","","ballFalling","322.3","296.07114317029976","371.46","3","fallScene","false","","","","","62","",""
"","","","","","html-keyboard-response","204","1061805","0.0-20.0-1.13","5e5dba9e3d60470d71dde9ef","6790928bebf0b969fc839b02","6798275644cc9476fcb60f5f","passed","","514","","","","","","","","","","","","","","j","yesOrNo","","","","3","","","gt","1000","","","62","296.07114317029976","371.46"
"","","","","","html-keyboard-response","205","1063357","0.0-20.0-0.14","5e5dba9e3d60470d71dde9ef","6790928bebf0b969fc839b02","6798275644cc9476fcb60f5f","passed","","","","","","","","","","","","","","","","","ballFalling","500","453.67114317029973","210.33","5","fallScene","true","","","","","63","",""
"","","","","","html-keyboard-response","206","1064360","0.0-20.0-1.14","5e5dba9e3d60470d71dde9ef","6790928bebf0b969fc839b02","6798275644cc9476fcb60f5f","passed","","656","","","","","","","","","","","","","","f","yesOrNo","","","","5","","","mid","1000","","","63","499","300"
"","","","","","html-keyboard-response","207","1065917","0.0-20.0-0.15","5e5dba9e3d60470d71dde9ef","6790928bebf0b969fc839b02","6798275644cc9476fcb60f5f","passed","","","","","","","","","","","","","","","","","ballFalling","604.4000000000001","650.0211431702996","404.58000000000004","11","fallScene","false","","","","","64","",""
"","","","","","html-keyboard-response","208","1066921","0.0-20.0-1.15","5e5dba9e3d60470d71dde9ef","6790928bebf0b969fc839b02","6798275644cc9476fcb60f5f","passed","","762","","","","","","","","","","","","","","j","yesOrNo","","","","11","","","lp","1000","","","64","605.4000000000001","372.6340973215488"
"","","","","","html-keyboard-response","209","1068576","0.0-20.0-0.16","5e5dba9e3d60470d71dde9ef","6790928bebf0b969fc839b02","6798275644cc9476fcb60f5f","passed","","","","","","","","","","","","","","","","","ballFalling","500","479.92114317029973","330.87","6","fallScene","false","","","","","65","",""
"","","","","","html-keyboard-response","210","1069579","0.0-20.0-1.16","5e5dba9e3d60470d71dde9ef","6790928bebf0b969fc839b02","6798275644cc9476fcb60f5f","passed","","607","","","","","","","","","","","","","","f","yesOrNo","","","","6","","","lp","1000","","","65","499","189.92909825697632"
"","","","","","html-keyboard-response","211","1071367","0.0-20.0-0.17","5e5dba9e3d60470d71dde9ef","6790928bebf0b969fc839b02","6798275644cc9476fcb60f5f","passed","","","","","","","","","","","","","","","","","ballFalling","322.3","308.07114317029976","253.89","2","fallScene","false","","","","","66","",""
"","","","","","html-keyboard-response","212","1072371","0.0-20.0-1.17","5e5dba9e3d60470d71dde9ef","6790928bebf0b969fc839b02","6798275644cc9476fcb60f5f","passed","","480","","","","","","","","","","","","","","j","yesOrNo","","","","2","","","lp","1000","","","66","321.3","151"
"","","","","","html-keyboard-response","213","1073942","0.0-20.0-0.18","5e5dba9e3d60470d71dde9ef","6790928bebf0b969fc839b02","6798275644cc9476fcb60f5f","passed","","","","","","","","","","","","","","","","","ballFalling","500","553.4711431702997","282.51","7","fallScene","false","","","","","67","",""
"","","","","","html-keyboard-response","214","1074949","0.0-20.0-1.18","5e5dba9e3d60470d71dde9ef","6790928bebf0b969fc839b02","6798275644cc9476fcb60f5f","passed","","889","","","","","","","","","","","","","","j","yesOrNo","","","","7","","","lp","1000","","","67","501","227.2843295913261"
"","","","","","html-keyboard-response","215","1076516","0.0-20.0-0.19","5e5dba9e3d60470d71dde9ef","6790928bebf0b969fc839b02","6798275644cc9476fcb60f5f","passed","","","","","","","","","","","","","","","","","ballFalling","500","553.4711431702997","282.51","7","fallScene","false","","","","","68","",""
"","","","","","html-keyboard-response","216","1077519","0.0-20.0-1.19","5e5dba9e3d60470d71dde9ef","6790928bebf0b969fc839b02","6798275644cc9476fcb60f5f","passed","","562","","","","","","","","","","","","","","j","yesOrNo","","","","7","","","lp","1000","","","68","501","227.2843295913261"
"","","","","","html-keyboard-response","217","1079075","0.0-20.0-0.20","5e5dba9e3d60470d71dde9ef","6790928bebf0b969fc839b02","6798275644cc9476fcb60f5f","passed","","","","","","","","","","","","","","","","","ballFalling","322.3","356.42114317029973","357.87","4","fallScene","true","","","","","69","",""
"","","","","","html-keyboard-response","218","1080079","0.0-20.0-1.20","5e5dba9e3d60470d71dde9ef","6790928bebf0b969fc839b02","6798275644cc9476fcb60f5f","passed","","536","","","","","","","","","","","","","","j","yesOrNo","","","","4","","","lp","1000","","","69","323.3","297.4070551689986"
"","","","","","html-keyboard-response","219","1081734","0.0-20.0-0.21","5e5dba9e3d60470d71dde9ef","6790928bebf0b969fc839b02","6798275644cc9476fcb60f5f","passed","","","","","","","","","","","","","","","","","ballFalling","500","479.92114317029973","330.87","6","fallScene","true","","","","","70","",""
"","","","","","html-keyboard-response","220","1082739","0.0-20.0-1.21","5e5dba9e3d60470d71dde9ef","6790928bebf0b969fc839b02","6798275644cc9476fcb60f5f","passed","","853","","","","","","","","","","","","","","j","yesOrNo","","","","6","","","mid","1000","","","70","499","300"
"","","","","","html-keyboard-response","221","1084741","0.0-20.0-0.22","5e5dba9e3d60470d71dde9ef","6790928bebf0b969fc839b02","6798275644cc9476fcb60f5f","passed","","","","","","","","","","","","","","","","","ballFalling","604.4000000000001","596.8711431702998","394.5","10","fallScene","false","","","","","71","",""
"","","","","","html-keyboard-response","222","1085745","0.0-20.0-1.22","5e5dba9e3d60470d71dde9ef","6790928bebf0b969fc839b02","6798275644cc9476fcb60f5f","passed","","638","","","","","","","","","","","","","","j","yesOrNo","","","","10","","","lp","1000","","","71","603.4000000000001","215.50214355555383"
"","","","","","html-keyboard-response","223","1087300","0.0-20.0-0.23","5e5dba9e3d60470d71dde9ef","6790928bebf0b969fc839b02","6798275644cc9476fcb60f5f","passed","","","","","","","","","","","","","","","","","ballFalling","322.3","379.3711431702997","245.25","1","fallScene","false","","","","","72","",""
"","","","","","html-keyboard-response","224","1088303","0.0-20.0-1.23","5e5dba9e3d60470d71dde9ef","6790928bebf0b969fc839b02","6798275644cc9476fcb60f5f","passed","","918","","","","","","","","","","","","","","j","yesOrNo","","","","1","","","gt","1000","","","72","379.3711431702997","245.25"
"","","","","","html-keyboard-response","225","1097319","0.0-21.0","5e5dba9e3d60470d71dde9ef","6790928bebf0b969fc839b02","6798275644cc9476fcb60f5f","passed","","9015","","","","","","","","","","","","","<p><span style=""font-size:40px;"">BLOCK 4</span></p><p><span style=""font-size:25px;"">You have <b style=""color: #FF644F;""><strong>1 second(s)</strong></b> to respond to the following trials.</span><br></p><p></p> <!-- Blank line -->
                <p id=""blinking-text"" style=""font-weight; animation: blink 2s infinite;"">Press Space to continue</p>
                <style>
                    @keyframes blink {
                        50% {
                            opacity: 0;
                        }
                    }
                </style></p>"," ","","","","","","","","","","","","","",""
"","","","","","html-keyboard-response","226","1098878","0.0-22.0-0.0","5e5dba9e3d60470d71dde9ef","6790928bebf0b969fc839b02","6798275644cc9476fcb60f5f","passed","","","","","","","","","","","","","","","","","ballFalling","322.3","379.3711431702997","245.25","1","fallScene","false","","","","","73","",""
"","","","","","html-keyboard-response","227","1099881","0.0-22.0-1.0","5e5dba9e3d60470d71dde9ef","6790928bebf0b969fc839b02","6798275644cc9476fcb60f5f","passed","","596","","","","","","","","","","","","","","j","yesOrNo","","","","1","","","lp","1000","","","73","323.3","217.74551669457017"
"","","","","","html-keyboard-response","228","1101438","0.0-22.0-0.1","5e5dba9e3d60470d71dde9ef","6790928bebf0b969fc839b02","6798275644cc9476fcb60f5f","passed","","","","","","","","","","","","","","","","","ballFalling","500","453.67114317029973","210.33","5","fallScene","false","","","","","74","",""
"","","","","","html-keyboard-response","229","1102441","0.0-22.0-1.1","5e5dba9e3d60470d71dde9ef","6790928bebf0b969fc839b02","6798275644cc9476fcb60f5f","passed","","742","","","","","","","","","","","","","","j","yesOrNo","","","","5","","","gt","1000","","","74","453.6711431702998","210.33"
"","","","","","html-keyboard-response","230","1104229","0.0-22.0-0.2","5e5dba9e3d60470d71dde9ef","6790928bebf0b969fc839b02","6798275644cc9476fcb60f5f","passed","","","","","","","","","","","","","","","","","ballFalling","322.3","308.07114317029976","253.89","2","fallScene","false","","","","","75","",""
"","","","","","html-keyboard-response","231","1105235","0.0-22.0-1.2","5e5dba9e3d60470d71dde9ef","6790928bebf0b969fc839b02","6798275644cc9476fcb60f5f","passed","","774","","","","","","","","","","","","","","f","yesOrNo","","","","2","","","gt","1000","","","75","308.07114317029976","253.89"
"","","","","","html-keyboard-response","232","1106787","0.0-22.0-0.3","5e5dba9e3d60470d71dde9ef","6790928bebf0b969fc839b02","6798275644cc9476fcb60f5f","passed","","","","","","","","","","","","","","","","","ballFalling","322.3","296.07114317029976","371.46","3","fallScene","false","","","","","76","",""
"","","","","","html-keyboard-response","233","1107792","0.0-22.0-1.3","5e5dba9e3d60470d71dde9ef","6790928bebf0b969fc839b02","6798275644cc9476fcb60f5f","passed","","null","","","","","","","","","","","","","","null","yesOrNo","","","","3","","","lp","1000","","","76","321.3","287.3327096511259"
"","","","","","html-keyboard-response","234","1109796","0.0-22.0-0.4","5e5dba9e3d60470d71dde9ef","6790928bebf0b969fc839b02","6798275644cc9476fcb60f5f","passed","","","","","","","","","","","","","","","","","ballFalling","500","510.8711431702997","369.03","8","fallScene","true","","","","","77","",""
"","","","","","html-keyboard-response","235","1110800","0.0-22.0-1.4","5e5dba9e3d60470d71dde9ef","6790928bebf0b969fc839b02","6798275644cc9476fcb60f5f","passed","","299","","","","","","","","","","","","","","j","yesOrNo","","","","8","","","lp","1000","","","77","501","151"
"","","","","","html-keyboard-response","236","1112355","0.0-22.0-0.5","5e5dba9e3d60470d71dde9ef","6790928bebf0b969fc839b02","6798275644cc9476fcb60f5f","passed","","","","","","","","","","","","","","","","","ballFalling","604.4000000000001","650.0211431702996","404.58000000000004","11","fallScene","true","","","","","78","",""
"","","","","","html-keyboard-response","237","1113358","0.0-22.0-1.5","5e5dba9e3d60470d71dde9ef","6790928bebf0b969fc839b02","6798275644cc9476fcb60f5f","passed","","610","","","","","","","","","","","","","","j","yesOrNo","","","","11","","","lp","1000","","","78","605.4000000000001","372.6340973215488"
"","","","","","html-keyboard-response","238","1114846","0.0-22.0-0.6","5e5dba9e3d60470d71dde9ef","6790928bebf0b969fc839b02","6798275644cc9476fcb60f5f","passed","","","","","","","","","","","","","","","","","ballFalling","604.4000000000001","667.6211431702998","201.78","9","fallScene","false","","","","","79","",""
"","","","","","html-keyboard-response","239","1115850","0.0-22.0-1.6","5e5dba9e3d60470d71dde9ef","6790928bebf0b969fc839b02","6798275644cc9476fcb60f5f","passed","","591","","","","","","","","","","","","","","j","yesOrNo","","","","9","","","mid","1000","","","79","605.4000000000001","300"
"","","","","","html-keyboard-response","240","1117420","0.0-22.0-0.7","5e5dba9e3d60470d71dde9ef","6790928bebf0b969fc839b02","6798275644cc9476fcb60f5f","passed","","","","","","","","","","","","","","","","","ballFalling","500","553.4711431702997","282.51","7","fallScene","false","","","","","80","",""
"","","","","","html-keyboard-response","241","1118423","0.0-22.0-1.7","5e5dba9e3d60470d71dde9ef","6790928bebf0b969fc839b02","6798275644cc9476fcb60f5f","passed","","755","","","","","","","","","","","","","","j","yesOrNo","","","","7","","","gt","1000","","","80","553.4711431702997","282.51"
"","","","","","html-keyboard-response","242","1120080","0.0-22.0-0.8","5e5dba9e3d60470d71dde9ef","6790928bebf0b969fc839b02","6798275644cc9476fcb60f5f","passed","","","","","","","","","","","","","","","","","ballFalling","500","479.92114317029973","330.87","6","fallScene","true","","","","","81","",""
"","","","","","html-keyboard-response","243","1121083","0.0-22.0-1.8","5e5dba9e3d60470d71dde9ef","6790928bebf0b969fc839b02","6798275644cc9476fcb60f5f","passed","","642","","","","","","","","","","","","","","f","yesOrNo","","","","6","","","lp","1000","","","81","499","189.92909825697632"
"","","","","","html-keyboard-response","244","1122638","0.0-22.0-0.9","5e5dba9e3d60470d71dde9ef","6790928bebf0b969fc839b02","6798275644cc9476fcb60f5f","passed","","","","","","","","","","","","","","","","","ballFalling","322.3","379.3711431702997","245.25","1","fallScene","true","","","","","82","",""
"","","","","","html-keyboard-response","245","1123643","0.0-22.0-1.9","5e5dba9e3d60470d71dde9ef","6790928bebf0b969fc839b02","6798275644cc9476fcb60f5f","passed","","447","","","","","","","","","","","","","","j","yesOrNo","","","","1","","","gt","1000","","","82","379.3711431702997","245.25"
"","","","","","html-keyboard-response","246","1125195","0.0-22.0-0.10","5e5dba9e3d60470d71dde9ef","6790928bebf0b969fc839b02","6798275644cc9476fcb60f5f","passed","","","","","","","","","","","","","","","","","ballFalling","500","453.67114317029973","210.33","5","fallScene","true","","","","","83","",""
"","","","","","html-keyboard-response","247","1126200","0.0-22.0-1.10","5e5dba9e3d60470d71dde9ef","6790928bebf0b969fc839b02","6798275644cc9476fcb60f5f","passed","","558","","","","","","","","","","","","","","f","yesOrNo","","","","5","","","lp","1000","","","83","499","151"
"","","","","","html-keyboard-response","248","1128204","0.0-22.0-0.11","5e5dba9e3d60470d71dde9ef","6790928bebf0b969fc839b02","6798275644cc9476fcb60f5f","passed","","","","","","","","","","","","","","","","","ballFalling","500","510.8711431702997","369.03","8","fallScene","true","","","","","84","",""
"","","","","","html-keyboard-response","249","1129211","0.0-22.0-1.11","5e5dba9e3d60470d71dde9ef","6790928bebf0b969fc839b02","6798275644cc9476fcb60f5f","passed","","540","","","","","","","","","","","","","","j","yesOrNo","","","","8","","","mid","1000","","","84","501","300"
"","","","","","html-keyboard-response","250","1130764","0.0-22.0-0.12","5e5dba9e3d60470d71dde9ef","6790928bebf0b969fc839b02","6798275644cc9476fcb60f5f","passed","","","","","","","","","","","","","","","","","ballFalling","500","453.67114317029973","210.33","5","fallScene","false","","","","","85","",""
"","","","","","html-keyboard-response","251","1131768","0.0-22.0-1.12","5e5dba9e3d60470d71dde9ef","6790928bebf0b969fc839b02","6798275644cc9476fcb60f5f","passed","","789","","","","","","","","","","","","","","j","yesOrNo","","","","5","","","lp","1000","","","85","499","151"
"","","","","","html-keyboard-response","252","1133771","0.0-22.0-0.13","5e5dba9e3d60470d71dde9ef","6790928bebf0b969fc839b02","6798275644cc9476fcb60f5f","passed","","","","","","","","","","","","","","","","","ballFalling","500","510.8711431702997","369.03","8","fallScene","true","","","","","86","",""
"","","","","","html-keyboard-response","253","1134777","0.0-22.0-1.13","5e5dba9e3d60470d71dde9ef","6790928bebf0b969fc839b02","6798275644cc9476fcb60f5f","passed","","556","","","","","","","","","","","","","","j","yesOrNo","","","","8","","","gt","1000","","","86","510.8711431702997","369.03"
"","","","","","html-keyboard-response","254","1136331","0.0-22.0-0.14","5e5dba9e3d60470d71dde9ef","6790928bebf0b969fc839b02","6798275644cc9476fcb60f5f","passed","","","","","","","","","","","","","","","","","ballFalling","322.3","356.42114317029973","357.87","4","fallScene","true","","","","","87","",""
"","","","","","html-keyboard-response","255","1137336","0.0-22.0-1.14","5e5dba9e3d60470d71dde9ef","6790928bebf0b969fc839b02","6798275644cc9476fcb60f5f","passed","","572","","","","","","","","","","","","","","j","yesOrNo","","","","4","","","gt","1000","","","87","356.42114317029973","357.87"
"","","","","","html-keyboard-response","256","1138888","0.0-22.0-0.15","5e5dba9e3d60470d71dde9ef","6790928bebf0b969fc839b02","6798275644cc9476fcb60f5f","passed","","","","","","","","","","","","","","","","","ballFalling","604.4000000000001","575.4211431702997","266.76","12","fallScene","false","","","","","88","",""
"","","","","","html-keyboard-response","257","1139892","0.0-22.0-1.15","5e5dba9e3d60470d71dde9ef","6790928bebf0b969fc839b02","6798275644cc9476fcb60f5f","passed","","716","","","","","","","","","","","","","","f","yesOrNo","","","","12","","","lp","1000","","","88","603.4000000000001","151"
"","","","","","html-keyboard-response","258","1141896","0.0-22.0-0.16","5e5dba9e3d60470d71dde9ef","6790928bebf0b969fc839b02","6798275644cc9476fcb60f5f","passed","","","","","","","","","","","","","","","","","ballFalling","500","510.8711431702997","369.03","8","fallScene","true","","","","","89","",""
"","","","","","html-keyboard-response","259","1142902","0.0-22.0-1.16","5e5dba9e3d60470d71dde9ef","6790928bebf0b969fc839b02","6798275644cc9476fcb60f5f","passed","","461","","","","","","","","","","","","","","j","yesOrNo","","","","8","","","mid","1000","","","89","501","300"
"","","","","","html-keyboard-response","260","1144905","0.0-22.0-0.17","5e5dba9e3d60470d71dde9ef","6790928bebf0b969fc839b02","6798275644cc9476fcb60f5f","passed","","","","","","","","","","","","","","","","","ballFalling","604.4000000000001","596.8711431702998","394.5","10","fallScene","true","","","","","90","",""
"","","","","","html-keyboard-response","261","1145910","0.0-22.0-1.17","5e5dba9e3d60470d71dde9ef","6790928bebf0b969fc839b02","6798275644cc9476fcb60f5f","passed","","490","","","","","","","","","","","","","","f","yesOrNo","","","","10","","","mid","1000","","","90","536.4288568297004","300"
"","","","","","html-keyboard-response","262","1147914","0.0-22.0-0.18","5e5dba9e3d60470d71dde9ef","6790928bebf0b969fc839b02","6798275644cc9476fcb60f5f","passed","","","","","","","","","","","","","","","","","ballFalling","604.4000000000001","596.8711431702998","394.5","10","fallScene","true","","","","","91","",""
"","","","","","html-keyboard-response","263","1148918","0.0-22.0-1.18","5e5dba9e3d60470d71dde9ef","6790928bebf0b969fc839b02","6798275644cc9476fcb60f5f","passed","","622","","","","","","","","","","","","","","j","yesOrNo","","","","10","","","mid","1000","","","91","536.4288568297004","300"
"","","","","","html-keyboard-response","264","1150921","0.0-22.0-0.19","5e5dba9e3d60470d71dde9ef","6790928bebf0b969fc839b02","6798275644cc9476fcb60f5f","passed","","","","","","","","","","","","","","","","","ballFalling","604.4000000000001","596.8711431702998","394.5","10","fallScene","true","","","","","92","",""
"","","","","","html-keyboard-response","265","1151927","0.0-22.0-1.19","5e5dba9e3d60470d71dde9ef","6790928bebf0b969fc839b02","6798275644cc9476fcb60f5f","passed","","707","","","","","","","","","","","","","","j","yesOrNo","","","","10","","","gt","1000","","","92","596.8711431702998","394.5"
"","","","","","html-keyboard-response","266","1153713","0.0-22.0-0.20","5e5dba9e3d60470d71dde9ef","6790928bebf0b969fc839b02","6798275644cc9476fcb60f5f","passed","","","","","","","","","","","","","","","","","ballFalling","322.3","308.07114317029976","253.89","2","fallScene","true","","","","","93","",""
"","","","","","html-keyboard-response","267","1154717","0.0-22.0-1.20","5e5dba9e3d60470d71dde9ef","6790928bebf0b969fc839b02","6798275644cc9476fcb60f5f","passed","","772","","","","","","","","","","","","","","j","yesOrNo","","","","2","","","mid","1000","","","93","321.3","300"
"","","","","","html-keyboard-response","268","1156271","0.0-22.0-0.21","5e5dba9e3d60470d71dde9ef","6790928bebf0b969fc839b02","6798275644cc9476fcb60f5f","passed","","","","","","","","","","","","","","","","","ballFalling","604.4000000000001","650.0211431702996","404.58000000000004","11","fallScene","true","","","","","94","",""
"","","","","","html-keyboard-response","269","1157277","0.0-22.0-1.21","5e5dba9e3d60470d71dde9ef","6790928bebf0b969fc839b02","6798275644cc9476fcb60f5f","passed","","938","","","","","","","","","","","","","","f","yesOrNo","","","","11","","","gt","1000","","","94","650.0211431702996","404.58"
"","","","","","html-keyboard-response","270","1158829","0.0-22.0-0.22","5e5dba9e3d60470d71dde9ef","6790928bebf0b969fc839b02","6798275644cc9476fcb60f5f","passed","","","","","","","","","","","","","","","","","ballFalling","322.3","356.42114317029973","357.87","4","fallScene","true","","","","","95","",""
"","","","","","html-keyboard-response","271","1159835","0.0-22.0-1.22","5e5dba9e3d60470d71dde9ef","6790928bebf0b969fc839b02","6798275644cc9476fcb60f5f","passed","","600","","","","","","","","","","","","","","j","yesOrNo","","","","4","","","gt","1000","","","95","356.42114317029973","357.87"
"","","","","","html-keyboard-response","272","1161386","0.0-22.0-0.23","5e5dba9e3d60470d71dde9ef","6790928bebf0b969fc839b02","6798275644cc9476fcb60f5f","passed","","","","","","","","","","","","","","","","","ballFalling","604.4000000000001","575.4211431702997","266.76","12","fallScene","false","","","","","96","",""
"","","","","","html-keyboard-response","273","1162390","0.0-22.0-1.23","5e5dba9e3d60470d71dde9ef","6790928bebf0b969fc839b02","6798275644cc9476fcb60f5f","passed","","475","","","","","","","","","","","","","","j","yesOrNo","","","","12","","","mid","1000","","","96","536.4288568297004","300"
"","","","","","html-keyboard-response","274","1258471","0.0-23.0","5e5dba9e3d60470d71dde9ef","6790928bebf0b969fc839b02","6798275644cc9476fcb60f5f","passed","","96080","","","","","","","","","","","","","<p><span style=""font-size:40px;"">BLOCK 5</span></p><p><span style=""font-size:25px;"">You have <b style=""color: #FF644F;""><strong>3 second(s)</strong></b> to respond to the following trials.</span><br></p><p></p> <!-- Blank line -->
                <p id=""blinking-text"" style=""font-weight; animation: blink 2s infinite;"">Press Space to continue</p>
                <style>
                    @keyframes blink {
                        50% {
                            opacity: 0;
                        }
                    }
                </style></p>"," ","","","","","","","","","","","","","",""
"","","","","","html-keyboard-response","275","1260047","0.0-24.0-0.0","5e5dba9e3d60470d71dde9ef","6790928bebf0b969fc839b02","6798275644cc9476fcb60f5f","passed","","","","","","","","","","","","","","","","","ballFalling","500","553.4711431702997","282.51","7","fallScene","true","","","","","97","",""
"","","","","","html-keyboard-response","276","1263051","0.0-24.0-1.0","5e5dba9e3d60470d71dde9ef","6790928bebf0b969fc839b02","6798275644cc9476fcb60f5f","passed","","1691","","","","","","","","","","","","","","f","yesOrNo","","","","7","","","lp","3000","","","97","501","227.2843295913261"
"","","","","","html-keyboard-response","277","1264607","0.0-24.0-0.1","5e5dba9e3d60470d71dde9ef","6790928bebf0b969fc839b02","6798275644cc9476fcb60f5f","passed","","","","","","","","","","","","","","","","","ballFalling","322.3","356.42114317029973","357.87","4","fallScene","false","","","","","98","",""
"","","","","","html-keyboard-response","278","1267611","0.0-24.0-1.1","5e5dba9e3d60470d71dde9ef","6790928bebf0b969fc839b02","6798275644cc9476fcb60f5f","passed","","961","","","","","","","","","","","","","","j","yesOrNo","","","","4","","","lp","3000","","","98","323.3","297.4070551689986"
"","","","","","html-keyboard-response","279","1269614","0.0-24.0-0.2","5e5dba9e3d60470d71dde9ef","6790928bebf0b969fc839b02","6798275644cc9476fcb60f5f","passed","","","","","","","","","","","","","","","","","ballFalling","500","510.8711431702997","369.03","8","fallScene","true","","","","","99","",""
"","","","","","html-keyboard-response","280","1272618","0.0-24.0-1.2","5e5dba9e3d60470d71dde9ef","6790928bebf0b969fc839b02","6798275644cc9476fcb60f5f","passed","","755","","","","","","","","","","","","","","j","yesOrNo","","","","8","","","mid","3000","","","99","501","300"
"","","","","","html-keyboard-response","281","1274272","0.0-24.0-0.3","5e5dba9e3d60470d71dde9ef","6790928bebf0b969fc839b02","6798275644cc9476fcb60f5f","passed","","","","","","","","","","","","","","","","","ballFalling","500","479.92114317029973","330.87","6","fallScene","false","","","","","100","",""
"","","","","","html-keyboard-response","282","1277276","0.0-24.0-1.3","5e5dba9e3d60470d71dde9ef","6790928bebf0b969fc839b02","6798275644cc9476fcb60f5f","passed","","2112","","","","","","","","","","","","","","f","yesOrNo","","","","6","","","mid","3000","","","100","499","300"
"","","","","","html-keyboard-response","283","1278931","0.0-24.0-0.4","5e5dba9e3d60470d71dde9ef","6790928bebf0b969fc839b02","6798275644cc9476fcb60f5f","passed","","","","","","","","","","","","","","","","","ballFalling","500","479.92114317029973","330.87","6","fallScene","true","","","","","101","",""
"","","","","","html-keyboard-response","284","1281936","0.0-24.0-1.4","5e5dba9e3d60470d71dde9ef","6790928bebf0b969fc839b02","6798275644cc9476fcb60f5f","passed","","1118","","","","","","","","","","","","","","f","yesOrNo","","","","6","","","lp","3000","","","101","499","189.92909825697632"
"","","","","","html-keyboard-response","285","1283939","0.0-24.0-0.5","5e5dba9e3d60470d71dde9ef","6790928bebf0b969fc839b02","6798275644cc9476fcb60f5f","passed","","","","","","","","","","","","","","","","","ballFalling","604.4000000000001","596.8711431702998","394.5","10","fallScene","false","","","","","102","",""
"","","","","","html-keyboard-response","286","1286943","0.0-24.0-1.5","5e5dba9e3d60470d71dde9ef","6790928bebf0b969fc839b02","6798275644cc9476fcb60f5f","passed","","676","","","","","","","","","","","","","","j","yesOrNo","","","","10","","","gt","3000","","","102","596.8711431702998","394.5"
"","","","","","html-keyboard-response","287","1288497","0.0-24.0-0.6","5e5dba9e3d60470d71dde9ef","6790928bebf0b969fc839b02","6798275644cc9476fcb60f5f","passed","","","","","","","","","","","","","","","","","ballFalling","322.3","379.3711431702997","245.25","1","fallScene","true","","","","","103","",""
"","","","","","html-keyboard-response","288","1291500","0.0-24.0-1.6","5e5dba9e3d60470d71dde9ef","6790928bebf0b969fc839b02","6798275644cc9476fcb60f5f","passed","","959","","","","","","","","","","","","","","j","yesOrNo","","","","1","","","lp","3000","","","103","323.3","217.74551669457017"
"","","","","","html-keyboard-response","289","1293056","0.0-24.0-0.7","5e5dba9e3d60470d71dde9ef","6790928bebf0b969fc839b02","6798275644cc9476fcb60f5f","passed","","","","","","","","","","","","","","","","","ballFalling","322.3","356.42114317029973","357.87","4","fallScene","true","","","","","104","",""
"","","","","","html-keyboard-response","290","1296059","0.0-24.0-1.7","5e5dba9e3d60470d71dde9ef","6790928bebf0b969fc839b02","6798275644cc9476fcb60f5f","passed","","776","","","","","","","","","","","","","","j","yesOrNo","","","","4","","","gt","3000","","","104","356.42114317029973","357.87"
"","","","","","html-keyboard-response","291","1297613","0.0-24.0-0.8","5e5dba9e3d60470d71dde9ef","6790928bebf0b969fc839b02","6798275644cc9476fcb60f5f","passed","","","","","","","","","","","","","","","","","ballFalling","604.4000000000001","650.0211431702996","404.58000000000004","11","fallScene","false","","","","","105","",""
"","","","","","html-keyboard-response","292","1300619","0.0-24.0-1.8","5e5dba9e3d60470d71dde9ef","6790928bebf0b969fc839b02","6798275644cc9476fcb60f5f","passed","","1046","","","","","","","","","","","","","","j","yesOrNo","","","","11","","","gt","3000","","","105","650.0211431702996","404.58"
"","","","","","html-keyboard-response","293","1302172","0.0-24.0-0.9","5e5dba9e3d60470d71dde9ef","6790928bebf0b969fc839b02","6798275644cc9476fcb60f5f","passed","","","","","","","","","","","","","","","","","ballFalling","322.3","296.07114317029976","371.46","3","fallScene","true","","","","","106","",""
"","","","","","html-keyboard-response","294","1305175","0.0-24.0-1.9","5e5dba9e3d60470d71dde9ef","6790928bebf0b969fc839b02","6798275644cc9476fcb60f5f","passed","","1665","","","","","","","","","","","","","","j","yesOrNo","","","","3","","","lp","3000","","","106","321.3","287.3327096511259"
"","","","","","html-keyboard-response","295","1307180","0.0-24.0-0.10","5e5dba9e3d60470d71dde9ef","6790928bebf0b969fc839b02","6798275644cc9476fcb60f5f","passed","","","","","","","","","","","","","","","","","ballFalling","500","510.8711431702997","369.03","8","fallScene","true","","","","","107","",""
"","","","","","html-keyboard-response","296","1310184","0.0-24.0-1.10","5e5dba9e3d60470d71dde9ef","6790928bebf0b969fc839b02","6798275644cc9476fcb60f5f","passed","","1133","","","","","","","","","","","","","","j","yesOrNo","","","","8","","","gt","3000","","","107","510.8711431702997","369.03"
"","","","","","html-keyboard-response","297","1311973","0.0-24.0-0.11","5e5dba9e3d60470d71dde9ef","6790928bebf0b969fc839b02","6798275644cc9476fcb60f5f","passed","","","","","","","","","","","","","","","","","ballFalling","322.3","308.07114317029976","253.89","2","fallScene","true","","","","","108","",""
"","","","","","html-keyboard-response","298","1314976","0.0-24.0-1.11","5e5dba9e3d60470d71dde9ef","6790928bebf0b969fc839b02","6798275644cc9476fcb60f5f","passed","","1948","","","","","","","","","","","","","","j","yesOrNo","","","","2","","","mid","3000","","","108","321.3","300"
"","","","","","html-keyboard-response","299","1316535","0.0-24.0-0.12","5e5dba9e3d60470d71dde9ef","6790928bebf0b969fc839b02","6798275644cc9476fcb60f5f","passed","","","","","","","","","","","","","","","","","ballFalling","604.4000000000001","575.4211431702997","266.76","12","fallScene","true","","","","","109","",""
