"success","timeout","failed_images","failed_audio","failed_video","trial_type","trial_index","time_elapsed","internal_node_id","subject_id","study_id","session_id","practiceTestResult","view_history","rt","width","height","webaudio","browser","browser_version","mobile","os","fullscreen","vsync_rate","webcam","microphone","url","stimulus","response","task","ball_X","obstacle_groundTruth_x","obstacle_groundTruth_y","stimulus_idx","trial_name","flipped","choice","timeLimit","question_order","comprehensionCheck","currentTrial","obstacle_choice_x","obstacle_choice_y"
"true","false","[]","[]","[]","preload","0","802","0.0-0.0","5e648efca8c76520c918bb31","6790928bebf0b969fc839b02","67982616c22679020ba106d8","passed","","","","","","","","","","","","","","","","","","","","","","","","","","","","","",""
"","","","","","instructions","1","2248","0.0-1.0","5e648efca8c76520c918bb31","6790928bebf0b969fc839b02","67982616c22679020ba106d8","passed","[{""page_index"":0,""viewing_time"":1445}]","1446","","","","","","","","","","","","","","","","","","","","","","","","","","","",""
"","","","","","browser-check","2","3244","0.0-2.0","5e648efca8c76520c918bb31","6790928bebf0b969fc839b02","67982616c22679020ba106d8","passed","","","1920","1065","true","chrome","132.0.0","false","Windows 10","true","60.45","false","false","","","","","","","","","","","","","","","","",""
"","","","","","external-html","3","6685","0.0-3.0","5e648efca8c76520c918bb31","6790928bebf0b969fc839b02","67982616c22679020ba106d8","passed","","3390","","","","","","","","","","","","consent.html","","","","","","","","","","","","","","","",""
"true","","","","","fullscreen","4","9114","0.0-4.0","5e648efca8c76520c918bb31","6790928bebf0b969fc839b02","67982616c22679020ba106d8","passed","","2113","","","","","","","","","","","","","","","","","","","","","","","","","","","",""
"","","","","","browser-check","5","10116","0.0-5.0","5e648efca8c76520c918bb31","6790928bebf0b969fc839b02","67982616c22679020ba106d8","passed","","","1920","1200","true","chrome","132.0.0","false","Windows 10","true","59.97","false","false","","","","","","","","","","","","","","","","",""
"","","","","","html-keyboard-response","6","12087","0.0-6.0","5e648efca8c76520c918bb31","6790928bebf0b969fc839b02","67982616c22679020ba106d8","passed","","1970","","","","","","","","","","","","","<p><b>This experiment requires keyboard input.</b></p> 
        <p><b>To ensure your response will be recorded successfully, please press 'Space' to continue.</b></p>
        <p>If you can't proceed, you won't be able to complete this study.</p>
        <p></p> <!-- Blank line -->
        <p id=""blinking-text"" style=""font-weight; animation: blink 2s infinite;"">Press Space to continue</p>
        <style>
            @keyframes blink {
                50% {
                    opacity: 0;
                }
            }
        </style>"," ","","","","","","","","","","","","","",""
"","","","","","html-keyboard-response","7","13480","0.0-7.0","5e648efca8c76520c918bb31","6790928bebf0b969fc839b02","67982616c22679020ba106d8","passed","","1391","","","","","","","","","","","","","<p><b>This experiment requires keyboard input.</b></p> 
        <p><b>To ensure your response will be recorded successfully, please press the 'f' key to continue.</b></p>
        <p>If you can't proceed, you won't be able to complete this study.</p>
        <p></p> <!-- Blank line -->
        <p id=""blinking-text"" style=""font-weight; animation: blink 2s infinite;"">Press f to continue</p>
        <style>
            @keyframes blink {
                50% {
                    opacity: 0;
                }
            }
        </style>","f","","","","","","","","","","","","","",""
"","","","","","html-keyboard-response","8","15103","0.0-8.0","5e648efca8c76520c918bb31","6790928bebf0b969fc839b02","67982616c22679020ba106d8","passed","","1622","","","","","","","","","","","","","<p><b>This experiment requires keyboard input.</b></p> 
        <p><b>To ensure your response will be recorded successfully, please press the 'j' key to continue.</b></p>
        <p>If you can't proceed, you won't be able to complete this study.</p>
        <p></p> <!-- Blank line -->
        <p id=""blinking-text"" style=""font-weight; animation: blink 2s infinite;"">Press j to continue</p>
        <style>
            @keyframes blink {
                50% {
                    opacity: 0;
                }
            }
        </style>","j","","","","","","","","","","","","","",""
"","","","","","browser-check","9","16104","0.0-9.0","5e648efca8c76520c918bb31","6790928bebf0b969fc839b02","67982616c22679020ba106d8","passed","","","1920","1200","true","chrome","132.0.0","false","Windows 10","true","59.99","false","false","","","","","","","","","","","","","","","","",""
"","","","","","survey-text","10","24555","0.0-10.0","5e648efca8c76520c918bb31","6790928bebf0b969fc839b02","67982616c22679020ba106d8","passed","","8448","","","","","","","","","","","","","","{""prolificID"":""5e648efca8c76520c918bb31""}","","","","","","","","","","","","","",""
"","","","","","instructions","11","52309","0.0-11.0-0.0-0.0","5e648efca8c76520c918bb31","6790928bebf0b969fc839b02","67982616c22679020ba106d8","passed","[{""page_index"":0,""viewing_time"":6423},{""page_index"":1,""viewing_time"":2597},{""page_index"":2,""viewing_time"":6296},{""page_index"":3,""viewing_time"":12436}]","27752","","","","","","","","","","","","","","","","","","","","","","","","","","","",""
"","","","","","html-keyboard-response","12","74759","0.0-11.0-0.0-1.0","5e648efca8c76520c918bb31","6790928bebf0b969fc839b02","67982616c22679020ba106d8","passed","","21933","","","","","","","","","","","","","<br>Remember! After a ball falls, the screen will disappear, and you'll decide if the proposed position is where the hidden triangle was. <br>You will now practice this by watching a few videos and making decisions.<p>To respond:<br style=""margin-bottom: 5px; text-indent: -20px; padding-left: 20px;"">- Press <b style=""color: #12AD2B;"">J for Yes</b>, if you think the triangle is in the correct position.<br style=""margin-top: 0; text-indent: -20px; padding-left: 20px;"">- Press <b style=""color: orange;"">F for No</b>, if you think the triangle is not in the correct position.</p><p>In this practice round, there is no time limit. Focus on getting comfortable with the task first.<br>Press either J or F to begin your practice trials.</p><img src = ""YesOrNo_instruction.png"" style=""width: 65%;""></img>","f","","","","","","","","","","","","","",""
"","","","","","html-keyboard-response","13","76321","0.0-11.0-0.0-2.0-0.0","5e648efca8c76520c918bb31","6790928bebf0b969fc839b02","67982616c22679020ba106d8","passed","","","","","","","","","","","","","","","","","ballFalling_prac","416","464","296","1","fallScene","false","","","","","","",""
"","","","","","html-keyboard-response","14","79126","0.0-11.0-0.0-2.0-1.0","5e648efca8c76520c918bb31","6790928bebf0b969fc839b02","67982616c22679020ba106d8","passed","","2799","","","","","","","","","","","","","","j","yesOrNo_prac_noTimed","","","","1","","","gt","NA","","","","",""
"","","","","","html-keyboard-response","15","81241","0.0-11.0-0.0-2.0-0.1","5e648efca8c76520c918bb31","6790928bebf0b969fc839b02","67982616c22679020ba106d8","passed","","","","","","","","","","","","","","","","","ballFalling_prac","660","666","350","3","fallScene","false","","","","","","",""
"","","","","","html-keyboard-response","16","82718","0.0-11.0-0.0-2.0-1.1","5e648efca8c76520c918bb31","6790928bebf0b969fc839b02","67982616c22679020ba106d8","passed","","1474","","","","","","","","","","","","","","f","yesOrNo_prac_noTimed","","","","3","","","wrong direction","NA","","","","",""
"","","","","","html-keyboard-response","17","84293","0.0-11.0-0.0-2.0-0.2","5e648efca8c76520c918bb31","6790928bebf0b969fc839b02","67982616c22679020ba106d8","passed","","","","","","","","","","","","","","","","","ballFalling_prac","441","414","302","5","fallScene","true","","","","","","",""
"","","","","","html-keyboard-response","18","85054","0.0-11.0-0.0-2.0-1.2","5e648efca8c76520c918bb31","6790928bebf0b969fc839b02","67982616c22679020ba106d8","passed","","759","","","","","","","","","","","","","","j","yesOrNo_prac_noTimed","","","","5","","","close gt","NA","","","","",""
"","","","","","instructions","19","103901","0.0-11.0-0.0-3.0","5e648efca8c76520c918bb31","6790928bebf0b969fc839b02","67982616c22679020ba106d8","passed","[{""page_index"":0,""viewing_time"":15426},{""page_index"":1,""viewing_time"":3418}]","18845","","","","","","","","","","","","","","","","","","","","","","","","","","","",""
"","","","","","html-button-response","20","105975","0.0-11.0-0.0-4.0","5e648efca8c76520c918bb31","6790928bebf0b969fc839b02","67982616c22679020ba106d8","passed","","1558","","","","","","","","","","","","","<p>To make sure you understood the task, we just have a <b>brief quiz</b> here.</p><p>If you need to review the instructions, click 'Previous'.</p><p>It's important to understand the task to do the study, so you have to pass the quiz to move to the study.</p>","1","","","","","","","","","","","","","",""
"","","","","","survey-multi-choice","21","116291","0.0-11.0-1.0-0.0","5e648efca8c76520c918bb31","6790928bebf0b969fc839b02","67982616c22679020ba106d8","passed","","10315","","","","","","","","","","","","","","{""generalProcedure"":""Watch a video of a ball falling, some of it behind a gray screen. After each video, decide if the triangle is at the spot where the ball hit the triangle behind the screen. There is time limit for the response.""}","","","","","","","","","","[0]","","","",""
"","","","","","survey-multi-choice","22","119860","0.0-11.0-1.0-1.0","5e648efca8c76520c918bb31","6790928bebf0b969fc839b02","67982616c22679020ba106d8","passed","","3568","","","","","","","","","","","","","","{""checkBallHitObstacle"":""Yes.""}","","","","","","","","","","[0]","","","",""
"","","","","","survey-multi-choice","23","122982","0.0-11.0-1.0-2.0","5e648efca8c76520c918bb31","6790928bebf0b969fc839b02","67982616c22679020ba106d8","passed","","3121","","","","","","","","","","","","","","{""checkTriangleVisibility"":""No, the triangle is hidden behind the gray screen.""}","","","","","","","","","","[0]","","","",""
"","","","","","survey-multi-choice","24","125953","0.0-11.0-1.0-3.0","5e648efca8c76520c918bb31","6790928bebf0b969fc839b02","67982616c22679020ba106d8","passed","","2970","","","","","","","","","","","","","","{""checkTimedResponse"":""Your response will not be recorded, and the trial will move to the next one.""}","","","","","","","","","","[0]","","","",""
"","","","","","survey-multi-choice","25","133660","0.0-11.0-1.0-4.0","5e648efca8c76520c918bb31","6790928bebf0b969fc839b02","67982616c22679020ba106d8","passed","","7706","","","","","","","","","","","","","","{""checkTimeBlockNotice"":""Before every individual trial.""}","","","","","","","","","","[0]","","","",""
"","","","","","survey-multi-choice","26","137849","0.0-11.0-1.0-5.0","5e648efca8c76520c918bb31","6790928bebf0b969fc839b02","67982616c22679020ba106d8","passed","","4189","","","","","","","","","","","","","","{""checkTimeBlockSameness"":""Yes, the time limit is the same for all trials within a block.""}","","","","","","","","","","[0]","","","",""
"","","","","","survey-multi-choice","27","151355","0.0-11.0-1.0-6.0","5e648efca8c76520c918bb31","6790928bebf0b969fc839b02","67982616c22679020ba106d8","passed","","13504","","","","","","","","","","","","","","{""checkTrianglePrecision"":""Yes. The proposed purple triangle is very close to the correct position, so I should choose 'Yes.'""}","","","","","","","","","","[0]","","","",""
"","","","","","html-button-response","28","153197","0.0-11.0-2.0-0.0","5e648efca8c76520c918bb31","6790928bebf0b969fc839b02","67982616c22679020ba106d8","passed","","1841","","","","","","","","","","","","","<p>Oops! You did not pass the quiz.</p><p>You will now repeat the instructions and practice.</p>","0","","","","","","","","","","","failed","","",""
"","","","","","instructions","29","168101","0.0-11.1-0.1-0.1","5e648efca8c76520c918bb31","6790928bebf0b969fc839b02","67982616c22679020ba106d8","passed","[{""page_index"":0,""viewing_time"":5322},{""page_index"":1,""viewing_time"":7165},{""page_index"":2,""viewing_time"":1323},{""page_index"":3,""viewing_time"":1093}]","14903","","","","","","","","","","","","","","","","","","","","","","","","","","","",""
"","","","","","html-keyboard-response","30","171854","0.0-11.1-0.1-1.1","5e648efca8c76520c918bb31","6790928bebf0b969fc839b02","67982616c22679020ba106d8","passed","","3239","","","","","","","","","","","","","<br>Remember! After a ball falls, the screen will disappear, and you'll decide if the proposed position is where the hidden triangle was. <br>You will now practice this by watching a few videos and making decisions.<p>To respond:<br style=""margin-bottom: 5px; text-indent: -20px; padding-left: 20px;"">- Press <b style=""color: #12AD2B;"">J for Yes</b>, if you think the triangle is in the correct position.<br style=""margin-top: 0; text-indent: -20px; padding-left: 20px;"">- Press <b style=""color: orange;"">F for No</b>, if you think the triangle is not in the correct position.</p><p>In this practice round, there is no time limit. Focus on getting comfortable with the task first.<br>Press either J or F to begin your practice trials.</p><img src = ""YesOrNo_instruction.png"" style=""width: 65%;""></img>","f","","","","","","","","","","","","","",""
"","","","","","html-keyboard-response","31","173401","0.0-11.1-0.1-2.1-0.3","5e648efca8c76520c918bb31","6790928bebf0b969fc839b02","67982616c22679020ba106d8","passed","","","","","","","","","","","","","","","","","ballFalling_prac","416","464","296","1","fallScene","false","","","","","","",""
"","","","","","html-keyboard-response","32","175220","0.0-11.1-0.1-2.1-1.3","5e648efca8c76520c918bb31","6790928bebf0b969fc839b02","67982616c22679020ba106d8","passed","","1817","","","","","","","","","","","","","","j","yesOrNo_prac_noTimed","","","","1","","","gt","NA","","","","",""
"","","","","","html-keyboard-response","33","176803","0.0-11.1-0.1-2.1-0.4","5e648efca8c76520c918bb31","6790928bebf0b969fc839b02","67982616c22679020ba106d8","passed","","","","","","","","","","","","","","","","","ballFalling_prac","441","414","302","5","fallScene","true","","","","","","",""
"","","","","","html-keyboard-response","34","177413","0.0-11.1-0.1-2.1-1.4","5e648efca8c76520c918bb31","6790928bebf0b969fc839b02","67982616c22679020ba106d8","passed","","608","","","","","","","","","","","","","","j","yesOrNo_prac_noTimed","","","","5","","","close gt","NA","","","","",""
"","","","","","html-keyboard-response","35","179521","0.0-11.1-0.1-2.1-0.5","5e648efca8c76520c918bb31","6790928bebf0b969fc839b02","67982616c22679020ba106d8","passed","","","","","","","","","","","","","","","","","ballFalling_prac","660","666","350","3","fallScene","false","","","","","","",""
"","","","","","html-keyboard-response","36","180149","0.0-11.1-0.1-2.1-1.5","5e648efca8c76520c918bb31","6790928bebf0b969fc839b02","67982616c22679020ba106d8","passed","","626","","","","","","","","","","","","","","f","yesOrNo_prac_noTimed","","","","3","","","wrong direction","NA","","","","",""
"","","","","","instructions","37","205870","0.0-11.1-0.1-3.1","5e648efca8c76520c918bb31","6790928bebf0b969fc839b02","67982616c22679020ba106d8","passed","[{""page_index"":0,""viewing_time"":13041},{""page_index"":1,""viewing_time"":12679}]","25720","","","","","","","","","","","","","","","","","","","","","","","","","","","",""
"","","","","","html-button-response","38","208238","0.0-11.1-0.1-4.1","5e648efca8c76520c918bb31","6790928bebf0b969fc839b02","67982616c22679020ba106d8","passed","","1853","","","","","","","","","","","","","<p>To make sure you understood the task, we just have a <b>brief quiz</b> here.</p><p>If you need to review the instructions, click 'Previous'.</p><p>It's important to understand the task to do the study, so you have to pass the quiz to move to the study.</p>","1","","","","","","","","","","","","","",""
"","","","","","survey-multi-choice","39","217429","0.0-11.1-1.1-0.1","5e648efca8c76520c918bb31","6790928bebf0b969fc839b02","67982616c22679020ba106d8","passed","","9190","","","","","","","","","","","","","","{""generalProcedure"":""Watch a video of a ball falling, some of it behind a gray screen. After each video, decide if the triangle is at the spot where the ball hit the triangle behind the screen. There is time limit for the response.""}","","","","","","","","","","[0]","","","",""
"","","","","","survey-multi-choice","40","222249","0.0-11.1-1.1-1.1","5e648efca8c76520c918bb31","6790928bebf0b969fc839b02","67982616c22679020ba106d8","passed","","4819","","","","","","","","","","","","","","{""checkBallHitObstacle"":""Yes.""}","","","","","","","","","","[0]","","","",""
"","","","","","survey-multi-choice","41","225697","0.0-11.1-1.1-2.1","5e648efca8c76520c918bb31","6790928bebf0b969fc839b02","67982616c22679020ba106d8","passed","","3446","","","","","","","","","","","","","","{""checkTriangleVisibility"":""No, the triangle is hidden behind the gray screen.""}","","","","","","","","","","[0]","","","",""
"","","","","","survey-multi-choice","42","228159","0.0-11.1-1.1-3.1","5e648efca8c76520c918bb31","6790928bebf0b969fc839b02","67982616c22679020ba106d8","passed","","2461","","","","","","","","","","","","","","{""checkTimedResponse"":""Your response will not be recorded, and the trial will move to the next one.""}","","","","","","","","","","[0]","","","",""
"","","","","","survey-multi-choice","43","235129","0.0-11.1-1.1-4.1","5e648efca8c76520c918bb31","6790928bebf0b969fc839b02","67982616c22679020ba106d8","passed","","6969","","","","","","","","","","","","","","{""checkTimeBlockNotice"":""At the beginning of each block.""}","","","","","","","","","","[0]","","","",""
"","","","","","survey-multi-choice","44","237911","0.0-11.1-1.1-5.1","5e648efca8c76520c918bb31","6790928bebf0b969fc839b02","67982616c22679020ba106d8","passed","","2781","","","","","","","","","","","","","","{""checkTimeBlockSameness"":""Yes, the time limit is the same for all trials within a block.""}","","","","","","","","","","[0]","","","",""
"","","","","","survey-multi-choice","45","240257","0.0-11.1-1.1-6.1","5e648efca8c76520c918bb31","6790928bebf0b969fc839b02","67982616c22679020ba106d8","passed","","2345","","","","","","","","","","","","","","{""checkTrianglePrecision"":""Yes. The proposed purple triangle is very close to the correct position, so I should choose 'Yes.'""}","","","","","","","","","","[0]","","","",""
"","","","","","html-button-response","46","359867","0.0-11.1-2.1-0.1","5e648efca8c76520c918bb31","6790928bebf0b969fc839b02","67982616c22679020ba106d8","passed","","119606","","","","","","","","","","","","","<p>Oops! You did not pass the quiz.</p><p>You will now repeat the instructions and practice.</p>","0","","","","","","","","","","","failed","","",""
"","","","","","instructions","47","395862","0.0-11.2-0.2-0.2","5e648efca8c76520c918bb31","6790928bebf0b969fc839b02","67982616c22679020ba106d8","passed","[{""page_index"":0,""viewing_time"":17519},{""page_index"":1,""viewing_time"":8647},{""page_index"":2,""viewing_time"":1886},{""page_index"":3,""viewing_time"":7942}]","35994","","","","","","","","","","","","","","","","","","","","","","","","","","","",""
"","","","","","html-keyboard-response","48","418025","0.0-11.2-0.2-1.2","5e648efca8c76520c918bb31","6790928bebf0b969fc839b02","67982616c22679020ba106d8","passed","","21650","","","","","","","","","","","","","<br>Remember! After a ball falls, the screen will disappear, and you'll decide if the proposed position is where the hidden triangle was. <br>You will now practice this by watching a few videos and making decisions.<p>To respond:<br style=""margin-bottom: 5px; text-indent: -20px; padding-left: 20px;"">- Press <b style=""color: #12AD2B;"">J for Yes</b>, if you think the triangle is in the correct position.<br style=""margin-top: 0; text-indent: -20px; padding-left: 20px;"">- Press <b style=""color: orange;"">F for No</b>, if you think the triangle is not in the correct position.</p><p>In this practice round, there is no time limit. Focus on getting comfortable with the task first.<br>Press either J or F to begin your practice trials.</p><img src = ""YesOrNo_instruction.png"" style=""width: 65%;""></img>","f","","","","","","","","","","","","","",""
"","","","","","html-keyboard-response","49","420118","0.0-11.2-0.2-2.2-0.6","5e648efca8c76520c918bb31","6790928bebf0b969fc839b02","67982616c22679020ba106d8","passed","","","","","","","","","","","","","","","","","ballFalling_prac","660","666","350","3","fallScene","false","","","","","","",""
"","","","","","html-keyboard-response","50","420171","0.0-11.2-0.2-2.2-1.6","5e648efca8c76520c918bb31","6790928bebf0b969fc839b02","67982616c22679020ba106d8","passed","","51","","","","","","","","","","","","","","f","yesOrNo_prac_noTimed","","","","3","","","wrong direction","NA","","","","",""
"","","","","","html-keyboard-response","51","421752","0.0-11.2-0.2-2.2-0.7","5e648efca8c76520c918bb31","6790928bebf0b969fc839b02","67982616c22679020ba106d8","passed","","","","","","","","","","","","","","","","","ballFalling_prac","441","414","302","5","fallScene","true","","","","","","",""
"","","","","","html-keyboard-response","52","421914","0.0-11.2-0.2-2.2-1.7","5e648efca8c76520c918bb31","6790928bebf0b969fc839b02","67982616c22679020ba106d8","passed","","160","","","","","","","","","","","","","","f","yesOrNo_prac_noTimed","","","","5","","","close gt","NA","","","","",""
"","","","","","html-keyboard-response","53","423472","0.0-11.2-0.2-2.2-0.8","5e648efca8c76520c918bb31","6790928bebf0b969fc839b02","67982616c22679020ba106d8","passed","","","","","","","","","","","","","","","","","ballFalling_prac","416","464","296","1","fallScene","false","","","","","","",""
"","","","","","html-keyboard-response","54","423706","0.0-11.2-0.2-2.2-1.8","5e648efca8c76520c918bb31","6790928bebf0b969fc839b02","67982616c22679020ba106d8","passed","","232","","","","","","","","","","","","","","f","yesOrNo_prac_noTimed","","","","1","","","gt","NA","","","","",""
"","","","","","instructions","55","441099","0.0-11.2-0.2-3.2","5e648efca8c76520c918bb31","6790928bebf0b969fc839b02","67982616c22679020ba106d8","passed","[{""page_index"":0,""viewing_time"":10324},{""page_index"":1,""viewing_time"":7068}]","17392","","","","","","","","","","","","","","","","","","","","","","","","","","","",""
"","","","","","html-button-response","56","443007","0.0-11.2-0.2-4.2","5e648efca8c76520c918bb31","6790928bebf0b969fc839b02","67982616c22679020ba106d8","passed","","1397","","","","","","","","","","","","","<p>To make sure you understood the task, we just have a <b>brief quiz</b> here.</p><p>If you need to review the instructions, click 'Previous'.</p><p>It's important to understand the task to do the study, so you have to pass the quiz to move to the study.</p>","1","","","","","","","","","","","","","",""
"","","","","","survey-multi-choice","57","471637","0.0-11.2-1.2-0.2","5e648efca8c76520c918bb31","6790928bebf0b969fc839b02","67982616c22679020ba106d8","passed","","28630","","","","","","","","","","","","","","{""generalProcedure"":""Watch a video of a ball falling, some of it behind a gray screen. After each video, decide if the triangle is at the spot where the ball hit the triangle behind the screen. There is time limit for the response.""}","","","","","","","","","","[0]","","","",""
"","","","","","survey-multi-choice","58","499031","0.0-11.2-1.2-1.2","5e648efca8c76520c918bb31","6790928bebf0b969fc839b02","67982616c22679020ba106d8","passed","","27391","","","","","","","","","","","","","","{""checkBallHitObstacle"":""Yes.""}","","","","","","","","","","[0]","","","",""
"","","","","","survey-multi-choice","59","503653","0.0-11.2-1.2-2.2","5e648efca8c76520c918bb31","6790928bebf0b969fc839b02","67982616c22679020ba106d8","passed","","4622","","","","","","","","","","","","","","{""checkTriangleVisibility"":""No, the triangle is hidden behind the gray screen.""}","","","","","","","","","","[0]","","","",""
"","","","","","survey-multi-choice","60","506431","0.0-11.2-1.2-3.2","5e648efca8c76520c918bb31","6790928bebf0b969fc839b02","67982616c22679020ba106d8","passed","","2776","","","","","","","","","","","","","","{""checkTimedResponse"":""Your response will not be recorded, and the trial will move to the next one.""}","","","","","","","","","","[0]","","","",""
"","","","","","survey-multi-choice","61","528002","0.0-11.2-1.2-4.2","5e648efca8c76520c918bb31","6790928bebf0b969fc839b02","67982616c22679020ba106d8","passed","","21570","","","","","","","","","","","","","","{""checkTimeBlockNotice"":""At the beginning of each block.""}","","","","","","","","","","[0]","","","",""
"","","","","","survey-multi-choice","62","561092","0.0-11.2-1.2-5.2","5e648efca8c76520c918bb31","6790928bebf0b969fc839b02","67982616c22679020ba106d8","passed","","33088","","","","","","","","","","","","","","{""checkTimeBlockSameness"":""Yes, the time limit is the same for all trials within a block.""}","","","","","","","","","","[0]","","","",""
"","","","","","survey-multi-choice","63","574019","0.0-11.2-1.2-6.2","5e648efca8c76520c918bb31","6790928bebf0b969fc839b02","67982616c22679020ba106d8","passed","","12926","","","","","","","","","","","","","","{""checkTrianglePrecision"":""No. The proposed purple triangle is not in the correct position because it doesn't match the location of the white triangle exactly.""}","","","","","","","","","","[0]","","","",""
"","","","","","instructions","64","590219","0.0-12.0","5e648efca8c76520c918bb31","6790928bebf0b969fc839b02","67982616c22679020ba106d8","passed","[{""page_index"":0,""viewing_time"":5351},{""page_index"":1,""viewing_time"":3798},{""page_index"":2,""viewing_time"":4070},{""page_index"":3,""viewing_time"":2980}]","16199","","","","","","","","","","","","","","","","","","","","","","","","","","","",""
"","","","","","instructions","65","594764","0.0-13.0-0.0","5e648efca8c76520c918bb31","6790928bebf0b969fc839b02","67982616c22679020ba106d8","passed","[{""page_index"":0,""viewing_time"":4545}]","4546","","","","","","","","","","","","","","","","","","","","","","","","","","","",""
"","","","","","html-keyboard-response","66","597318","0.0-13.0-1.0","5e648efca8c76520c918bb31","6790928bebf0b969fc839b02","67982616c22679020ba106d8","passed","","2553","","","","","","","","","","","","","<p><span style=""font-size:40px;"">Practice BLOCK 1</span></p><p><span style=""font-size:25px;"">You have <b style=""color: #FF644F;""><strong>3 second(s)</strong></b> to respond to the following trials.</span><br></p><p id=""blinking-text"" style=""font-weight; animation: blink 2s infinite;"">Press Space to continue</p><style>
                    @keyframes blink {
                        50% {
                            opacity: 0;
                        }
                    }
                </style>"," ","","","","","","","","","","","","","",""
"","","","","","html-keyboard-response","67","598896","0.0-13.0-2.0-0.0","5e648efca8c76520c918bb31","6790928bebf0b969fc839b02","67982616c22679020ba106d8","passed","","","","","","","","","","","","","","","","","ballFalling_prac","660","610","263","4","fallScene","false","","","","","","",""
"","","","","","html-keyboard-response","68","601910","0.0-13.0-2.0-1.0","5e648efca8c76520c918bb31","6790928bebf0b969fc839b02","67982616c22679020ba106d8","passed","","648","","","","","","","","","","","","","","j","yesOrNo_prac","","","","4","","","gt","3000","","","","",""
"","","","","","html-keyboard-response","69","603467","0.0-13.0-2.0-0.1","5e648efca8c76520c918bb31","6790928bebf0b969fc839b02","67982616c22679020ba106d8","passed","","","","","","","","","","","","","","","","","ballFalling_prac","416","464","296","1","fallScene","false","","","","","","",""
"","","","","","html-keyboard-response","70","606470","0.0-13.0-2.0-1.1","5e648efca8c76520c918bb31","6790928bebf0b969fc839b02","67982616c22679020ba106d8","passed","","929","","","","","","","","","","","","","","f","yesOrNo_prac","","","","1","","","far gt","3000","","","","",""
"","","","","","html-keyboard-response","71","608037","0.0-13.0-2.0-0.2","5e648efca8c76520c918bb31","6790928bebf0b969fc839b02","67982616c22679020ba106d8","passed","","","","","","","","","","","","","","","","","ballFalling_prac","584","536","296","1","fallScene","true","","","","","","",""
"","","","","","html-keyboard-response","72","611040","0.0-13.0-2.0-1.2","5e648efca8c76520c918bb31","6790928bebf0b969fc839b02","67982616c22679020ba106d8","passed","","847","","","","","","","","","","","","","","f","yesOrNo_prac","","","","1","","","close gt","3000","","","","",""
"","","","","","html-keyboard-response","73","616741","0.0-13.0-3.0","5e648efca8c76520c918bb31","6790928bebf0b969fc839b02","67982616c22679020ba106d8","passed","","5700","","","","","","","","","","","","","<p><span style=""font-size:40px;"">Practice BLOCK 2</span></p><p><span style=""font-size:25px;"">You have <b style=""color: #FF644F;""><strong>1 second(s)</strong></b> to respond to the following trials.</span><br></p><p id=""blinking-text"" style=""font-weight; animation: blink 2s infinite;"">Press Space to continue</p><style>
                    @keyframes blink {
                        50% {
                            opacity: 0;
                        }
                    }
                </style>"," ","","","","","","","","","","","","","",""
"","","","","","html-keyboard-response","74","618312","0.0-13.0-4.0-0.0","5e648efca8c76520c918bb31","6790928bebf0b969fc839b02","67982616c22679020ba106d8","passed","","","","","","","","","","","","","","","","","ballFalling_prac","660","610","263","4","fallScene","false","","","","","","",""
"","","","","","html-keyboard-response","75","619315","0.0-13.0-4.0-1.0","5e648efca8c76520c918bb31","6790928bebf0b969fc839b02","67982616c22679020ba106d8","passed","","716","","","","","","","","","","","","","","f","yesOrNo_prac","","","","4","","","far gt","1000","","","","",""
"","","","","","html-keyboard-response","76","620882","0.0-13.0-4.0-0.1","5e648efca8c76520c918bb31","6790928bebf0b969fc839b02","67982616c22679020ba106d8","passed","","","","","","","","","","","","","","","","","ballFalling_prac","441","500","317","6","fallScene","true","","","","","","",""
"","","","","","html-keyboard-response","77","621884","0.0-13.0-4.0-1.1","5e648efca8c76520c918bb31","6790928bebf0b969fc839b02","67982616c22679020ba106d8","passed","","523","","","","","","","","","","","","","","f","yesOrNo_prac","","","","6","","","gt","1000","","","","",""
"","","","","","html-keyboard-response","78","624001","0.0-13.0-4.0-0.2","5e648efca8c76520c918bb31","6790928bebf0b969fc839b02","67982616c22679020ba106d8","passed","","","","","","","","","","","","","","","","","ballFalling_prac","340","334","350","3","fallScene","true","","","","","","",""
"","","","","","html-keyboard-response","79","625003","0.0-13.0-4.0-1.2","5e648efca8c76520c918bb31","6790928bebf0b969fc839b02","67982616c22679020ba106d8","passed","","419","","","","","","","","","","","","","","f","yesOrNo_prac","","","","3","","","close gt","1000","","","","",""
"","","","","","instructions","80","629704","0.0-13.0-5.0","5e648efca8c76520c918bb31","6790928bebf0b969fc839b02","67982616c22679020ba106d8","passed","[{""page_index"":0,""viewing_time"":4700}]","4700","","","","","","","","","","","","","","","","","","","","","","","","","","","",""
"","","","","","html-keyboard-response","81","631518","0.0-13.0-6.0","5e648efca8c76520c918bb31","6790928bebf0b969fc839b02","67982616c22679020ba106d8","passed","","1813","","","","","","","","","","","","","<p><span style=""font-size:40px;"">Practice Test BLOCK 1</span></p><p><span style=""font-size:25px;"">You have <b style=""color: #FF644F;""><strong>1 second(s)</strong></b> to respond to the following trials.</span><br></p><p id=""blinking-text"" style=""font-weight; animation: blink 2s infinite;"">Press Space to continue</p><style>
                    @keyframes blink {
                        50% {
                            opacity: 0;
                        }
                    }
                </style>"," ","","","","","","","","","","","","","",""
"","","","","","html-keyboard-response","82","633096","0.0-13.0-7.0-0.0","5e648efca8c76520c918bb31","6790928bebf0b969fc839b02","67982616c22679020ba106d8","passed","","","","","","","","","","","","","","","","","ballFalling_prac","340","390","263","4","fallScene","true","","","","","","",""
"","","","","","html-keyboard-response","83","634109","0.0-13.0-7.0-1.0","5e648efca8c76520c918bb31","6790928bebf0b969fc839b02","67982616c22679020ba106d8","passed","","548","","","","","","","","","","","","","","f","yesOrNo_prac","","","","4","","","far gt","1000","","","","",""
"","","","","","html-keyboard-response","84","635660","0.0-13.0-7.0-0.1","5e648efca8c76520c918bb31","6790928bebf0b969fc839b02","67982616c22679020ba106d8","passed","","","","","","","","","","","","","","","","","ballFalling_prac","441","500","317","6","fallScene","true","","","","","","",""
"","","","","","html-keyboard-response","85","636662","0.0-13.0-7.0-1.1","5e648efca8c76520c918bb31","6790928bebf0b969fc839b02","67982616c22679020ba106d8","passed","","473","","","","","","","","","","","","","","j","yesOrNo_prac","","","","6","","","close gt","1000","","","","",""
"","","","","","html-keyboard-response","86","638246","0.0-13.0-7.0-0.2","5e648efca8c76520c918bb31","6790928bebf0b969fc839b02","67982616c22679020ba106d8","passed","","","","","","","","","","","","","","","","","ballFalling_prac","559","586","302","5","fallScene","false","","","","","","",""
"","","","","","html-keyboard-response","87","639247","0.0-13.0-7.0-1.2","5e648efca8c76520c918bb31","6790928bebf0b969fc839b02","67982616c22679020ba106d8","passed","","551","","","","","","","","","","","","","","j","yesOrNo_prac","","","","5","","","gt","1000","","","","",""
"","","","","","html-keyboard-response","88","640678","0.0-13.0-8.0","5e648efca8c76520c918bb31","6790928bebf0b969fc839b02","67982616c22679020ba106d8","passed","","1430","","","","","","","","","","","","","<p><span style=""font-size:40px;"">Practice Test BLOCK 2</span></p><p><span style=""font-size:25px;"">You have <b style=""color: #FF644F;""><strong>3 second(s)</strong></b> to respond to the following trials.</span><br></p><p id=""blinking-text"" style=""font-weight; animation: blink 2s infinite;"">Press Space to continue</p><style>
                    @keyframes blink {
                        50% {
                            opacity: 0;
                        }
                    }
                </style>"," ","","","","","","","","","","","","","",""
"","","","","","html-keyboard-response","89","642249","0.0-13.0-9.0-0.0","5e648efca8c76520c918bb31","6790928bebf0b969fc839b02","67982616c22679020ba106d8","passed","","","","","","","","","","","","","","","","","ballFalling_prac","416","365","249","2","fallScene","false","","","","","","",""
"","","","","","html-keyboard-response","90","645252","0.0-13.0-9.0-1.0","5e648efca8c76520c918bb31","6790928bebf0b969fc839b02","67982616c22679020ba106d8","passed","","523","","","","","","","","","","","","","","f","yesOrNo_prac","","","","2","","","gt","3000","","","","",""
"","","","","","html-keyboard-response","91","646835","0.0-13.0-9.0-0.1","5e648efca8c76520c918bb31","6790928bebf0b969fc839b02","67982616c22679020ba106d8","passed","","","","","","","","","","","","","","","","","ballFalling_prac","559","586","302","5","fallScene","false","","","","","","",""
"","","","","","html-keyboard-response","92","649838","0.0-13.0-9.0-1.1","5e648efca8c76520c918bb31","6790928bebf0b969fc839b02","67982616c22679020ba106d8","passed","","737","","","","","","","","","","","","","","f","yesOrNo_prac","","","","5","","","far gt","3000","","","","",""
"","","","","","html-keyboard-response","93","651406","0.0-13.0-9.0-0.2","5e648efca8c76520c918bb31","6790928bebf0b969fc839b02","67982616c22679020ba106d8","passed","","","","","","","","","","","","","","","","","ballFalling_prac","340","390","263","4","fallScene","true","","","","","","",""
"","","","","","html-keyboard-response","94","654408","0.0-13.0-9.0-1.2","5e648efca8c76520c918bb31","6790928bebf0b969fc839b02","67982616c22679020ba106d8","passed","","446","","","","","","","","","","","","","","j","yesOrNo_prac","","","","4","","","close gt","3000","","","","",""
"","","","","","instructions","95","657615","0.0-14.0","5e648efca8c76520c918bb31","6790928bebf0b969fc839b02","67982616c22679020ba106d8","passed","[{""page_index"":0,""viewing_time"":3206}]","3206","","","","","","","","","","","","","","","","","","","","","","","","","","","",""
"","","","","","html-keyboard-response","96","659341","0.0-15.0","5e648efca8c76520c918bb31","6790928bebf0b969fc839b02","67982616c22679020ba106d8","passed","","1725","","","","","","","","","","","","","<p><span style=""font-size:40px;"">BLOCK 1</span></p><p><span style=""font-size:25px;"">You have <b style=""color: #FF644F;""><strong>3 second(s)</strong></b> to respond to the following trials.</span><br></p><p></p> <!-- Blank line -->
                <p id=""blinking-text"" style=""font-weight; animation: blink 2s infinite;"">Press Space to continue</p>
                <style>
                    @keyframes blink {
                        50% {
                            opacity: 0;
                        }
                    }
                </style></p>"," ","","","","","","","","","","","","","",""
"","","","","","html-keyboard-response","97","660897","0.0-16.0-0.0","5e648efca8c76520c918bb31","6790928bebf0b969fc839b02","67982616c22679020ba106d8","passed","","","","","","","","","","","","","","","","","ballFalling","322.3","296.07114317029976","371.46","3","fallScene","true","","","","","1","",""
"","","","","","html-keyboard-response","98","663900","0.0-16.0-1.0","5e648efca8c76520c918bb31","6790928bebf0b969fc839b02","67982616c22679020ba106d8","passed","","1011","","","","","","","","","","","","","","j","yesOrNo","","","","3","","","lp","3000","","","1","321.3","287.3327096511259"
"","","","","","html-keyboard-response","99","665467","0.0-16.0-0.1","5e648efca8c76520c918bb31","6790928bebf0b969fc839b02","67982616c22679020ba106d8","passed","","","","","","","","","","","","","","","","","ballFalling","500","453.67114317029973","210.33","5","fallScene","false","","","","","2","",""
"","","","","","html-keyboard-response","100","668469","0.0-16.0-1.1","5e648efca8c76520c918bb31","6790928bebf0b969fc839b02","67982616c22679020ba106d8","passed","","424","","","","","","","","","","","","","","j","yesOrNo","","","","5","","","mid","3000","","","2","499","300"
"","","","","","html-keyboard-response","101","670021","0.0-16.0-0.2","5e648efca8c76520c918bb31","6790928bebf0b969fc839b02","67982616c22679020ba106d8","passed","","","","","","","","","","","","","","","","","ballFalling","322.3","356.42114317029973","357.87","4","fallScene","false","","","","","3","",""
"","","","","","html-keyboard-response","102","673023","0.0-16.0-1.2","5e648efca8c76520c918bb31","6790928bebf0b969fc839b02","67982616c22679020ba106d8","passed","","493","","","","","","","","","","","","","","j","yesOrNo","","","","4","","","lp","3000","","","3","323.3","297.4070551689986"
"","","","","","html-keyboard-response","103","674591","0.0-16.0-0.3","5e648efca8c76520c918bb31","6790928bebf0b969fc839b02","67982616c22679020ba106d8","passed","","","","","","","","","","","","","","","","","ballFalling","322.3","356.42114317029973","357.87","4","fallScene","true","","","","","4","",""
"","","","","","html-keyboard-response","104","677593","0.0-16.0-1.3","5e648efca8c76520c918bb31","6790928bebf0b969fc839b02","67982616c22679020ba106d8","passed","","869","","","","","","","","","","","","","","f","yesOrNo","","","","4","","","gt","3000","","","4","356.42114317029973","357.87"
"","","","","","html-keyboard-response","105","679379","0.0-16.0-0.4","5e648efca8c76520c918bb31","6790928bebf0b969fc839b02","67982616c22679020ba106d8","passed","","","","","","","","","","","","","","","","","ballFalling","322.3","308.07114317029976","253.89","2","fallScene","true","","","","","5","",""
"","","","","","html-keyboard-response","106","682383","0.0-16.0-1.4","5e648efca8c76520c918bb31","6790928bebf0b969fc839b02","67982616c22679020ba106d8","passed","","1104","","","","","","","","","","","","","","f","yesOrNo","","","","2","","","gt","3000","","","5","308.07114317029976","253.89"
"","","","","","html-keyboard-response","107","683950","0.0-16.0-0.5","5e648efca8c76520c918bb31","6790928bebf0b969fc839b02","67982616c22679020ba106d8","passed","","","","","","","","","","","","","","","","","ballFalling","604.4000000000001","575.4211431702997","266.76","12","fallScene","true","","","","","6","",""
"","","","","","html-keyboard-response","108","686952","0.0-16.0-1.5","5e648efca8c76520c918bb31","6790928bebf0b969fc839b02","67982616c22679020ba106d8","passed","","566","","","","","","","","","","","","","","f","yesOrNo","","","","12","","","lp","3000","","","6","603.4000000000001","151"
"","","","","","html-keyboard-response","109","688738","0.0-16.0-0.6","5e648efca8c76520c918bb31","6790928bebf0b969fc839b02","67982616c22679020ba106d8","passed","","","","","","","","","","","","","","","","","ballFalling","322.3","308.07114317029976","253.89","2","fallScene","false","","","","","7","",""
"","","","","","html-keyboard-response","110","691740","0.0-16.0-1.6","5e648efca8c76520c918bb31","6790928bebf0b969fc839b02","67982616c22679020ba106d8","passed","","499","","","","","","","","","","","","","","f","yesOrNo","","","","2","","","lp","3000","","","7","321.3","151"
"","","","","","html-keyboard-response","111","693758","0.0-16.0-0.7","5e648efca8c76520c918bb31","6790928bebf0b969fc839b02","67982616c22679020ba106d8","passed","","","","","","","","","","","","","","","","","ballFalling","604.4000000000001","596.8711431702998","394.5","10","fallScene","false","","","","","8","",""
"","","","","","html-keyboard-response","112","696761","0.0-16.0-1.7","5e648efca8c76520c918bb31","6790928bebf0b969fc839b02","67982616c22679020ba106d8","passed","","1165","","","","","","","","","","","","","","j","yesOrNo","","","","10","","","mid","3000","","","8","536.4288568297004","300"
"","","","","","html-keyboard-response","113","698328","0.0-16.0-0.8","5e648efca8c76520c918bb31","6790928bebf0b969fc839b02","67982616c22679020ba106d8","passed","","","","","","","","","","","","","","","","","ballFalling","322.3","296.07114317029976","371.46","3","fallScene","true","","","","","9","",""
"","","","","","html-keyboard-response","114","701331","0.0-16.0-1.8","5e648efca8c76520c918bb31","6790928bebf0b969fc839b02","67982616c22679020ba106d8","passed","","987","","","","","","","","","","","","","","f","yesOrNo","","","","3","","","gt","3000","","","9","296.07114317029976","371.46"
"","","","","","html-keyboard-response","115","702999","0.0-16.0-0.9","5e648efca8c76520c918bb31","6790928bebf0b969fc839b02","67982616c22679020ba106d8","passed","","","","","","","","","","","","","","","","","ballFalling","500","479.92114317029973","330.87","6","fallScene","true","","","","","10","",""
"","","","","","html-keyboard-response","116","706002","0.0-16.0-1.9","5e648efca8c76520c918bb31","6790928bebf0b969fc839b02","67982616c22679020ba106d8","passed","","691","","","","","","","","","","","","","","f","yesOrNo","","","","6","","","lp","3000","","","10","499","189.92909825697632"
"","","","","","html-keyboard-response","117","707568","0.0-16.0-0.10","5e648efca8c76520c918bb31","6790928bebf0b969fc839b02","67982616c22679020ba106d8","passed","","","","","","","","","","","","","","","","","ballFalling","322.3","379.3711431702997","245.25","1","fallScene","false","","","","","11","",""
"","","","","","html-keyboard-response","118","710571","0.0-16.0-1.10","5e648efca8c76520c918bb31","6790928bebf0b969fc839b02","67982616c22679020ba106d8","passed","","554","","","","","","","","","","","","","","j","yesOrNo","","","","1","","","lp","3000","","","11","323.3","217.74551669457017"
"","","","","","html-keyboard-response","119","712122","0.0-16.0-0.11","5e648efca8c76520c918bb31","6790928bebf0b969fc839b02","67982616c22679020ba106d8","passed","","","","","","","","","","","","","","","","","ballFalling","322.3","296.07114317029976","371.46","3","fallScene","false","","","","","12","",""
"","","","","","html-keyboard-response","120","715124","0.0-16.0-1.11","5e648efca8c76520c918bb31","6790928bebf0b969fc839b02","67982616c22679020ba106d8","passed","","377","","","","","","","","","","","","","","j","yesOrNo","","","","3","","","mid","3000","","","12","321.3","300"
"","","","","","html-keyboard-response","121","716676","0.0-16.0-0.12","5e648efca8c76520c918bb31","6790928bebf0b969fc839b02","67982616c22679020ba106d8","passed","","","","","","","","","","","","","","","","","ballFalling","322.3","379.3711431702997","245.25","1","fallScene","true","","","","","13","",""
"","","","","","html-keyboard-response","122","719678","0.0-16.0-1.12","5e648efca8c76520c918bb31","6790928bebf0b969fc839b02","67982616c22679020ba106d8","passed","","751","","","","","","","","","","","","","","j","yesOrNo","","","","1","","","gt","3000","","","13","379.3711431702997","245.25"
"","","","","","html-keyboard-response","123","721230","0.0-16.0-0.13","5e648efca8c76520c918bb31","6790928bebf0b969fc839b02","67982616c22679020ba106d8","passed","","","","","","","","","","","","","","","","","ballFalling","604.4000000000001","650.0211431702996","404.58000000000004","11","fallScene","false","","","","","14","",""
"","","","","","html-keyboard-response","124","724232","0.0-16.0-1.13","5e648efca8c76520c918bb31","6790928bebf0b969fc839b02","67982616c22679020ba106d8","passed","","436","","","","","","","","","","","","","","j","yesOrNo","","","","11","","","mid","3000","","","14","605.4000000000001","300"
"","","","","","html-keyboard-response","125","726250","0.0-16.0-0.14","5e648efca8c76520c918bb31","6790928bebf0b969fc839b02","67982616c22679020ba106d8","passed","","","","","","","","","","","","","","","","","ballFalling","604.4000000000001","596.8711431702998","394.5","10","fallScene","false","","","","","15","",""
"","","","","","html-keyboard-response","126","729253","0.0-16.0-1.14","5e648efca8c76520c918bb31","6790928bebf0b969fc839b02","67982616c22679020ba106d8","passed","","616","","","","","","","","","","","","","","f","yesOrNo","","","","10","","","gt","3000","","","15","596.8711431702998","394.5"
"","","","","","html-keyboard-response","127","730837","0.0-16.0-0.15","5e648efca8c76520c918bb31","6790928bebf0b969fc839b02","67982616c22679020ba106d8","passed","","","","","","","","","","","","","","","","","ballFalling","500","553.4711431702997","282.51","7","fallScene","false","","","","","16","",""
"","","","","","html-keyboard-response","128","733840","0.0-16.0-1.15","5e648efca8c76520c918bb31","6790928bebf0b969fc839b02","67982616c22679020ba106d8","passed","","580","","","","","","","","","","","","","","f","yesOrNo","","","","7","","","gt","3000","","","16","553.4711431702997","282.51"
"","","","","","html-keyboard-response","129","735858","0.0-16.0-0.16","5e648efca8c76520c918bb31","6790928bebf0b969fc839b02","67982616c22679020ba106d8","passed","","","","","","","","","","","","","","","","","ballFalling","604.4000000000001","596.8711431702998","394.5","10","fallScene","false","","","","","17","",""
"","","","","","html-keyboard-response","130","738860","0.0-16.0-1.16","5e648efca8c76520c918bb31","6790928bebf0b969fc839b02","67982616c22679020ba106d8","passed","","785","","","","","","","","","","","","","","f","yesOrNo","","","","10","","","lp","3000","","","17","603.4000000000001","215.50214355555383"
"","","","","","html-keyboard-response","131","740646","0.0-16.0-0.17","5e648efca8c76520c918bb31","6790928bebf0b969fc839b02","67982616c22679020ba106d8","passed","","","","","","","","","","","","","","","","","ballFalling","322.3","308.07114317029976","253.89","2","fallScene","false","","","","","18","",""
"","","","","","html-keyboard-response","132","743649","0.0-16.0-1.17","5e648efca8c76520c918bb31","6790928bebf0b969fc839b02","67982616c22679020ba106d8","passed","","509","","","","","","","","","","","","","","f","yesOrNo","","","","2","","","lp","3000","","","18","321.3","151"
"","","","","","html-keyboard-response","133","745149","0.0-16.0-0.18","5e648efca8c76520c918bb31","6790928bebf0b969fc839b02","67982616c22679020ba106d8","passed","","","","","","","","","","","","","","","","","ballFalling","604.4000000000001","667.6211431702998","201.78","9","fallScene","true","","","","","19","",""
"","","","","","html-keyboard-response","134","748152","0.0-16.0-1.18","5e648efca8c76520c918bb31","6790928bebf0b969fc839b02","67982616c22679020ba106d8","passed","","566","","","","","","","","","","","","","","f","yesOrNo","","","","9","","","gt","3000","","","19","667.6211431702998","201.78"
"","","","","","html-keyboard-response","135","749637","0.0-16.0-0.19","5e648efca8c76520c918bb31","6790928bebf0b969fc839b02","67982616c22679020ba106d8","passed","","","","","","","","","","","","","","","","","ballFalling","604.4000000000001","667.6211431702998","201.78","9","fallScene","false","","","","","20","",""
"","","","","","html-keyboard-response","136","752640","0.0-16.0-1.19","5e648efca8c76520c918bb31","6790928bebf0b969fc839b02","67982616c22679020ba106d8","passed","","621","","","","","","","","","","","","","","f","yesOrNo","","","","9","","","lp","3000","","","20","605.4000000000001","151"
"","","","","","html-keyboard-response","137","754440","0.0-16.0-0.20","5e648efca8c76520c918bb31","6790928bebf0b969fc839b02","67982616c22679020ba106d8","passed","","","","","","","","","","","","","","","","","ballFalling","322.3","308.07114317029976","253.89","2","fallScene","true","","","","","21","",""
"","","","","","html-keyboard-response","138","757443","0.0-16.0-1.20","5e648efca8c76520c918bb31","6790928bebf0b969fc839b02","67982616c22679020ba106d8","passed","","458","","","","","","","","","","","","","","j","yesOrNo","","","","2","","","mid","3000","","","21","321.3","300"
"","","","","","html-keyboard-response","139","758994","0.0-16.0-0.21","5e648efca8c76520c918bb31","6790928bebf0b969fc839b02","67982616c22679020ba106d8","passed","","","","","","","","","","","","","","","","","ballFalling","604.4000000000001","575.4211431702997","266.76","12","fallScene","true","","","","","22","",""
"","","","","","html-keyboard-response","140","761996","0.0-16.0-1.21","5e648efca8c76520c918bb31","6790928bebf0b969fc839b02","67982616c22679020ba106d8","passed","","624","","","","","","","","","","","","","","f","yesOrNo","","","","12","","","mid","3000","","","22","536.4288568297004","300"
"","","","","","html-keyboard-response","141","763648","0.0-16.0-0.22","5e648efca8c76520c918bb31","6790928bebf0b969fc839b02","67982616c22679020ba106d8","passed","","","","","","","","","","","","","","","","","ballFalling","500","479.92114317029973","330.87","6","fallScene","true","","","","","23","",""
"","","","","","html-keyboard-response","142","766650","0.0-16.0-1.22","5e648efca8c76520c918bb31","6790928bebf0b969fc839b02","67982616c22679020ba106d8","passed","","507","","","","","","","","","","","","","","f","yesOrNo","","","","6","","","gt","3000","","","23","479.9211431702998","330.87"
"","","","","","html-keyboard-response","143","768201","0.0-16.0-0.23","5e648efca8c76520c918bb31","6790928bebf0b969fc839b02","67982616c22679020ba106d8","passed","","","","","","","","","","","","","","","","","ballFalling","322.3","379.3711431702997","245.25","1","fallScene","false","","","","","24","",""
"","","","","","html-keyboard-response","144","771203","0.0-16.0-1.23","5e648efca8c76520c918bb31","6790928bebf0b969fc839b02","67982616c22679020ba106d8","passed","","769","","","","","","","","","","","","","","j","yesOrNo","","","","1","","","gt","3000","","","24","379.3711431702997","245.25"
"","","","","","html-keyboard-response","145","774412","0.0-17.0","5e648efca8c76520c918bb31","6790928bebf0b969fc839b02","67982616c22679020ba106d8","passed","","3207","","","","","","","","","","","","","<p><span style=""font-size:40px;"">BLOCK 2</span></p><p><span style=""font-size:25px;"">You have <b style=""color: #FF644F;""><strong>3 second(s)</strong></b> to respond to the following trials.</span><br></p><p></p> <!-- Blank line -->
                <p id=""blinking-text"" style=""font-weight; animation: blink 2s infinite;"">Press Space to continue</p>
                <style>
                    @keyframes blink {
                        50% {
                            opacity: 0;
                        }
                    }
                </style></p>"," ","","","","","","","","","","","","","",""
"","","","","","html-keyboard-response","146","775907","0.0-18.0-0.0","5e648efca8c76520c918bb31","6790928bebf0b969fc839b02","67982616c22679020ba106d8","passed","","","","","","","","","","","","","","","","","ballFalling","604.4000000000001","667.6211431702998","201.78","9","fallScene","true","","","","","25","",""
"","","","","","html-keyboard-response","147","778910","0.0-18.0-1.0","5e648efca8c76520c918bb31","6790928bebf0b969fc839b02","67982616c22679020ba106d8","passed","","726","","","","","","","","","","","","","","j","yesOrNo","","","","9","","","gt","3000","","","25","667.6211431702998","201.78"
"","","","","","html-keyboard-response","148","780912","0.0-18.0-0.1","5e648efca8c76520c918bb31","6790928bebf0b969fc839b02","67982616c22679020ba106d8","passed","","","","","","","","","","","","","","","","","ballFalling","500","510.8711431702997","369.03","8","fallScene","false","","","","","26","",""
"","","","","","html-keyboard-response","149","783914","0.0-18.0-1.1","5e648efca8c76520c918bb31","6790928bebf0b969fc839b02","67982616c22679020ba106d8","passed","","1091","","","","","","","","","","","","","","f","yesOrNo","","","","8","","","lp","3000","","","26","501","151"
"","","","","","html-keyboard-response","150","785465","0.0-18.0-0.2","5e648efca8c76520c918bb31","6790928bebf0b969fc839b02","67982616c22679020ba106d8","passed","","","","","","","","","","","","","","","","","ballFalling","604.4000000000001","650.0211431702996","404.58000000000004","11","fallScene","true","","","","","27","",""
"","","","","","html-keyboard-response","151","788467","0.0-18.0-1.2","5e648efca8c76520c918bb31","6790928bebf0b969fc839b02","67982616c22679020ba106d8","passed","","535","","","","","","","","","","","","","","j","yesOrNo","","","","11","","","mid","3000","","","27","605.4000000000001","300"
"","","","","","html-keyboard-response","152","790119","0.0-18.0-0.3","5e648efca8c76520c918bb31","6790928bebf0b969fc839b02","67982616c22679020ba106d8","passed","","","","","","","","","","","","","","","","","ballFalling","500","479.92114317029973","330.87","6","fallScene","true","","","","","28","",""
"","","","","","html-keyboard-response","153","793121","0.0-18.0-1.3","5e648efca8c76520c918bb31","6790928bebf0b969fc839b02","67982616c22679020ba106d8","passed","","434","","","","","","","","","","","","","","j","yesOrNo","","","","6","","","mid","3000","","","28","499","300"
"","","","","","html-keyboard-response","154","794673","0.0-18.0-0.4","5e648efca8c76520c918bb31","6790928bebf0b969fc839b02","67982616c22679020ba106d8","passed","","","","","","","","","","","","","","","","","ballFalling","500","453.67114317029973","210.33","5","fallScene","true","","","","","29","",""
"","","","","","html-keyboard-response","155","797675","0.0-18.0-1.4","5e648efca8c76520c918bb31","6790928bebf0b969fc839b02","67982616c22679020ba106d8","passed","","481","","","","","","","","","","","","","","j","yesOrNo","","","","5","","","mid","3000","","","29","499","300"
"","","","","","html-keyboard-response","156","799242","0.0-18.0-0.5","5e648efca8c76520c918bb31","6790928bebf0b969fc839b02","67982616c22679020ba106d8","passed","","","","","","","","","","","","","","","","","ballFalling","604.4000000000001","575.4211431702997","266.76","12","fallScene","false","","","","","30","",""
"","","","","","html-keyboard-response","157","802246","0.0-18.0-1.5","5e648efca8c76520c918bb31","6790928bebf0b969fc839b02","67982616c22679020ba106d8","passed","","470","","","","","","","","","","","","","","j","yesOrNo","","","","12","","","gt","3000","","","30","575.4211431702997","266.76"
"","","","","","html-keyboard-response","158","803798","0.0-18.0-0.6","5e648efca8c76520c918bb31","6790928bebf0b969fc839b02","67982616c22679020ba106d8","passed","","","","","","","","","","","","","","","","","ballFalling","604.4000000000001","650.0211431702996","404.58000000000004","11","fallScene","true","","","","","31","",""
"","","","","","html-keyboard-response","159","806801","0.0-18.0-1.6","5e648efca8c76520c918bb31","6790928bebf0b969fc839b02","67982616c22679020ba106d8","passed","","620","","","","","","","","","","","","","","f","yesOrNo","","","","11","","","lp","3000","","","31","605.4000000000001","372.6340973215488"
"","","","","","html-keyboard-response","160","808818","0.0-18.0-0.7","5e648efca8c76520c918bb31","6790928bebf0b969fc839b02","67982616c22679020ba106d8","passed","","","","","","","","","","","","","","","","","ballFalling","500","510.8711431702997","369.03","8","fallScene","false","","","","","32","",""
"","","","","","html-keyboard-response","161","811821","0.0-18.0-1.7","5e648efca8c76520c918bb31","6790928bebf0b969fc839b02","67982616c22679020ba106d8","passed","","480","","","","","","","","","","","","","","j","yesOrNo","","","","8","","","gt","3000","","","32","510.8711431702997","369.03"
"","","","","","html-keyboard-response","162","813406","0.0-18.0-0.8","5e648efca8c76520c918bb31","6790928bebf0b969fc839b02","67982616c22679020ba106d8","passed","","","","","","","","","","","","","","","","","ballFalling","500","553.4711431702997","282.51","7","fallScene","false","","","","","33","",""
"","","","","","html-keyboard-response","163","816408","0.0-18.0-1.8","5e648efca8c76520c918bb31","6790928bebf0b969fc839b02","67982616c22679020ba106d8","passed","","724","","","","","","","","","","","","","","f","yesOrNo","","","","7","","","lp","3000","","","33","501","227.2843295913261"
"","","","","","html-keyboard-response","164","818209","0.0-18.0-0.9","5e648efca8c76520c918bb31","6790928bebf0b969fc839b02","67982616c22679020ba106d8","passed","","","","","","","","","","","","","","","","","ballFalling","322.3","308.07114317029976","253.89","2","fallScene","false","","","","","34","",""
"","","","","","html-keyboard-response","165","821212","0.0-18.0-1.9","5e648efca8c76520c918bb31","6790928bebf0b969fc839b02","67982616c22679020ba106d8","passed","","369","","","","","","","","","","","","","","j","yesOrNo","","","","2","","","mid","3000","","","34","321.3","300"
"","","","","","html-keyboard-response","166","822779","0.0-18.0-0.10","5e648efca8c76520c918bb31","6790928bebf0b969fc839b02","67982616c22679020ba106d8","passed","","","","","","","","","","","","","","","","","ballFalling","500","453.67114317029973","210.33","5","fallScene","false","","","","","35","",""
"","","","","","html-keyboard-response","167","825781","0.0-18.0-1.10","5e648efca8c76520c918bb31","6790928bebf0b969fc839b02","67982616c22679020ba106d8","passed","","614","","","","","","","","","","","","","","f","yesOrNo","","","","5","","","lp","3000","","","35","499","151"
"","","","","","html-keyboard-response","168","827433","0.0-18.0-0.11","5e648efca8c76520c918bb31","6790928bebf0b969fc839b02","67982616c22679020ba106d8","passed","","","","","","","","","","","","","","","","","ballFalling","500","479.92114317029973","330.87","6","fallScene","true","","","","","36","",""
"","","","","","html-keyboard-response","169","830435","0.0-18.0-1.11","5e648efca8c76520c918bb31","6790928bebf0b969fc839b02","67982616c22679020ba106d8","passed","","576","","","","","","","","","","","","","","j","yesOrNo","","","","6","","","gt","3000","","","36","479.9211431702998","330.87"
"","","","","","html-keyboard-response","170","831987","0.0-18.0-0.12","5e648efca8c76520c918bb31","6790928bebf0b969fc839b02","67982616c22679020ba106d8","passed","","","","","","","","","","","","","","","","","ballFalling","604.4000000000001","575.4211431702997","266.76","12","fallScene","false","","","","","37","",""
"","","","","","html-keyboard-response","171","834990","0.0-18.0-1.12","5e648efca8c76520c918bb31","6790928bebf0b969fc839b02","67982616c22679020ba106d8","passed","","518","","","","","","","","","","","","","","f","yesOrNo","","","","12","","","lp","3000","","","37","603.4000000000001","151"
"","","","","","html-keyboard-response","172","836557","0.0-18.0-0.13","5e648efca8c76520c918bb31","6790928bebf0b969fc839b02","67982616c22679020ba106d8","passed","","","","","","","","","","","","","","","","","ballFalling","322.3","296.07114317029976","371.46","3","fallScene","false","","","","","38","",""
"","","","","","html-keyboard-response","173","839561","0.0-18.0-1.13","5e648efca8c76520c918bb31","6790928bebf0b969fc839b02","67982616c22679020ba106d8","passed","","436","","","","","","","","","","","","","","j","yesOrNo","","","","3","","","mid","3000","","","38","321.3","300"
"","","","","","html-keyboard-response","174","841578","0.0-18.0-0.14","5e648efca8c76520c918bb31","6790928bebf0b969fc839b02","67982616c22679020ba106d8","passed","","","","","","","","","","","","","","","","","ballFalling","500","510.8711431702997","369.03","8","fallScene","true","","","","","39","",""
"","","","","","html-keyboard-response","175","844581","0.0-18.0-1.14","5e648efca8c76520c918bb31","6790928bebf0b969fc839b02","67982616c22679020ba106d8","passed","","600","","","","","","","","","","","","","","j","yesOrNo","","","","8","","","mid","3000","","","39","501","300"
"","","","","","html-keyboard-response","176","846081","0.0-18.0-0.15","5e648efca8c76520c918bb31","6790928bebf0b969fc839b02","67982616c22679020ba106d8","passed","","","","","","","","","","","","","","","","","ballFalling","604.4000000000001","667.6211431702998","201.78","9","fallScene","true","","","","","40","",""
"","","","","","html-keyboard-response","177","849083","0.0-18.0-1.15","5e648efca8c76520c918bb31","6790928bebf0b969fc839b02","67982616c22679020ba106d8","passed","","568","","","","","","","","","","","","","","f","yesOrNo","","","","9","","","mid","3000","","","40","605.4000000000001","300"
"","","","","","html-keyboard-response","178","850735","0.0-18.0-0.16","5e648efca8c76520c918bb31","6790928bebf0b969fc839b02","67982616c22679020ba106d8","passed","","","","","","","","","","","","","","","","","ballFalling","500","479.92114317029973","330.87","6","fallScene","false","","","","","41","",""
"","","","","","html-keyboard-response","179","853738","0.0-18.0-1.16","5e648efca8c76520c918bb31","6790928bebf0b969fc839b02","67982616c22679020ba106d8","passed","","363","","","","","","","","","","","","","","j","yesOrNo","","","","6","","","mid","3000","","","41","499","300"
"","","","","","html-keyboard-response","180","855322","0.0-18.0-0.17","5e648efca8c76520c918bb31","6790928bebf0b969fc839b02","67982616c22679020ba106d8","passed","","","","","","","","","","","","","","","","","ballFalling","500","553.4711431702997","282.51","7","fallScene","true","","","","","42","",""
"","","","","","html-keyboard-response","181","858325","0.0-18.0-1.17","5e648efca8c76520c918bb31","6790928bebf0b969fc839b02","67982616c22679020ba106d8","passed","","718","","","","","","","","","","","","","","f","yesOrNo","","","","7","","","lp","3000","","","42","501","227.2843295913261"
"","","","","","html-keyboard-response","182","859894","0.0-18.0-0.18","5e648efca8c76520c918bb31","6790928bebf0b969fc839b02","67982616c22679020ba106d8","passed","","","","","","","","","","","","","","","","","ballFalling","604.4000000000001","575.4211431702997","266.76","12","fallScene","false","","","","","43","",""
"","","","","","html-keyboard-response","183","862896","0.0-18.0-1.18","5e648efca8c76520c918bb31","6790928bebf0b969fc839b02","67982616c22679020ba106d8","passed","","403","","","","","","","","","","","","","","j","yesOrNo","","","","12","","","gt","3000","","","43","575.4211431702997","266.76"
"","","","","","html-keyboard-response","184","864464","0.0-18.0-0.19","5e648efca8c76520c918bb31","6790928bebf0b969fc839b02","67982616c22679020ba106d8","passed","","","","","","","","","","","","","","","","","ballFalling","322.3","296.07114317029976","371.46","3","fallScene","true","","","","","44","",""
"","","","","","html-keyboard-response","185","867467","0.0-18.0-1.19","5e648efca8c76520c918bb31","6790928bebf0b969fc839b02","67982616c22679020ba106d8","passed","","425","","","","","","","","","","","","","","j","yesOrNo","","","","3","","","gt","3000","","","44","296.07114317029976","371.46"
"","","","","","html-keyboard-response","186","869034","0.0-18.0-0.20","5e648efca8c76520c918bb31","6790928bebf0b969fc839b02","67982616c22679020ba106d8","passed","","","","","","","","","","","","","","","","","ballFalling","322.3","356.42114317029973","357.87","4","fallScene","true","","","","","45","",""
"","","","","","html-keyboard-response","187","872036","0.0-18.0-1.20","5e648efca8c76520c918bb31","6790928bebf0b969fc839b02","67982616c22679020ba106d8","passed","","439","","","","","","","","","","","","","","j","yesOrNo","","","","4","","","lp","3000","","","45","323.3","297.4070551689986"
"","","","","","html-keyboard-response","188","873605","0.0-18.0-0.21","5e648efca8c76520c918bb31","6790928bebf0b969fc839b02","67982616c22679020ba106d8","passed","","","","","","","","","","","","","","","","","ballFalling","500","553.4711431702997","282.51","7","fallScene","false","","","","","46","",""
"","","","","","html-keyboard-response","189","876608","0.0-18.0-1.21","5e648efca8c76520c918bb31","6790928bebf0b969fc839b02","67982616c22679020ba106d8","passed","","428","","","","","","","","","","","","","","j","yesOrNo","","","","7","","","mid","3000","","","46","501","300"
"","","","","","html-keyboard-response","190","878107","0.0-18.0-0.22","5e648efca8c76520c918bb31","6790928bebf0b969fc839b02","67982616c22679020ba106d8","passed","","","","","","","","","","","","","","","","","ballFalling","604.4000000000001","667.6211431702998","201.78","9","fallScene","false","","","","","47","",""
"","","","","","html-keyboard-response","191","881111","0.0-18.0-1.22","5e648efca8c76520c918bb31","6790928bebf0b969fc839b02","67982616c22679020ba106d8","passed","","621","","","","","","","","","","","","","","j","yesOrNo","","","","9","","","mid","3000","","","47","605.4000000000001","300"
"","","","","","html-keyboard-response","192","882678","0.0-18.0-0.23","5e648efca8c76520c918bb31","6790928bebf0b969fc839b02","67982616c22679020ba106d8","passed","","","","","","","","","","","","","","","","","ballFalling","322.3","356.42114317029973","357.87","4","fallScene","true","","","","","48","",""
"","","","","","html-keyboard-response","193","885680","0.0-18.0-1.23","5e648efca8c76520c918bb31","6790928bebf0b969fc839b02","67982616c22679020ba106d8","passed","","554","","","","","","","","","","","","","","f","yesOrNo","","","","4","","","mid","3000","","","48","390.27114317029975","300"
"","","","","","html-keyboard-response","194","952250","0.0-19.0","5e648efca8c76520c918bb31","6790928bebf0b969fc839b02","67982616c22679020ba106d8","passed","","66567","","","","","","","","","","","","","<p><span style=""font-size:40px;"">BLOCK 3</span></p><p><span style=""font-size:25px;"">You have <b style=""color: #FF644F;""><strong>3 second(s)</strong></b> to respond to the following trials.</span><br></p><p></p> <!-- Blank line -->
                <p id=""blinking-text"" style=""font-weight; animation: blink 2s infinite;"">Press Space to continue</p>
                <style>
                    @keyframes blink {
                        50% {
                            opacity: 0;
                        }
                    }
                </style></p>"," ","","","","","","","","","","","","","",""
"","","","","","html-keyboard-response","195","954254","0.0-20.0-0.0","5e648efca8c76520c918bb31","6790928bebf0b969fc839b02","67982616c22679020ba106d8","passed","","","","","","","","","","","","","","","","","ballFalling","604.4000000000001","596.8711431702998","394.5","10","fallScene","false","","","","","49","",""
"","","","","","html-keyboard-response","196","957257","0.0-20.0-1.0","5e648efca8c76520c918bb31","6790928bebf0b969fc839b02","67982616c22679020ba106d8","passed","","986","","","","","","","","","","","","","","j","yesOrNo","","","","10","","","gt","3000","","","49","596.8711431702998","394.5"
"","","","","","html-keyboard-response","197","958823","0.0-20.0-0.1","5e648efca8c76520c918bb31","6790928bebf0b969fc839b02","67982616c22679020ba106d8","passed","","","","","","","","","","","","","","","","","ballFalling","322.3","356.42114317029973","357.87","4","fallScene","true","","","","","50","",""
"","","","","","html-keyboard-response","198","961828","0.0-20.0-1.1","5e648efca8c76520c918bb31","6790928bebf0b969fc839b02","67982616c22679020ba106d8","passed","","592","","","","","","","","","","","","","","f","yesOrNo","","","","4","","","mid","3000","","","50","390.27114317029975","300"
"","","","","","html-keyboard-response","199","963395","0.0-20.0-0.2","5e648efca8c76520c918bb31","6790928bebf0b969fc839b02","67982616c22679020ba106d8","passed","","","","","","","","","","","","","","","","","ballFalling","604.4000000000001","650.0211431702996","404.58000000000004","11","fallScene","false","","","","","51","",""
"","","","","","html-keyboard-response","200","966397","0.0-20.0-1.2","5e648efca8c76520c918bb31","6790928bebf0b969fc839b02","67982616c22679020ba106d8","passed","","805","","","","","","","","","","","","","","j","yesOrNo","","","","11","","","gt","3000","","","51","650.0211431702996","404.58"
"","","","","","html-keyboard-response","201","968415","0.0-20.0-0.3","5e648efca8c76520c918bb31","6790928bebf0b969fc839b02","67982616c22679020ba106d8","passed","","","","","","","","","","","","","","","","","ballFalling","500","510.8711431702997","369.03","8","fallScene","true","","","","","52","",""
"","","","","","html-keyboard-response","202","971418","0.0-20.0-1.3","5e648efca8c76520c918bb31","6790928bebf0b969fc839b02","67982616c22679020ba106d8","passed","","648","","","","","","","","","","","","","","j","yesOrNo","","","","8","","","mid","3000","","","52","501","300"
"","","","","","html-keyboard-response","203","972985","0.0-20.0-0.4","5e648efca8c76520c918bb31","6790928bebf0b969fc839b02","67982616c22679020ba106d8","passed","","","","","","","","","","","","","","","","","ballFalling","322.3","379.3711431702997","245.25","1","fallScene","false","","","","","53","",""
"","","","","","html-keyboard-response","204","975988","0.0-20.0-1.4","5e648efca8c76520c918bb31","6790928bebf0b969fc839b02","67982616c22679020ba106d8","passed","","925","","","","","","","","","","","","","","f","yesOrNo","","","","1","","","lp","3000","","","53","323.3","217.74551669457017"
"","","","","","html-keyboard-response","205","977555","0.0-20.0-0.5","5e648efca8c76520c918bb31","6790928bebf0b969fc839b02","67982616c22679020ba106d8","passed","","","","","","","","","","","","","","","","","ballFalling","322.3","356.42114317029973","357.87","4","fallScene","true","","","","","54","",""
"","","","","","html-keyboard-response","206","980559","0.0-20.0-1.5","5e648efca8c76520c918bb31","6790928bebf0b969fc839b02","67982616c22679020ba106d8","passed","","1372","","","","","","","","","","","","","","f","yesOrNo","","","","4","","","gt","3000","","","54","356.42114317029973","357.87"
"","","","","","html-keyboard-response","207","982560","0.0-20.0-0.6","5e648efca8c76520c918bb31","6790928bebf0b969fc839b02","67982616c22679020ba106d8","passed","","","","","","","","","","","","","","","","","ballFalling","500","510.8711431702997","369.03","8","fallScene","true","","","","","55","",""
"","","","","","html-keyboard-response","208","985563","0.0-20.0-1.6","5e648efca8c76520c918bb31","6790928bebf0b969fc839b02","67982616c22679020ba106d8","passed","","670","","","","","","","","","","","","","","f","yesOrNo","","","","8","","","lp","3000","","","55","501","151"
"","","","","","html-keyboard-response","209","987363","0.0-20.0-0.7","5e648efca8c76520c918bb31","6790928bebf0b969fc839b02","67982616c22679020ba106d8","passed","","","","","","","","","","","","","","","","","ballFalling","322.3","308.07114317029976","253.89","2","fallScene","false","","","","","56","",""
"","","","","","html-keyboard-response","210","990365","0.0-20.0-1.7","5e648efca8c76520c918bb31","6790928bebf0b969fc839b02","67982616c22679020ba106d8","passed","","451","","","","","","","","","","","","","","j","yesOrNo","","","","2","","","gt","3000","","","56","308.07114317029976","253.89"
"","","","","","html-keyboard-response","211","991851","0.0-20.0-0.8","5e648efca8c76520c918bb31","6790928bebf0b969fc839b02","67982616c22679020ba106d8","passed","","","","","","","","","","","","","","","","","ballFalling","604.4000000000001","667.6211431702998","201.78","9","fallScene","false","","","","","57","",""
"","","","","","html-keyboard-response","212","994854","0.0-20.0-1.8","5e648efca8c76520c918bb31","6790928bebf0b969fc839b02","67982616c22679020ba106d8","passed","","635","","","","","","","","","","","","","","f","yesOrNo","","","","9","","","lp","3000","","","57","605.4000000000001","151"
"","","","","","html-keyboard-response","213","996520","0.0-20.0-0.9","5e648efca8c76520c918bb31","6790928bebf0b969fc839b02","67982616c22679020ba106d8","passed","","","","","","","","","","","","","","","","","ballFalling","500","479.92114317029973","330.87","6","fallScene","false","","","","","58","",""
"","","","","","html-keyboard-response","214","999524","0.0-20.0-1.9","5e648efca8c76520c918bb31","6790928bebf0b969fc839b02","67982616c22679020ba106d8","passed","","574","","","","","","","","","","","","","","f","yesOrNo","","","","6","","","lp","3000","","","58","499","189.92909825697632"
"","","","","","html-keyboard-response","215","1001092","0.0-20.0-0.10","5e648efca8c76520c918bb31","6790928bebf0b969fc839b02","67982616c22679020ba106d8","passed","","","","","","","","","","","","","","","","","ballFalling","500","453.67114317029973","210.33","5","fallScene","false","","","","","59","",""
"","","","","","html-keyboard-response","216","1004094","0.0-20.0-1.10","5e648efca8c76520c918bb31","6790928bebf0b969fc839b02","67982616c22679020ba106d8","passed","","500","","","","","","","","","","","","","","f","yesOrNo","","","","5","","","lp","3000","","","59","499","151"
"","","","","","html-keyboard-response","217","1005661","0.0-20.0-0.11","5e648efca8c76520c918bb31","6790928bebf0b969fc839b02","67982616c22679020ba106d8","passed","","","","","","","","","","","","","","","","","ballFalling","604.4000000000001","650.0211431702996","404.58000000000004","11","fallScene","false","","","","","60","",""
"","","","","","html-keyboard-response","218","1008663","0.0-20.0-1.11","5e648efca8c76520c918bb31","6790928bebf0b969fc839b02","67982616c22679020ba106d8","passed","","809","","","","","","","","","","","","","","f","yesOrNo","","","","11","","","gt","3000","","","60","650.0211431702996","404.58"
"","","","","","html-keyboard-response","219","1010215","0.0-20.0-0.12","5e648efca8c76520c918bb31","6790928bebf0b969fc839b02","67982616c22679020ba106d8","passed","","","","","","","","","","","","","","","","","ballFalling","604.4000000000001","575.4211431702997","266.76","12","fallScene","true","","","","","61","",""
"","","","","","html-keyboard-response","220","1013220","0.0-20.0-1.12","5e648efca8c76520c918bb31","6790928bebf0b969fc839b02","67982616c22679020ba106d8","passed","","1415","","","","","","","","","","","","","","f","yesOrNo","","","","12","","","mid","3000","","","61","536.4288568297004","300"
"","","","","","html-keyboard-response","221","1015237","0.0-20.0-0.13","5e648efca8c76520c918bb31","6790928bebf0b969fc839b02","67982616c22679020ba106d8","passed","","","","","","","","","","","","","","","","","ballFalling","604.4000000000001","596.8711431702998","394.5","10","fallScene","false","","","","","62","",""
"","","","","","html-keyboard-response","222","1018240","0.0-20.0-1.13","5e648efca8c76520c918bb31","6790928bebf0b969fc839b02","67982616c22679020ba106d8","passed","","1121","","","","","","","","","","","","","","f","yesOrNo","","","","10","","","lp","3000","","","62","603.4000000000001","215.50214355555383"
"","","","","","html-keyboard-response","223","1019807","0.0-20.0-0.14","5e648efca8c76520c918bb31","6790928bebf0b969fc839b02","67982616c22679020ba106d8","passed","","","","","","","","","","","","","","","","","ballFalling","500","453.67114317029973","210.33","5","fallScene","false","","","","","63","",""
"","","","","","html-keyboard-response","224","1022810","0.0-20.0-1.14","5e648efca8c76520c918bb31","6790928bebf0b969fc839b02","67982616c22679020ba106d8","passed","","1456","","","","","","","","","","","","","","j","yesOrNo","","","","5","","","gt","3000","","","63","453.6711431702998","210.33"
"","","","","","html-keyboard-response","225","1024378","0.0-20.0-0.15","5e648efca8c76520c918bb31","6790928bebf0b969fc839b02","67982616c22679020ba106d8","passed","","","","","","","","","","","","","","","","","ballFalling","500","453.67114317029973","210.33","5","fallScene","false","","","","","64","",""
"","","","","","html-keyboard-response","226","1027380","0.0-20.0-1.15","5e648efca8c76520c918bb31","6790928bebf0b969fc839b02","67982616c22679020ba106d8","passed","","429","","","","","","","","","","","","","","j","yesOrNo","","","","5","","","gt","3000","","","64","453.6711431702998","210.33"
"","","","","","html-keyboard-response","227","1028964","0.0-20.0-0.16","5e648efca8c76520c918bb31","6790928bebf0b969fc839b02","67982616c22679020ba106d8","passed","","","","","","","","","","","","","","","","","ballFalling","500","553.4711431702997","282.51","7","fallScene","true","","","","","65","",""
"","","","","","html-keyboard-response","228","1031967","0.0-20.0-1.16","5e648efca8c76520c918bb31","6790928bebf0b969fc839b02","67982616c22679020ba106d8","passed","","1203","","","","","","","","","","","","","","j","yesOrNo","","","","7","","","mid","3000","","","65","501","300"
"","","","","","html-keyboard-response","229","1033552","0.0-20.0-0.17","5e648efca8c76520c918bb31","6790928bebf0b969fc839b02","67982616c22679020ba106d8","passed","","","","","","","","","","","","","","","","","ballFalling","500","553.4711431702997","282.51","7","fallScene","false","","","","","66","",""
"","","","","","html-keyboard-response","230","1036554","0.0-20.0-1.17","5e648efca8c76520c918bb31","6790928bebf0b969fc839b02","67982616c22679020ba106d8","passed","","1352","","","","","","","","","","","","","","f","yesOrNo","","","","7","","","gt","3000","","","66","553.4711431702997","282.51"
"","","","","","html-keyboard-response","231","1038122","0.0-20.0-0.18","5e648efca8c76520c918bb31","6790928bebf0b969fc839b02","67982616c22679020ba106d8","passed","","","","","","","","","","","","","","","","","ballFalling","322.3","296.07114317029976","371.46","3","fallScene","false","","","","","67","",""
"","","","","","html-keyboard-response","232","1041125","0.0-20.0-1.18","5e648efca8c76520c918bb31","6790928bebf0b969fc839b02","67982616c22679020ba106d8","passed","","564","","","","","","","","","","","","","","j","yesOrNo","","","","3","","","lp","3000","","","67","321.3","287.3327096511259"
"","","","","","html-keyboard-response","233","1042692","0.0-20.0-0.19","5e648efca8c76520c918bb31","6790928bebf0b969fc839b02","67982616c22679020ba106d8","passed","","","","","","","","","","","","","","","","","ballFalling","322.3","379.3711431702997","245.25","1","fallScene","false","","","","","68","",""
"","","","","","html-keyboard-response","234","1045694","0.0-20.0-1.19","5e648efca8c76520c918bb31","6790928bebf0b969fc839b02","67982616c22679020ba106d8","passed","","1170","","","","","","","","","","","","","","f","yesOrNo","","","","1","","","mid","3000","","","68","390.27114317029975","300"
"","","","","","html-keyboard-response","235","1047246","0.0-20.0-0.20","5e648efca8c76520c918bb31","6790928bebf0b969fc839b02","67982616c22679020ba106d8","passed","","","","","","","","","","","","","","","","","ballFalling","604.4000000000001","650.0211431702996","404.58000000000004","11","fallScene","false","","","","","69","",""
"","","","","","html-keyboard-response","236","1050249","0.0-20.0-1.20","5e648efca8c76520c918bb31","6790928bebf0b969fc839b02","67982616c22679020ba106d8","passed","","848","","","","","","","","","","","","","","f","yesOrNo","","","","11","","","lp","3000","","","69","605.4000000000001","372.6340973215488"
"","","","","","html-keyboard-response","237","1051816","0.0-20.0-0.21","5e648efca8c76520c918bb31","6790928bebf0b969fc839b02","67982616c22679020ba106d8","passed","","","","","","","","","","","","","","","","","ballFalling","322.3","379.3711431702997","245.25","1","fallScene","false","","","","","70","",""
"","","","","","html-keyboard-response","238","1054818","0.0-20.0-1.21","5e648efca8c76520c918bb31","6790928bebf0b969fc839b02","67982616c22679020ba106d8","passed","","1150","","","","","","","","","","","","","","f","yesOrNo","","","","1","","","mid","3000","","","70","390.27114317029975","300"
"","","","","","html-keyboard-response","239","1056820","0.0-20.0-0.22","5e648efca8c76520c918bb31","6790928bebf0b969fc839b02","67982616c22679020ba106d8","passed","","","","","","","","","","","","","","","","","ballFalling","604.4000000000001","596.8711431702998","394.5","10","fallScene","true","","","","","71","",""
"","","","","","html-keyboard-response","240","1059823","0.0-20.0-1.22","5e648efca8c76520c918bb31","6790928bebf0b969fc839b02","67982616c22679020ba106d8","passed","","1658","","","","","","","","","","","","","","j","yesOrNo","","","","10","","","mid","3000","","","71","536.4288568297004","300"
"","","","","","html-keyboard-response","241","1061841","0.0-20.0-0.23","5e648efca8c76520c918bb31","6790928bebf0b969fc839b02","67982616c22679020ba106d8","passed","","","","","","","","","","","","","","","","","ballFalling","500","510.8711431702997","369.03","8","fallScene","true","","","","","72","",""
"","","","","","html-keyboard-response","242","1064842","0.0-20.0-1.23","5e648efca8c76520c918bb31","6790928bebf0b969fc839b02","67982616c22679020ba106d8","passed","","644","","","","","","","","","","","","","","j","yesOrNo","","","","8","","","gt","3000","","","72","510.8711431702997","369.03"
"","","","","","html-keyboard-response","243","1279588","0.0-21.0","5e648efca8c76520c918bb31","6790928bebf0b969fc839b02","67982616c22679020ba106d8","passed","","214740","","","","","","","","","","","","","<p><span style=""font-size:40px;"">BLOCK 4</span></p><p><span style=""font-size:25px;"">You have <b style=""color: #FF644F;""><strong>1 second(s)</strong></b> to respond to the following trials.</span><br></p><p></p> <!-- Blank line -->
                <p id=""blinking-text"" style=""font-weight; animation: blink 2s infinite;"">Press Space to continue</p>
                <style>
                    @keyframes blink {
                        50% {
                            opacity: 0;
                        }
                    }
                </style></p>"," ","","","","","","","","","","","","","",""
"","","","","","html-keyboard-response","244","1281603","0.0-22.0-0.0","5e648efca8c76520c918bb31","6790928bebf0b969fc839b02","67982616c22679020ba106d8","passed","","","","","","","","","","","","","","","","","ballFalling","500","510.8711431702997","369.03","8","fallScene","false","","","","","73","",""
"","","","","","html-keyboard-response","245","1282606","0.0-22.0-1.0","5e648efca8c76520c918bb31","6790928bebf0b969fc839b02","67982616c22679020ba106d8","passed","","823","","","","","","","","","","","","","","j","yesOrNo","","","","8","","","mid","1000","","","73","501","300"
"","","","","","html-keyboard-response","246","1284172","0.0-22.0-0.1","5e648efca8c76520c918bb31","6790928bebf0b969fc839b02","67982616c22679020ba106d8","passed","","","","","","","","","","","","","","","","","ballFalling","604.4000000000001","650.0211431702996","404.58000000000004","11","fallScene","true","","","","","74","",""
"","","","","","html-keyboard-response","247","1285174","0.0-22.0-1.1","5e648efca8c76520c918bb31","6790928bebf0b969fc839b02","67982616c22679020ba106d8","passed","","543","","","","","","","","","","","","","","j","yesOrNo","","","","11","","","mid","1000","","","74","605.4000000000001","300"
"","","","","","html-keyboard-response","248","1286757","0.0-22.0-0.2","5e648efca8c76520c918bb31","6790928bebf0b969fc839b02","67982616c22679020ba106d8","passed","","","","","","","","","","","","","","","","","ballFalling","500","553.4711431702997","282.51","7","fallScene","false","","","","","75","",""
"","","","","","html-keyboard-response","249","1287759","0.0-22.0-1.2","5e648efca8c76520c918bb31","6790928bebf0b969fc839b02","67982616c22679020ba106d8","passed","","405","","","","","","","","","","","","","","j","yesOrNo","","","","7","","","mid","1000","","","75","501","300"
"","","","","","html-keyboard-response","250","1289327","0.0-22.0-0.3","5e648efca8c76520c918bb31","6790928bebf0b969fc839b02","67982616c22679020ba106d8","passed","","","","","","","","","","","","","","","","","ballFalling","500","453.67114317029973","210.33","5","fallScene","true","","","","","76","",""
"","","","","","html-keyboard-response","251","1290329","0.0-22.0-1.3","5e648efca8c76520c918bb31","6790928bebf0b969fc839b02","67982616c22679020ba106d8","passed","","444","","","","","","","","","","","","","","j","yesOrNo","","","","5","","","mid","1000","","","76","499","300"
"","","","","","html-keyboard-response","252","1291895","0.0-22.0-0.4","5e648efca8c76520c918bb31","6790928bebf0b969fc839b02","67982616c22679020ba106d8","passed","","","","","","","","","","","","","","","","","ballFalling","604.4000000000001","575.4211431702997","266.76","12","fallScene","false","","","","","77","",""
"","","","","","html-keyboard-response","253","1292898","0.0-22.0-1.4","5e648efca8c76520c918bb31","6790928bebf0b969fc839b02","67982616c22679020ba106d8","passed","","443","","","","","","","","","","","","","","f","yesOrNo","","","","12","","","mid","1000","","","77","536.4288568297004","300"
"","","","","","html-keyboard-response","254","1294464","0.0-22.0-0.5","5e648efca8c76520c918bb31","6790928bebf0b969fc839b02","67982616c22679020ba106d8","passed","","","","","","","","","","","","","","","","","ballFalling","322.3","296.07114317029976","371.46","3","fallScene","false","","","","","78","",""
"","","","","","html-keyboard-response","255","1295466","0.0-22.0-1.5","5e648efca8c76520c918bb31","6790928bebf0b969fc839b02","67982616c22679020ba106d8","passed","","706","","","","","","","","","","","","","","f","yesOrNo","","","","3","","","gt","1000","","","78","296.07114317029976","371.46"
"","","","","","html-keyboard-response","256","1297133","0.0-22.0-0.6","5e648efca8c76520c918bb31","6790928bebf0b969fc839b02","67982616c22679020ba106d8","passed","","","","","","","","","","","","","","","","","ballFalling","500","479.92114317029973","330.87","6","fallScene","false","","","","","79","",""
"","","","","","html-keyboard-response","257","1298135","0.0-22.0-1.6","5e648efca8c76520c918bb31","6790928bebf0b969fc839b02","67982616c22679020ba106d8","passed","","534","","","","","","","","","","","","","","f","yesOrNo","","","","6","","","lp","1000","","","79","499","189.92909825697632"
"","","","","","html-keyboard-response","258","1299718","0.0-22.0-0.7","5e648efca8c76520c918bb31","6790928bebf0b969fc839b02","67982616c22679020ba106d8","passed","","","","","","","","","","","","","","","","","ballFalling","500","553.4711431702997","282.51","7","fallScene","false","","","","","80","",""
"","","","","","html-keyboard-response","259","1300720","0.0-22.0-1.7","5e648efca8c76520c918bb31","6790928bebf0b969fc839b02","67982616c22679020ba106d8","passed","","676","","","","","","","","","","","","","","j","yesOrNo","","","","7","","","gt","1000","","","80","553.4711431702997","282.51"
"","","","","","html-keyboard-response","260","1302387","0.0-22.0-0.8","5e648efca8c76520c918bb31","6790928bebf0b969fc839b02","67982616c22679020ba106d8","passed","","","","","","","","","","","","","","","","","ballFalling","500","479.92114317029973","330.87","6","fallScene","true","","","","","81","",""
"","","","","","html-keyboard-response","261","1303390","0.0-22.0-1.8","5e648efca8c76520c918bb31","6790928bebf0b969fc839b02","67982616c22679020ba106d8","passed","","854","","","","","","","","","","","","","","j","yesOrNo","","","","6","","","gt","1000","","","81","479.9211431702998","330.87"
"","","","","","html-keyboard-response","262","1304955","0.0-22.0-0.9","5e648efca8c76520c918bb31","6790928bebf0b969fc839b02","67982616c22679020ba106d8","passed","","","","","","","","","","","","","","","","","ballFalling","322.3","356.42114317029973","357.87","4","fallScene","false","","","","","82","",""
"","","","","","html-keyboard-response","263","1305957","0.0-22.0-1.9","5e648efca8c76520c918bb31","6790928bebf0b969fc839b02","67982616c22679020ba106d8","passed","","535","","","","","","","","","","","","","","j","yesOrNo","","","","4","","","gt","1000","","","82","356.42114317029973","357.87"
"","","","","","html-keyboard-response","264","1307524","0.0-22.0-0.10","5e648efca8c76520c918bb31","6790928bebf0b969fc839b02","67982616c22679020ba106d8","passed","","","","","","","","","","","","","","","","","ballFalling","500","453.67114317029973","210.33","5","fallScene","false","","","","","83","",""
"","","","","","html-keyboard-response","265","1308526","0.0-22.0-1.10","5e648efca8c76520c918bb31","6790928bebf0b969fc839b02","67982616c22679020ba106d8","passed","","469","","","","","","","","","","","","","","f","yesOrNo","","","","5","","","lp","1000","","","83","499","151"
"","","","","","html-keyboard-response","266","1310544","0.0-22.0-0.11","5e648efca8c76520c918bb31","6790928bebf0b969fc839b02","67982616c22679020ba106d8","passed","","","","","","","","","","","","","","","","","ballFalling","500","510.8711431702997","369.03","8","fallScene","true","","","","","84","",""
"","","","","","html-keyboard-response","267","1311546","0.0-22.0-1.11","5e648efca8c76520c918bb31","6790928bebf0b969fc839b02","67982616c22679020ba106d8","passed","","553","","","","","","","","","","","","","","f","yesOrNo","","","","8","","","lp","1000","","","84","501","151"
"","","","","","html-keyboard-response","268","1313113","0.0-22.0-0.12","5e648efca8c76520c918bb31","6790928bebf0b969fc839b02","67982616c22679020ba106d8","passed","","","","","","","","","","","","","","","","","ballFalling","322.3","379.3711431702997","245.25","1","fallScene","true","","","","","85","",""
"","","","","","html-keyboard-response","269","1314115","0.0-22.0-1.12","5e648efca8c76520c918bb31","6790928bebf0b969fc839b02","67982616c22679020ba106d8","passed","","609","","","","","","","","","","","","","","f","yesOrNo","","","","1","","","mid","1000","","","85","390.27114317029975","300"
"","","","","","html-keyboard-response","270","1315682","0.0-22.0-0.13","5e648efca8c76520c918bb31","6790928bebf0b969fc839b02","67982616c22679020ba106d8","passed","","","","","","","","","","","","","","","","","ballFalling","322.3","296.07114317029976","371.46","3","fallScene","false","","","","","86","",""
"","","","","","html-keyboard-response","271","1316684","0.0-22.0-1.13","5e648efca8c76520c918bb31","6790928bebf0b969fc839b02","67982616c22679020ba106d8","passed","","480","","","","","","","","","","","","","","j","yesOrNo","","","","3","","","mid","1000","","","86","321.3","300"
"","","","","","html-keyboard-response","272","1318250","0.0-22.0-0.14","5e648efca8c76520c918bb31","6790928bebf0b969fc839b02","67982616c22679020ba106d8","passed","","","","","","","","","","","","","","","","","ballFalling","322.3","379.3711431702997","245.25","1","fallScene","false","","","","","87","",""
"","","","","","html-keyboard-response","273","1319252","0.0-22.0-1.14","5e648efca8c76520c918bb31","6790928bebf0b969fc839b02","67982616c22679020ba106d8","passed","","288","","","","","","","","","","","","","","j","yesOrNo","","","","1","","","mid","1000","","","87","390.27114317029975","300"
"","","","","","html-keyboard-response","274","1320753","0.0-22.0-0.15","5e648efca8c76520c918bb31","6790928bebf0b969fc839b02","67982616c22679020ba106d8","passed","","","","","","","","","","","","","","","","","ballFalling","604.4000000000001","667.6211431702998","201.78","9","fallScene","false","","","","","88","",""
"","","","","","html-keyboard-response","275","1321755","0.0-22.0-1.15","5e648efca8c76520c918bb31","6790928bebf0b969fc839b02","67982616c22679020ba106d8","passed","","489","","","","","","","","","","","","","","j","yesOrNo","","","","9","","","gt","1000","","","88","667.6211431702998","201.78"
"","","","","","html-keyboard-response","276","1323322","0.0-22.0-0.16","5e648efca8c76520c918bb31","6790928bebf0b969fc839b02","67982616c22679020ba106d8","passed","","","","","","","","","","","","","","","","","ballFalling","322.3","356.42114317029973","357.87","4","fallScene","true","","","","","89","",""
"","","","","","html-keyboard-response","277","1324324","0.0-22.0-1.16","5e648efca8c76520c918bb31","6790928bebf0b969fc839b02","67982616c22679020ba106d8","passed","","552","","","","","","","","","","","","","","j","yesOrNo","","","","4","","","lp","1000","","","89","323.3","297.4070551689986"
"","","","","","html-keyboard-response","278","1326340","0.0-22.0-0.17","5e648efca8c76520c918bb31","6790928bebf0b969fc839b02","67982616c22679020ba106d8","passed","","","","","","","","","","","","","","","","","ballFalling","604.4000000000001","596.8711431702998","394.5","10","fallScene","true","","","","","90","",""
"","","","","","html-keyboard-response","279","1327342","0.0-22.0-1.17","5e648efca8c76520c918bb31","6790928bebf0b969fc839b02","67982616c22679020ba106d8","passed","","815","","","","","","","","","","","","","","j","yesOrNo","","","","10","","","lp","1000","","","90","603.4000000000001","215.50214355555383"
"","","","","","html-keyboard-response","280","1328910","0.0-22.0-0.18","5e648efca8c76520c918bb31","6790928bebf0b969fc839b02","67982616c22679020ba106d8","passed","","","","","","","","","","","","","","","","","ballFalling","500","453.67114317029973","210.33","5","fallScene","true","","","","","91","",""
"","","","","","html-keyboard-response","281","1329912","0.0-22.0-1.18","5e648efca8c76520c918bb31","6790928bebf0b969fc839b02","67982616c22679020ba106d8","passed","","524","","","","","","","","","","","","","","f","yesOrNo","","","","5","","","lp","1000","","","91","499","151"
"","","","","","html-keyboard-response","282","1331478","0.0-22.0-0.19","5e648efca8c76520c918bb31","6790928bebf0b969fc839b02","67982616c22679020ba106d8","passed","","","","","","","","","","","","","","","","","ballFalling","604.4000000000001","575.4211431702997","266.76","12","fallScene","true","","","","","92","",""
"","","","","","html-keyboard-response","283","1332480","0.0-22.0-1.19","5e648efca8c76520c918bb31","6790928bebf0b969fc839b02","67982616c22679020ba106d8","passed","","547","","","","","","","","","","","","","","j","yesOrNo","","","","12","","","gt","1000","","","92","575.4211431702997","266.76"
"","","","","","html-keyboard-response","284","1334046","0.0-22.0-0.20","5e648efca8c76520c918bb31","6790928bebf0b969fc839b02","67982616c22679020ba106d8","passed","","","","","","","","","","","","","","","","","ballFalling","500","453.67114317029973","210.33","5","fallScene","true","","","","","93","",""
"","","","","","html-keyboard-response","285","1335048","0.0-22.0-1.20","5e648efca8c76520c918bb31","6790928bebf0b969fc839b02","67982616c22679020ba106d8","passed","","364","","","","","","","","","","","","","","j","yesOrNo","","","","5","","","mid","1000","","","93","499","300"
"","","","","","html-keyboard-response","286","1336631","0.0-22.0-0.21","5e648efca8c76520c918bb31","6790928bebf0b969fc839b02","67982616c22679020ba106d8","passed","","","","","","","","","","","","","","","","","ballFalling","500","553.4711431702997","282.51","7","fallScene","false","","","","","94","",""
"","","","","","html-keyboard-response","287","1337633","0.0-22.0-1.21","5e648efca8c76520c918bb31","6790928bebf0b969fc839b02","67982616c22679020ba106d8","passed","","362","","","","","","","","","","","","","","j","yesOrNo","","","","7","","","mid","1000","","","94","501","300"
"","","","","","html-keyboard-response","288","1339200","0.0-22.0-0.22","5e648efca8c76520c918bb31","6790928bebf0b969fc839b02","67982616c22679020ba106d8","passed","","","","","","","","","","","","","","","","","ballFalling","322.3","296.07114317029976","371.46","3","fallScene","true","","","","","95","",""
"","","","","","html-keyboard-response","289","1340202","0.0-22.0-1.22","5e648efca8c76520c918bb31","6790928bebf0b969fc839b02","67982616c22679020ba106d8","passed","","314","","","","","","","","","","","","","","j","yesOrNo","","","","3","","","mid","1000","","","95","321.3","300"
"","","","","","html-keyboard-response","290","1341769","0.0-22.0-0.23","5e648efca8c76520c918bb31","6790928bebf0b969fc839b02","67982616c22679020ba106d8","passed","","","","","","","","","","","","","","","","","ballFalling","604.4000000000001","575.4211431702997","266.76","12","fallScene","true","","","","","96","",""
"","","","","","html-keyboard-response","291","1342772","0.0-22.0-1.23","5e648efca8c76520c918bb31","6790928bebf0b969fc839b02","67982616c22679020ba106d8","passed","","560","","","","","","","","","","","","","","j","yesOrNo","","","","12","","","mid","1000","","","96","536.4288568297004","300"
"","","","","","html-keyboard-response","292","1344322","0.0-23.0","5e648efca8c76520c918bb31","6790928bebf0b969fc839b02","67982616c22679020ba106d8","passed","","1550","","","","","","","","","","","","","<p><span style=""font-size:40px;"">BLOCK 5</span></p><p><span style=""font-size:25px;"">You have <b style=""color: #FF644F;""><strong>1 second(s)</strong></b> to respond to the following trials.</span><br></p><p></p> <!-- Blank line -->
                <p id=""blinking-text"" style=""font-weight; animation: blink 2s infinite;"">Press Space to continue</p>
                <style>
                    @keyframes blink {
                        50% {
                            opacity: 0;
                        }
                    }
                </style></p>"," ","","","","","","","","","","","","","",""
"","","","","","html-keyboard-response","293","1345889","0.0-24.0-0.0","5e648efca8c76520c918bb31","6790928bebf0b969fc839b02","67982616c22679020ba106d8","passed","","","","","","","","","","","","","","","","","ballFalling","604.4000000000001","650.0211431702996","404.58000000000004","11","fallScene","false","","","","","97","",""
"","","","","","html-keyboard-response","294","1346891","0.0-24.0-1.0","5e648efca8c76520c918bb31","6790928bebf0b969fc839b02","67982616c22679020ba106d8","passed","","472","","","","","","","","","","","","","","f","yesOrNo","","","","11","","","lp","1000","","","97","605.4000000000001","372.6340973215488"
"","","","","","html-keyboard-response","295","1348558","0.0-24.0-0.1","5e648efca8c76520c918bb31","6790928bebf0b969fc839b02","67982616c22679020ba106d8","passed","","","","","","","","","","","","","","","","","ballFalling","500","479.92114317029973","330.87","6","fallScene","false","","","","","98","",""
