"success","timeout","failed_images","failed_audio","failed_video","trial_type","trial_index","time_elapsed","internal_node_id","subject_id","study_id","session_id","practiceTestResult","view_history","rt","width","height","webaudio","browser","browser_version","mobile","os","fullscreen","vsync_rate","webcam","microphone","url","stimulus","response","task","ball_X","obstacle_groundTruth_x","obstacle_groundTruth_y","stimulus_idx","trial_name","flipped","choice","timeLimit","question_order","currentTrial","obstacle_choice_x","obstacle_choice_y"
"true","false","[]","[]","[]","preload","0","106","0.0-0.0","5f8f54c1450c2d1b5984c34f","6790928bebf0b969fc839b02","67929d145a93a875db9c3f2c","passed","","","","","","","","","","","","","","","","","","","","","","","","","","","","",""
"","","","","","instructions","1","3708","0.0-1.0","5f8f54c1450c2d1b5984c34f","6790928bebf0b969fc839b02","67929d145a93a875db9c3f2c","passed","[{""page_index"":0,""viewing_time"":3601}]","3601","","","","","","","","","","","","","","","","","","","","","","","","","","",""
"","","","","","browser-check","2","4699","0.0-2.0","5f8f54c1450c2d1b5984c34f","6790928bebf0b969fc839b02","67929d145a93a875db9c3f2c","passed","","","1272","607","true","edge-chromium","132.0.0","false","Windows 10","true","60.87","true","true","","","","","","","","","","","","","","","",""
"","","","","","external-html","3","9263","0.0-3.0","5f8f54c1450c2d1b5984c34f","6790928bebf0b969fc839b02","67929d145a93a875db9c3f2c","passed","","4526","","","","","","","","","","","","consent.html","","","","","","","","","","","","","","",""
"true","","","","","fullscreen","4","20310","0.0-4.0","5f8f54c1450c2d1b5984c34f","6790928bebf0b969fc839b02","67929d145a93a875db9c3f2c","passed","","10735","","","","","","","","","","","","","","","","","","","","","","","","","","",""
"","","","","","browser-check","5","21300","0.0-5.0","5f8f54c1450c2d1b5984c34f","6790928bebf0b969fc839b02","67929d145a93a875db9c3f2c","passed","","","1280","720","true","edge-chromium","132.0.0","false","Windows 10","true","60.69","true","true","","","","","","","","","","","","","","","",""
"","","","","","html-keyboard-response","6","25055","0.0-6.0","5f8f54c1450c2d1b5984c34f","6790928bebf0b969fc839b02","67929d145a93a875db9c3f2c","passed","","3754","","","","","","","","","","","","","<p><b>This experiment requires keyboard input.</b></p> 
        <p><b>To ensure your response will be recorded successfully, please press 'Space' to continue.</b></p>
        <p>If you can't proceed, you won't be able to complete this study.</p>
        <p></p> <!-- Blank line -->
        <p id=""blinking-text"" style=""font-weight; animation: blink 2s infinite;"">Press Space to continue</p>
        <style>
            @keyframes blink {
                50% {
                    opacity: 0;
                }
            }
        </style>"," ","","","","","","","","","","","","",""
"","","","","","html-keyboard-response","7","28805","0.0-7.0","5f8f54c1450c2d1b5984c34f","6790928bebf0b969fc839b02","67929d145a93a875db9c3f2c","passed","","3749","","","","","","","","","","","","","<p><b>This experiment requires keyboard input.</b></p> 
        <p><b>To ensure your response will be recorded successfully, please press the 'f' key to continue.</b></p>
        <p>If you can't proceed, you won't be able to complete this study.</p>
        <p></p> <!-- Blank line -->
        <p id=""blinking-text"" style=""font-weight; animation: blink 2s infinite;"">Press f to continue</p>
        <style>
            @keyframes blink {
                50% {
                    opacity: 0;
                }
            }
        </style>","f","","","","","","","","","","","","",""
"","","","","","html-keyboard-response","8","31613","0.0-8.0","5f8f54c1450c2d1b5984c34f","6790928bebf0b969fc839b02","67929d145a93a875db9c3f2c","passed","","2807","","","","","","","","","","","","","<p><b>This experiment requires keyboard input.</b></p> 
        <p><b>To ensure your response will be recorded successfully, please press the 'j' key to continue.</b></p>
        <p>If you can't proceed, you won't be able to complete this study.</p>
        <p></p> <!-- Blank line -->
        <p id=""blinking-text"" style=""font-weight; animation: blink 2s infinite;"">Press j to continue</p>
        <style>
            @keyframes blink {
                50% {
                    opacity: 0;
                }
            }
        </style>","j","","","","","","","","","","","","",""
"","","","","","browser-check","9","32617","0.0-9.0","5f8f54c1450c2d1b5984c34f","6790928bebf0b969fc839b02","67929d145a93a875db9c3f2c","passed","","","1280","720","true","edge-chromium","132.0.0","false","Windows 10","true","59.97","true","true","","","","","","","","","","","","","","","",""
"","","","","","survey-text","10","35409","0.0-10.0","5f8f54c1450c2d1b5984c34f","6790928bebf0b969fc839b02","67929d145a93a875db9c3f2c","passed","","2789","","","","","","","","","","","","","","{""prolificID"":""5f8f54c1450c2d1b5984c34f""}","","","","","","","","","","","","",""
"","","","","","instructions","11","78331","0.0-11.0-0.0-0.0","5f8f54c1450c2d1b5984c34f","6790928bebf0b969fc839b02","67929d145a93a875db9c3f2c","passed","[{""page_index"":0,""viewing_time"":19916},{""page_index"":1,""viewing_time"":8737},{""page_index"":2,""viewing_time"":9162},{""page_index"":3,""viewing_time"":5107}]","42921","","","","","","","","","","","","","","","","","","","","","","","","","","",""
"","","","","","html-keyboard-response","12","89837","0.0-11.0-0.0-1.0","5f8f54c1450c2d1b5984c34f","6790928bebf0b969fc839b02","67929d145a93a875db9c3f2c","passed","","10988","","","","","","","","","","","","","<br>Remember! After a ball falls, the screen will disappear, and you'll decide if the proposed position is where the hidden triangle was. <br>You will now practice this by watching a few videos and making decisions.<p>To respond:<br style=""margin-bottom: 5px; text-indent: -20px; padding-left: 20px;"">- Press <b style=""color: #12AD2B;"">J for Yes</b>, if you think the triangle is in the correct position.<br style=""margin-top: 0; text-indent: -20px; padding-left: 20px;"">- Press <b style=""color: orange;"">F for No</b>, if you think the triangle is not in the correct position.</p><p>In this practice round, there is no time limit. Focus on getting comfortable with the task first.<br>Press either J or F to begin your practice trials.</p><img src = ""YesOrNo_instruction.png"" style=""width: 65%;""></img>","j","","","","","","","","","","","","",""
"","","","","","html-keyboard-response","13","91399","0.0-11.0-0.0-2.0-0.0","5f8f54c1450c2d1b5984c34f","6790928bebf0b969fc839b02","67929d145a93a875db9c3f2c","passed","","","","","","","","","","","","","","","","","ballFalling_prac","416","464","296","1","fallScene","false","","","","","",""
"","","","","","html-keyboard-response","14","92949","0.0-11.0-0.0-2.0-1.0","5f8f54c1450c2d1b5984c34f","6790928bebf0b969fc839b02","67929d145a93a875db9c3f2c","passed","","1547","","","","","","","","","","","","","","j","yesOrNo_prac_noTimed","","","","1","","","gt","NA","","","",""
"","","","","","html-keyboard-response","15","95066","0.0-11.0-0.0-2.0-0.1","5f8f54c1450c2d1b5984c34f","6790928bebf0b969fc839b02","67929d145a93a875db9c3f2c","passed","","","","","","","","","","","","","","","","","ballFalling_prac","660","666","350","3","fallScene","false","","","","","",""
"","","","","","html-keyboard-response","16","95708","0.0-11.0-0.0-2.0-1.1","5f8f54c1450c2d1b5984c34f","6790928bebf0b969fc839b02","67929d145a93a875db9c3f2c","passed","","640","","","","","","","","","","","","","","j","yesOrNo_prac_noTimed","","","","3","","","wrong direction","NA","","","",""
"","","","","","html-keyboard-response","17","97282","0.0-11.0-0.0-2.0-0.2","5f8f54c1450c2d1b5984c34f","6790928bebf0b969fc839b02","67929d145a93a875db9c3f2c","passed","","","","","","","","","","","","","","","","","ballFalling_prac","441","414","302","5","fallScene","true","","","","","",""
"","","","","","html-keyboard-response","18","98472","0.0-11.0-0.0-2.0-1.2","5f8f54c1450c2d1b5984c34f","6790928bebf0b969fc839b02","67929d145a93a875db9c3f2c","passed","","1187","","","","","","","","","","","","","","f","yesOrNo_prac_noTimed","","","","5","","","close gt","NA","","","",""
"","","","","","instructions","19","131256","0.0-11.0-0.0-3.0","5f8f54c1450c2d1b5984c34f","6790928bebf0b969fc839b02","67929d145a93a875db9c3f2c","passed","[{""page_index"":0,""viewing_time"":14739},{""page_index"":1,""viewing_time"":18044}]","32783","","","","","","","","","","","","","","","","","","","","","","","","","","",""
"","","","","","html-button-response","20","134368","0.0-11.0-0.0-4.0","5f8f54c1450c2d1b5984c34f","6790928bebf0b969fc839b02","67929d145a93a875db9c3f2c","passed","","2597","","","","","","","","","","","","","<p>To make sure you understood the task, we just have a <b>brief quiz</b> here.</p><p>If you need to review the instructions, click 'Previous'.</p><p>It's important to understand the task to do the study, so you have to pass the quiz to move to the study.</p>","1","","","","","","","","","","","","",""
"","","","","","survey-multi-choice","21","147820","0.0-11.0-1.0-0.0","5f8f54c1450c2d1b5984c34f","6790928bebf0b969fc839b02","67929d145a93a875db9c3f2c","passed","","13450","","","","","","","","","","","","","","{""generalProcedure"":""Watch a video of a ball falling, some of it behind a gray screen. After each video, decide if the triangle is at the spot where the ball hit the triangle behind the screen. There is time limit for the response.""}","","","","","","","","","","[0]","","",""
"","","","","","survey-multi-choice","22","151951","0.0-11.0-1.0-1.0","5f8f54c1450c2d1b5984c34f","6790928bebf0b969fc839b02","67929d145a93a875db9c3f2c","passed","","4129","","","","","","","","","","","","","","{""checkBallHitObstacle"":""Yes.""}","","","","","","","","","","[0]","","",""
"","","","","","survey-multi-choice","23","157557","0.0-11.0-1.0-2.0","5f8f54c1450c2d1b5984c34f","6790928bebf0b969fc839b02","67929d145a93a875db9c3f2c","passed","","5603","","","","","","","","","","","","","","{""checkTriangleVisibility"":""No, the triangle is hidden behind the gray screen.""}","","","","","","","","","","[0]","","",""
"","","","","","survey-multi-choice","24","168802","0.0-11.0-1.0-3.0","5f8f54c1450c2d1b5984c34f","6790928bebf0b969fc839b02","67929d145a93a875db9c3f2c","passed","","11244","","","","","","","","","","","","","","{""checkTimedResponse"":""Your response will not be recorded, and the trial will move to the next one.""}","","","","","","","","","","[0]","","",""
"","","","","","survey-multi-choice","25","178014","0.0-11.0-1.0-4.0","5f8f54c1450c2d1b5984c34f","6790928bebf0b969fc839b02","67929d145a93a875db9c3f2c","passed","","9210","","","","","","","","","","","","","","{""checkTimeBlockNotice"":""At the beginning of each block.""}","","","","","","","","","","[0]","","",""
"","","","","","survey-multi-choice","26","188108","0.0-11.0-1.0-5.0","5f8f54c1450c2d1b5984c34f","6790928bebf0b969fc839b02","67929d145a93a875db9c3f2c","passed","","10091","","","","","","","","","","","","","","{""checkTimeBlockSameness"":""Yes, the time limit is the same for all trials within a block.""}","","","","","","","","","","[0]","","",""
"","","","","","survey-multi-choice","27","202984","0.0-11.0-1.0-6.0","5f8f54c1450c2d1b5984c34f","6790928bebf0b969fc839b02","67929d145a93a875db9c3f2c","passed","","14875","","","","","","","","","","","","","","{""checkTrianglePrecision"":""No. The proposed purple triangle is not in the correct position because it doesn't match the location of the white triangle exactly.""}","","","","","","","","","","[0]","","",""
"","","","","","instructions","28","225730","0.0-12.0","5f8f54c1450c2d1b5984c34f","6790928bebf0b969fc839b02","67929d145a93a875db9c3f2c","passed","[{""page_index"":0,""viewing_time"":6097},{""page_index"":1,""viewing_time"":5628},{""page_index"":2,""viewing_time"":5169},{""page_index"":3,""viewing_time"":5849}]","22744","","","","","","","","","","","","","","","","","","","","","","","","","","",""
"","","","","","instructions","29","228621","0.0-13.0-0.0","5f8f54c1450c2d1b5984c34f","6790928bebf0b969fc839b02","67929d145a93a875db9c3f2c","passed","[{""page_index"":0,""viewing_time"":2891}]","2891","","","","","","","","","","","","","","","","","","","","","","","","","","",""
"","","","","","html-keyboard-response","30","232845","0.0-13.0-1.0","5f8f54c1450c2d1b5984c34f","6790928bebf0b969fc839b02","67929d145a93a875db9c3f2c","passed","","4222","","","","","","","","","","","","","<p><span style=""font-size:40px;"">Practice BLOCK 1</span></p><p><span style=""font-size:25px;"">You have <b style=""color: #FF644F;""><strong>3 second(s)</strong></b> to respond to the following trials.</span><br></p><p id=""blinking-text"" style=""font-weight; animation: blink 2s infinite;"">Press Space to continue</p><style>
                    @keyframes blink {
                        50% {
                            opacity: 0;
                        }
                    }
                </style>"," ","","","","","","","","","","","","",""
"","","","","","html-keyboard-response","31","234407","0.0-13.0-2.0-0.0","5f8f54c1450c2d1b5984c34f","6790928bebf0b969fc839b02","67929d145a93a875db9c3f2c","passed","","","","","","","","","","","","","","","","","ballFalling_prac","416","464","296","1","fallScene","false","","","","","",""
"","","","","","html-keyboard-response","32","237421","0.0-13.0-2.0-1.0","5f8f54c1450c2d1b5984c34f","6790928bebf0b969fc839b02","67929d145a93a875db9c3f2c","passed","","802","","","","","","","","","","","","","","f","yesOrNo_prac","","","","1","","","far gt","3000","","","",""
"","","","","","html-keyboard-response","33","239057","0.0-13.0-2.0-0.1","5f8f54c1450c2d1b5984c34f","6790928bebf0b969fc839b02","67929d145a93a875db9c3f2c","passed","","","","","","","","","","","","","","","","","ballFalling_prac","660","610","263","4","fallScene","false","","","","","",""
"","","","","","html-keyboard-response","34","242062","0.0-13.0-2.0-1.1","5f8f54c1450c2d1b5984c34f","6790928bebf0b969fc839b02","67929d145a93a875db9c3f2c","passed","","651","","","","","","","","","","","","","","f","yesOrNo_prac","","","","4","","","gt","3000","","","",""
"","","","","","html-keyboard-response","35","243624","0.0-13.0-2.0-0.2","5f8f54c1450c2d1b5984c34f","6790928bebf0b969fc839b02","67929d145a93a875db9c3f2c","passed","","","","","","","","","","","","","","","","","ballFalling_prac","584","536","296","1","fallScene","true","","","","","",""
"","","","","","html-keyboard-response","36","246637","0.0-13.0-2.0-1.2","5f8f54c1450c2d1b5984c34f","6790928bebf0b969fc839b02","67929d145a93a875db9c3f2c","passed","","null","","","","","","","","","","","","","","null","yesOrNo_prac","","","","1","","","close gt","3000","","","",""
"","","","","","html-keyboard-response","37","248358","0.0-13.0-3.0","5f8f54c1450c2d1b5984c34f","6790928bebf0b969fc839b02","67929d145a93a875db9c3f2c","passed","","1720","","","","","","","","","","","","","<p><span style=""font-size:40px;"">Practice BLOCK 2</span></p><p><span style=""font-size:25px;"">You have <b style=""color: #FF644F;""><strong>1 second(s)</strong></b> to respond to the following trials.</span><br></p><p id=""blinking-text"" style=""font-weight; animation: blink 2s infinite;"">Press Space to continue</p><style>
                    @keyframes blink {
                        50% {
                            opacity: 0;
                        }
                    }
                </style>"," ","","","","","","","","","","","","",""
"","","","","","html-keyboard-response","38","250474","0.0-13.0-4.0-0.0","5f8f54c1450c2d1b5984c34f","6790928bebf0b969fc839b02","67929d145a93a875db9c3f2c","passed","","","","","","","","","","","","","","","","","ballFalling_prac","340","334","350","3","fallScene","true","","","","","",""
"","","","","","html-keyboard-response","39","251489","0.0-13.0-4.0-1.0","5f8f54c1450c2d1b5984c34f","6790928bebf0b969fc839b02","67929d145a93a875db9c3f2c","passed","","857","","","","","","","","","","","","","","j","yesOrNo_prac","","","","3","","","close gt","1000","","","",""
"","","","","","html-keyboard-response","40","253041","0.0-13.0-4.0-0.1","5f8f54c1450c2d1b5984c34f","6790928bebf0b969fc839b02","67929d145a93a875db9c3f2c","passed","","","","","","","","","","","","","","","","","ballFalling_prac","441","500","317","6","fallScene","true","","","","","",""
"","","","","","html-keyboard-response","41","254046","0.0-13.0-4.0-1.1","5f8f54c1450c2d1b5984c34f","6790928bebf0b969fc839b02","67929d145a93a875db9c3f2c","passed","","null","","","","","","","","","","","","","","null","yesOrNo_prac","","","","6","","","gt","1000","","","",""
"","","","","","html-keyboard-response","42","255623","0.0-13.0-4.0-0.2","5f8f54c1450c2d1b5984c34f","6790928bebf0b969fc839b02","67929d145a93a875db9c3f2c","passed","","","","","","","","","","","","","","","","","ballFalling_prac","660","610","263","4","fallScene","false","","","","","",""
"","","","","","html-keyboard-response","43","256637","0.0-13.0-4.0-1.2","5f8f54c1450c2d1b5984c34f","6790928bebf0b969fc839b02","67929d145a93a875db9c3f2c","passed","","811","","","","","","","","","","","","","","j","yesOrNo_prac","","","","4","","","far gt","1000","","","",""
"","","","","","instructions","44","260694","0.0-13.0-5.0","5f8f54c1450c2d1b5984c34f","6790928bebf0b969fc839b02","67929d145a93a875db9c3f2c","passed","[{""page_index"":0,""viewing_time"":4056}]","4057","","","","","","","","","","","","","","","","","","","","","","","","","","",""
"","","","","","html-keyboard-response","45","262852","0.0-13.0-6.0","5f8f54c1450c2d1b5984c34f","6790928bebf0b969fc839b02","67929d145a93a875db9c3f2c","passed","","2157","","","","","","","","","","","","","<p><span style=""font-size:40px;"">Practice Test BLOCK 1</span></p><p><span style=""font-size:25px;"">You have <b style=""color: #FF644F;""><strong>1 second(s)</strong></b> to respond to the following trials.</span><br></p><p id=""blinking-text"" style=""font-weight; animation: blink 2s infinite;"">Press Space to continue</p><style>
                    @keyframes blink {
                        50% {
                            opacity: 0;
                        }
                    }
                </style>"," ","","","","","","","","","","","","",""
"","","","","","html-keyboard-response","46","264431","0.0-13.0-7.0-0.0","5f8f54c1450c2d1b5984c34f","6790928bebf0b969fc839b02","67929d145a93a875db9c3f2c","passed","","","","","","","","","","","","","","","","","ballFalling_prac","340","390","263","4","fallScene","true","","","","","",""
"","","","","","html-keyboard-response","47","265437","0.0-13.0-7.0-1.0","5f8f54c1450c2d1b5984c34f","6790928bebf0b969fc839b02","67929d145a93a875db9c3f2c","passed","","497","","","","","","","","","","","","","","j","yesOrNo_prac","","","","4","","","far gt","1000","","","",""
"","","","","","html-keyboard-response","48","266998","0.0-13.0-7.0-0.1","5f8f54c1450c2d1b5984c34f","6790928bebf0b969fc839b02","67929d145a93a875db9c3f2c","passed","","","","","","","","","","","","","","","","","ballFalling_prac","441","500","317","6","fallScene","true","","","","","",""
"","","","","","html-keyboard-response","49","268004","0.0-13.0-7.0-1.1","5f8f54c1450c2d1b5984c34f","6790928bebf0b969fc839b02","67929d145a93a875db9c3f2c","passed","","692","","","","","","","","","","","","","","j","yesOrNo_prac","","","","6","","","close gt","1000","","","",""
"","","","","","html-keyboard-response","50","269581","0.0-13.0-7.0-0.2","5f8f54c1450c2d1b5984c34f","6790928bebf0b969fc839b02","67929d145a93a875db9c3f2c","passed","","","","","","","","","","","","","","","","","ballFalling_prac","559","586","302","5","fallScene","false","","","","","",""
"","","","","","html-keyboard-response","51","270589","0.0-13.0-7.0-1.2","5f8f54c1450c2d1b5984c34f","6790928bebf0b969fc839b02","67929d145a93a875db9c3f2c","passed","","716","","","","","","","","","","","","","","j","yesOrNo_prac","","","","5","","","gt","1000","","","",""
"","","","","","html-keyboard-response","52","271341","0.0-13.0-8.0","5f8f54c1450c2d1b5984c34f","6790928bebf0b969fc839b02","67929d145a93a875db9c3f2c","passed","","751","","","","","","","","","","","","","<p><span style=""font-size:40px;"">Practice Test BLOCK 2</span></p><p><span style=""font-size:25px;"">You have <b style=""color: #FF644F;""><strong>3 second(s)</strong></b> to respond to the following trials.</span><br></p><p id=""blinking-text"" style=""font-weight; animation: blink 2s infinite;"">Press Space to continue</p><style>
                    @keyframes blink {
                        50% {
                            opacity: 0;
                        }
                    }
                </style>"," ","","","","","","","","","","","","",""
"","","","","","html-keyboard-response","53","272914","0.0-13.0-9.0-0.0","5f8f54c1450c2d1b5984c34f","6790928bebf0b969fc839b02","67929d145a93a875db9c3f2c","passed","","","","","","","","","","","","","","","","","ballFalling_prac","416","365","249","2","fallScene","false","","","","","",""
"","","","","","html-keyboard-response","54","275921","0.0-13.0-9.0-1.0","5f8f54c1450c2d1b5984c34f","6790928bebf0b969fc839b02","67929d145a93a875db9c3f2c","passed","","759","","","","","","","","","","","","","","j","yesOrNo_prac","","","","2","","","gt","3000","","","",""
"","","","","","html-keyboard-response","55","277497","0.0-13.0-9.0-0.1","5f8f54c1450c2d1b5984c34f","6790928bebf0b969fc839b02","67929d145a93a875db9c3f2c","passed","","","","","","","","","","","","","","","","","ballFalling_prac","559","586","302","5","fallScene","false","","","","","",""
"","","","","","html-keyboard-response","56","280499","0.0-13.0-9.0-1.1","5f8f54c1450c2d1b5984c34f","6790928bebf0b969fc839b02","67929d145a93a875db9c3f2c","passed","","1515","","","","","","","","","","","","","","f","yesOrNo_prac","","","","5","","","far gt","3000","","","",""
"","","","","","html-keyboard-response","57","282080","0.0-13.0-9.0-0.2","5f8f54c1450c2d1b5984c34f","6790928bebf0b969fc839b02","67929d145a93a875db9c3f2c","passed","","","","","","","","","","","","","","","","","ballFalling_prac","340","390","263","4","fallScene","true","","","","","",""
"","","","","","html-keyboard-response","58","285096","0.0-13.0-9.0-1.2","5f8f54c1450c2d1b5984c34f","6790928bebf0b969fc839b02","67929d145a93a875db9c3f2c","passed","","1217","","","","","","","","","","","","","","j","yesOrNo_prac","","","","4","","","close gt","3000","","","",""
"","","","","","instructions","59","288731","0.0-14.0","5f8f54c1450c2d1b5984c34f","6790928bebf0b969fc839b02","67929d145a93a875db9c3f2c","passed","[{""page_index"":0,""viewing_time"":3633}]","3634","","","","","","","","","","","","","","","","","","","","","","","","","","",""
"","","","","","html-keyboard-response","60","290907","0.0-15.0","5f8f54c1450c2d1b5984c34f","6790928bebf0b969fc839b02","67929d145a93a875db9c3f2c","passed","","2175","","","","","","","","","","","","","<p><span style=""font-size:40px;"">BLOCK 1</span></p><p><span style=""font-size:25px;"">You have <b style=""color: #FF644F;""><strong>3 second(s)</strong></b> to respond to the following trials.</span><br></p><p></p> <!-- Blank line -->
                <p id=""blinking-text"" style=""font-weight; animation: blink 2s infinite;"">Press Space to continue</p>
                <style>
                    @keyframes blink {
                        50% {
                            opacity: 0;
                        }
                    }
                </style></p>"," ","","","","","","","","","","","","",""
"","","","","","html-keyboard-response","61","292472","0.0-16.0-0.0","5f8f54c1450c2d1b5984c34f","6790928bebf0b969fc839b02","67929d145a93a875db9c3f2c","passed","","","","","","","","","","","","","","","","","ballFalling","322.3","379.3711431702997","245.25","1","fallScene","true","","","","1","",""
"","","","","","html-keyboard-response","62","295479","0.0-16.0-1.0","5f8f54c1450c2d1b5984c34f","6790928bebf0b969fc839b02","67929d145a93a875db9c3f2c","passed","","872","","","","","","","","","","","","","","j","yesOrNo","","","","1","","","lp","3000","","1","323.3","217.74551669457017"
"","","","","","html-keyboard-response","63","297055","0.0-16.0-0.1","5f8f54c1450c2d1b5984c34f","6790928bebf0b969fc839b02","67929d145a93a875db9c3f2c","passed","","","","","","","","","","","","","","","","","ballFalling","500","553.4711431702997","282.51","7","fallScene","true","","","","2","",""
"","","","","","html-keyboard-response","64","300070","0.0-16.0-1.1","5f8f54c1450c2d1b5984c34f","6790928bebf0b969fc839b02","67929d145a93a875db9c3f2c","passed","","788","","","","","","","","","","","","","","f","yesOrNo","","","","7","","","lp","3000","","2","501","227.2843295913261"
"","","","","","html-keyboard-response","65","301622","0.0-16.0-0.2","5f8f54c1450c2d1b5984c34f","6790928bebf0b969fc839b02","67929d145a93a875db9c3f2c","passed","","","","","","","","","","","","","","","","","ballFalling","604.4000000000001","575.4211431702997","266.76","12","fallScene","true","","","","3","",""
"","","","","","html-keyboard-response","66","304632","0.0-16.0-1.2","5f8f54c1450c2d1b5984c34f","6790928bebf0b969fc839b02","67929d145a93a875db9c3f2c","passed","","883","","","","","","","","","","","","","","f","yesOrNo","","","","12","","","lp","3000","","3","603.4000000000001","151"
"","","","","","html-keyboard-response","67","306421","0.0-16.0-0.3","5f8f54c1450c2d1b5984c34f","6790928bebf0b969fc839b02","67929d145a93a875db9c3f2c","passed","","","","","","","","","","","","","","","","","ballFalling","322.3","308.07114317029976","253.89","2","fallScene","false","","","","4","",""
"","","","","","html-keyboard-response","68","309426","0.0-16.0-1.3","5f8f54c1450c2d1b5984c34f","6790928bebf0b969fc839b02","67929d145a93a875db9c3f2c","passed","","765","","","","","","","","","","","","","","j","yesOrNo","","","","2","","","mid","3000","","4","321.3","300"
"","","","","","html-keyboard-response","69","311438","0.0-16.0-0.4","5f8f54c1450c2d1b5984c34f","6790928bebf0b969fc839b02","67929d145a93a875db9c3f2c","passed","","","","","","","","","","","","","","","","","ballFalling","500","510.8711431702997","369.03","8","fallScene","false","","","","5","",""
"","","","","","html-keyboard-response","70","314444","0.0-16.0-1.4","5f8f54c1450c2d1b5984c34f","6790928bebf0b969fc839b02","67929d145a93a875db9c3f2c","passed","","846","","","","","","","","","","","","","","f","yesOrNo","","","","8","","","lp","3000","","5","501","151"
"","","","","","html-keyboard-response","71","316238","0.0-16.0-0.5","5f8f54c1450c2d1b5984c34f","6790928bebf0b969fc839b02","67929d145a93a875db9c3f2c","passed","","","","","","","","","","","","","","","","","ballFalling","322.3","308.07114317029976","253.89","2","fallScene","true","","","","6","",""
"","","","","","html-keyboard-response","72","319241","0.0-16.0-1.5","5f8f54c1450c2d1b5984c34f","6790928bebf0b969fc839b02","67929d145a93a875db9c3f2c","passed","","708","","","","","","","","","","","","","","f","yesOrNo","","","","2","","","lp","3000","","6","321.3","151"
"","","","","","html-keyboard-response","73","320805","0.0-16.0-0.6","5f8f54c1450c2d1b5984c34f","6790928bebf0b969fc839b02","67929d145a93a875db9c3f2c","passed","","","","","","","","","","","","","","","","","ballFalling","604.4000000000001","650.0211431702996","404.58000000000004","11","fallScene","true","","","","7","",""
"","","","","","html-keyboard-response","74","323814","0.0-16.0-1.6","5f8f54c1450c2d1b5984c34f","6790928bebf0b969fc839b02","67929d145a93a875db9c3f2c","passed","","749","","","","","","","","","","","","","","f","yesOrNo","","","","11","","","gt","3000","","7","650.0211431702996","404.58"
"","","","","","html-keyboard-response","75","325372","0.0-16.0-0.7","5f8f54c1450c2d1b5984c34f","6790928bebf0b969fc839b02","67929d145a93a875db9c3f2c","passed","","","","","","","","","","","","","","","","","ballFalling","322.3","296.07114317029976","371.46","3","fallScene","false","","","","8","",""
"","","","","","html-keyboard-response","76","328385","0.0-16.0-1.7","5f8f54c1450c2d1b5984c34f","6790928bebf0b969fc839b02","67929d145a93a875db9c3f2c","passed","","1351","","","","","","","","","","","","","","f","yesOrNo","","","","3","","","gt","3000","","8","296.07114317029976","371.46"
"","","","","","html-keyboard-response","77","329938","0.0-16.0-0.8","5f8f54c1450c2d1b5984c34f","6790928bebf0b969fc839b02","67929d145a93a875db9c3f2c","passed","","","","","","","","","","","","","","","","","ballFalling","500","453.67114317029973","210.33","5","fallScene","false","","","","9","",""
"","","","","","html-keyboard-response","78","332948","0.0-16.0-1.8","5f8f54c1450c2d1b5984c34f","6790928bebf0b969fc839b02","67929d145a93a875db9c3f2c","passed","","817","","","","","","","","","","","","","","f","yesOrNo","","","","5","","","lp","3000","","9","499","151"
"","","","","","html-keyboard-response","79","334504","0.0-16.0-0.9","5f8f54c1450c2d1b5984c34f","6790928bebf0b969fc839b02","67929d145a93a875db9c3f2c","passed","","","","","","","","","","","","","","","","","ballFalling","322.3","296.07114317029976","371.46","3","fallScene","true","","","","10","",""
"","","","","","html-keyboard-response","80","337517","0.0-16.0-1.9","5f8f54c1450c2d1b5984c34f","6790928bebf0b969fc839b02","67929d145a93a875db9c3f2c","passed","","1008","","","","","","","","","","","","","","f","yesOrNo","","","","3","","","lp","3000","","10","321.3","287.3327096511259"
"","","","","","html-keyboard-response","81","339071","0.0-16.0-0.10","5f8f54c1450c2d1b5984c34f","6790928bebf0b969fc839b02","67929d145a93a875db9c3f2c","passed","","","","","","","","","","","","","","","","","ballFalling","500","453.67114317029973","210.33","5","fallScene","true","","","","11","",""
"","","","","","html-keyboard-response","82","342082","0.0-16.0-1.10","5f8f54c1450c2d1b5984c34f","6790928bebf0b969fc839b02","67929d145a93a875db9c3f2c","passed","","669","","","","","","","","","","","","","","f","yesOrNo","","","","5","","","lp","3000","","11","499","151"
"","","","","","html-keyboard-response","83","343572","0.0-16.0-0.11","5f8f54c1450c2d1b5984c34f","6790928bebf0b969fc839b02","67929d145a93a875db9c3f2c","passed","","","","","","","","","","","","","","","","","ballFalling","604.4000000000001","667.6211431702998","201.78","9","fallScene","false","","","","12","",""
"","","","","","html-keyboard-response","84","346581","0.0-16.0-1.11","5f8f54c1450c2d1b5984c34f","6790928bebf0b969fc839b02","67929d145a93a875db9c3f2c","passed","","1070","","","","","","","","","","","","","","f","yesOrNo","","","","9","","","mid","3000","","12","605.4000000000001","300"
"","","","","","html-keyboard-response","85","348071","0.0-16.0-0.12","5f8f54c1450c2d1b5984c34f","6790928bebf0b969fc839b02","67929d145a93a875db9c3f2c","passed","","","","","","","","","","","","","","","","","ballFalling","604.4000000000001","667.6211431702998","201.78","9","fallScene","false","","","","13","",""
"","","","","","html-keyboard-response","86","351085","0.0-16.0-1.12","5f8f54c1450c2d1b5984c34f","6790928bebf0b969fc839b02","67929d145a93a875db9c3f2c","passed","","1218","","","","","","","","","","","","","","f","yesOrNo","","","","9","","","gt","3000","","13","667.6211431702998","201.78"
"","","","","","html-keyboard-response","87","352571","0.0-16.0-0.13","5f8f54c1450c2d1b5984c34f","6790928bebf0b969fc839b02","67929d145a93a875db9c3f2c","passed","","","","","","","","","","","","","","","","","ballFalling","604.4000000000001","667.6211431702998","201.78","9","fallScene","true","","","","14","",""
"","","","","","html-keyboard-response","88","355586","0.0-16.0-1.13","5f8f54c1450c2d1b5984c34f","6790928bebf0b969fc839b02","67929d145a93a875db9c3f2c","passed","","835","","","","","","","","","","","","","","f","yesOrNo","","","","9","","","mid","3000","","14","605.4000000000001","300"
"","","","","","html-keyboard-response","89","357237","0.0-16.0-0.14","5f8f54c1450c2d1b5984c34f","6790928bebf0b969fc839b02","67929d145a93a875db9c3f2c","passed","","","","","","","","","","","","","","","","","ballFalling","500","479.92114317029973","330.87","6","fallScene","false","","","","15","",""
"","","","","","html-keyboard-response","90","360252","0.0-16.0-1.14","5f8f54c1450c2d1b5984c34f","6790928bebf0b969fc839b02","67929d145a93a875db9c3f2c","passed","","1004","","","","","","","","","","","","","","f","yesOrNo","","","","6","","","mid","3000","","15","499","300"
"","","","","","html-keyboard-response","91","361803","0.0-16.0-0.15","5f8f54c1450c2d1b5984c34f","6790928bebf0b969fc839b02","67929d145a93a875db9c3f2c","passed","","","","","","","","","","","","","","","","","ballFalling","604.4000000000001","650.0211431702996","404.58000000000004","11","fallScene","false","","","","16","",""
"","","","","","html-keyboard-response","92","364821","0.0-16.0-1.15","5f8f54c1450c2d1b5984c34f","6790928bebf0b969fc839b02","67929d145a93a875db9c3f2c","passed","","1501","","","","","","","","","","","","","","j","yesOrNo","","","","11","","","mid","3000","","16","605.4000000000001","300"
"","","","","","html-keyboard-response","93","366321","0.0-16.0-0.16","5f8f54c1450c2d1b5984c34f","6790928bebf0b969fc839b02","67929d145a93a875db9c3f2c","passed","","","","","","","","","","","","","","","","","ballFalling","604.4000000000001","667.6211431702998","201.78","9","fallScene","true","","","","17","",""
"","","","","","html-keyboard-response","94","369333","0.0-16.0-1.16","5f8f54c1450c2d1b5984c34f","6790928bebf0b969fc839b02","67929d145a93a875db9c3f2c","passed","","922","","","","","","","","","","","","","","f","yesOrNo","","","","9","","","gt","3000","","17","667.6211431702998","201.78"
"","","","","","html-keyboard-response","95","370887","0.0-16.0-0.17","5f8f54c1450c2d1b5984c34f","6790928bebf0b969fc839b02","67929d145a93a875db9c3f2c","passed","","","","","","","","","","","","","","","","","ballFalling","500","453.67114317029973","210.33","5","fallScene","false","","","","18","",""
"","","","","","html-keyboard-response","96","373901","0.0-16.0-1.17","5f8f54c1450c2d1b5984c34f","6790928bebf0b969fc839b02","67929d145a93a875db9c3f2c","passed","","948","","","","","","","","","","","","","","f","yesOrNo","","","","5","","","mid","3000","","18","499","300"
"","","","","","html-keyboard-response","97","375554","0.0-16.0-0.18","5f8f54c1450c2d1b5984c34f","6790928bebf0b969fc839b02","67929d145a93a875db9c3f2c","passed","","","","","","","","","","","","","","","","","ballFalling","500","479.92114317029973","330.87","6","fallScene","true","","","","19","",""
"","","","","","html-keyboard-response","98","378569","0.0-16.0-1.18","5f8f54c1450c2d1b5984c34f","6790928bebf0b969fc839b02","67929d145a93a875db9c3f2c","passed","","623","","","","","","","","","","","","","","f","yesOrNo","","","","6","","","lp","3000","","19","499","189.92909825697632"
"","","","","","html-keyboard-response","99","380354","0.0-16.0-0.19","5f8f54c1450c2d1b5984c34f","6790928bebf0b969fc839b02","67929d145a93a875db9c3f2c","passed","","","","","","","","","","","","","","","","","ballFalling","322.3","308.07114317029976","253.89","2","fallScene","false","","","","20","",""
"","","","","","html-keyboard-response","100","383367","0.0-16.0-1.19","5f8f54c1450c2d1b5984c34f","6790928bebf0b969fc839b02","67929d145a93a875db9c3f2c","passed","","674","","","","","","","","","","","","","","f","yesOrNo","","","","2","","","lp","3000","","20","321.3","151"
"","","","","","html-keyboard-response","101","384920","0.0-16.0-0.20","5f8f54c1450c2d1b5984c34f","6790928bebf0b969fc839b02","67929d145a93a875db9c3f2c","passed","","","","","","","","","","","","","","","","","ballFalling","322.3","356.42114317029973","357.87","4","fallScene","false","","","","21","",""
"","","","","","html-keyboard-response","102","387923","0.0-16.0-1.20","5f8f54c1450c2d1b5984c34f","6790928bebf0b969fc839b02","67929d145a93a875db9c3f2c","passed","","658","","","","","","","","","","","","","","f","yesOrNo","","","","4","","","mid","3000","","21","390.27114317029975","300"
"","","","","","html-keyboard-response","103","389937","0.0-16.0-0.21","5f8f54c1450c2d1b5984c34f","6790928bebf0b969fc839b02","67929d145a93a875db9c3f2c","passed","","","","","","","","","","","","","","","","","ballFalling","500","510.8711431702997","369.03","8","fallScene","false","","","","22","",""
"","","","","","html-keyboard-response","104","392942","0.0-16.0-1.21","5f8f54c1450c2d1b5984c34f","6790928bebf0b969fc839b02","67929d145a93a875db9c3f2c","passed","","584","","","","","","","","","","","","","","f","yesOrNo","","","","8","","","gt","3000","","22","510.8711431702997","369.03"
"","","","","","html-keyboard-response","105","394503","0.0-16.0-0.22","5f8f54c1450c2d1b5984c34f","6790928bebf0b969fc839b02","67929d145a93a875db9c3f2c","passed","","","","","","","","","","","","","","","","","ballFalling","604.4000000000001","575.4211431702997","266.76","12","fallScene","true","","","","23","",""
"","","","","","html-keyboard-response","106","397509","0.0-16.0-1.22","5f8f54c1450c2d1b5984c34f","6790928bebf0b969fc839b02","67929d145a93a875db9c3f2c","passed","","587","","","","","","","","","","","","","","f","yesOrNo","","","","12","","","lp","3000","","23","603.4000000000001","151"
"","","","","","html-keyboard-response","107","399520","0.0-16.0-0.23","5f8f54c1450c2d1b5984c34f","6790928bebf0b969fc839b02","67929d145a93a875db9c3f2c","passed","","","","","","","","","","","","","","","","","ballFalling","604.4000000000001","596.8711431702998","394.5","10","fallScene","false","","","","24","",""
"","","","","","html-keyboard-response","108","402535","0.0-16.0-1.23","5f8f54c1450c2d1b5984c34f","6790928bebf0b969fc839b02","67929d145a93a875db9c3f2c","passed","","721","","","","","","","","","","","","","","f","yesOrNo","","","","10","","","gt","3000","","24","596.8711431702998","394.5"
"","","","","","html-keyboard-response","109","403724","0.0-17.0","5f8f54c1450c2d1b5984c34f","6790928bebf0b969fc839b02","67929d145a93a875db9c3f2c","passed","","1188","","","","","","","","","","","","","<p><span style=""font-size:40px;"">BLOCK 2</span></p><p><span style=""font-size:25px;"">You have <b style=""color: #FF644F;""><strong>1 second(s)</strong></b> to respond to the following trials.</span><br></p><p></p> <!-- Blank line -->
                <p id=""blinking-text"" style=""font-weight; animation: blink 2s infinite;"">Press Space to continue</p>
                <style>
                    @keyframes blink {
                        50% {
                            opacity: 0;
                        }
                    }
                </style></p>"," ","","","","","","","","","","","","",""
"","","","","","html-keyboard-response","110","405286","0.0-18.0-0.0","5f8f54c1450c2d1b5984c34f","6790928bebf0b969fc839b02","67929d145a93a875db9c3f2c","passed","","","","","","","","","","","","","","","","","ballFalling","604.4000000000001","575.4211431702997","266.76","12","fallScene","true","","","","25","",""
"","","","","","html-keyboard-response","111","406302","0.0-18.0-1.0","5f8f54c1450c2d1b5984c34f","6790928bebf0b969fc839b02","67929d145a93a875db9c3f2c","passed","","524","","","","","","","","","","","","","","f","yesOrNo","","","","12","","","lp","1000","","25","603.4000000000001","151"
"","","","","","html-keyboard-response","112","407871","0.0-18.0-0.1","5f8f54c1450c2d1b5984c34f","6790928bebf0b969fc839b02","67929d145a93a875db9c3f2c","passed","","","","","","","","","","","","","","","","","ballFalling","500","553.4711431702997","282.51","7","fallScene","false","","","","26","",""
"","","","","","html-keyboard-response","113","408875","0.0-18.0-1.1","5f8f54c1450c2d1b5984c34f","6790928bebf0b969fc839b02","67929d145a93a875db9c3f2c","passed","","955","","","","","","","","","","","","","","j","yesOrNo","","","","7","","","mid","1000","","26","501","300"
"","","","","","html-keyboard-response","114","410887","0.0-18.0-0.2","5f8f54c1450c2d1b5984c34f","6790928bebf0b969fc839b02","67929d145a93a875db9c3f2c","passed","","","","","","","","","","","","","","","","","ballFalling","604.4000000000001","596.8711431702998","394.5","10","fallScene","false","","","","27","",""
"","","","","","html-keyboard-response","115","411890","0.0-18.0-1.2","5f8f54c1450c2d1b5984c34f","6790928bebf0b969fc839b02","67929d145a93a875db9c3f2c","passed","","595","","","","","","","","","","","","","","f","yesOrNo","","","","10","","","mid","1000","","27","536.4288568297004","300"
"","","","","","html-keyboard-response","116","413452","0.0-18.0-0.3","5f8f54c1450c2d1b5984c34f","6790928bebf0b969fc839b02","67929d145a93a875db9c3f2c","passed","","","","","","","","","","","","","","","","","ballFalling","604.4000000000001","575.4211431702997","266.76","12","fallScene","false","","","","28","",""
"","","","","","html-keyboard-response","117","414455","0.0-18.0-1.3","5f8f54c1450c2d1b5984c34f","6790928bebf0b969fc839b02","67929d145a93a875db9c3f2c","passed","","583","","","","","","","","","","","","","","f","yesOrNo","","","","12","","","lp","1000","","28","603.4000000000001","151"
"","","","","","html-keyboard-response","118","415953","0.0-18.0-0.4","5f8f54c1450c2d1b5984c34f","6790928bebf0b969fc839b02","67929d145a93a875db9c3f2c","passed","","","","","","","","","","","","","","","","","ballFalling","604.4000000000001","667.6211431702998","201.78","9","fallScene","false","","","","29","",""
"","","","","","html-keyboard-response","119","416959","0.0-18.0-1.4","5f8f54c1450c2d1b5984c34f","6790928bebf0b969fc839b02","67929d145a93a875db9c3f2c","passed","","674","","","","","","","","","","","","","","f","yesOrNo","","","","9","","","lp","1000","","29","605.4000000000001","151"
"","","","","","html-keyboard-response","120","418519","0.0-18.0-0.5","5f8f54c1450c2d1b5984c34f","6790928bebf0b969fc839b02","67929d145a93a875db9c3f2c","passed","","","","","","","","","","","","","","","","","ballFalling","500","453.67114317029973","210.33","5","fallScene","true","","","","30","",""
"","","","","","html-keyboard-response","121","419530","0.0-18.0-1.5","5f8f54c1450c2d1b5984c34f","6790928bebf0b969fc839b02","67929d145a93a875db9c3f2c","passed","","506","","","","","","","","","","","","","","f","yesOrNo","","","","5","","","lp","1000","","30","499","151"
"","","","","","html-keyboard-response","122","421019","0.0-18.0-0.6","5f8f54c1450c2d1b5984c34f","6790928bebf0b969fc839b02","67929d145a93a875db9c3f2c","passed","","","","","","","","","","","","","","","","","ballFalling","604.4000000000001","667.6211431702998","201.78","9","fallScene","true","","","","31","",""
"","","","","","html-keyboard-response","123","422025","0.0-18.0-1.6","5f8f54c1450c2d1b5984c34f","6790928bebf0b969fc839b02","67929d145a93a875db9c3f2c","passed","","741","","","","","","","","","","","","","","f","yesOrNo","","","","9","","","gt","1000","","31","667.6211431702998","201.78"
"","","","","","html-keyboard-response","124","423587","0.0-18.0-0.7","5f8f54c1450c2d1b5984c34f","6790928bebf0b969fc839b02","67929d145a93a875db9c3f2c","passed","","","","","","","","","","","","","","","","","ballFalling","322.3","379.3711431702997","245.25","1","fallScene","false","","","","32","",""
"","","","","","html-keyboard-response","125","424592","0.0-18.0-1.7","5f8f54c1450c2d1b5984c34f","6790928bebf0b969fc839b02","67929d145a93a875db9c3f2c","passed","","null","","","","","","","","","","","","","","null","yesOrNo","","","","1","","","lp","1000","","32","323.3","217.74551669457017"
"","","","","","html-keyboard-response","126","426087","0.0-18.0-0.8","5f8f54c1450c2d1b5984c34f","6790928bebf0b969fc839b02","67929d145a93a875db9c3f2c","passed","","","","","","","","","","","","","","","","","ballFalling","604.4000000000001","667.6211431702998","201.78","9","fallScene","false","","","","33","",""
"","","","","","html-keyboard-response","127","427092","0.0-18.0-1.8","5f8f54c1450c2d1b5984c34f","6790928bebf0b969fc839b02","67929d145a93a875db9c3f2c","passed","","648","","","","","","","","","","","","","","f","yesOrNo","","","","9","","","lp","1000","","33","605.4000000000001","151"
"","","","","","html-keyboard-response","128","429102","0.0-18.0-0.9","5f8f54c1450c2d1b5984c34f","6790928bebf0b969fc839b02","67929d145a93a875db9c3f2c","passed","","","","","","","","","","","","","","","","","ballFalling","500","510.8711431702997","369.03","8","fallScene","true","","","","34","",""
"","","","","","html-keyboard-response","129","430114","0.0-18.0-1.9","5f8f54c1450c2d1b5984c34f","6790928bebf0b969fc839b02","67929d145a93a875db9c3f2c","passed","","571","","","","","","","","","","","","","","f","yesOrNo","","","","8","","","gt","1000","","34","510.8711431702997","369.03"
"","","","","","html-keyboard-response","130","431769","0.0-18.0-0.10","5f8f54c1450c2d1b5984c34f","6790928bebf0b969fc839b02","67929d145a93a875db9c3f2c","passed","","","","","","","","","","","","","","","","","ballFalling","500","479.92114317029973","330.87","6","fallScene","true","","","","35","",""
"","","","","","html-keyboard-response","131","432780","0.0-18.0-1.10","5f8f54c1450c2d1b5984c34f","6790928bebf0b969fc839b02","67929d145a93a875db9c3f2c","passed","","640","","","","","","","","","","","","","","j","yesOrNo","","","","6","","","gt","1000","","35","479.9211431702998","330.87"
"","","","","","html-keyboard-response","132","434336","0.0-18.0-0.11","5f8f54c1450c2d1b5984c34f","6790928bebf0b969fc839b02","67929d145a93a875db9c3f2c","passed","","","","","","","","","","","","","","","","","ballFalling","604.4000000000001","575.4211431702997","266.76","12","fallScene","true","","","","36","",""
"","","","","","html-keyboard-response","133","435343","0.0-18.0-1.11","5f8f54c1450c2d1b5984c34f","6790928bebf0b969fc839b02","67929d145a93a875db9c3f2c","passed","","545","","","","","","","","","","","","","","f","yesOrNo","","","","12","","","mid","1000","","36","536.4288568297004","300"
"","","","","","html-keyboard-response","134","436902","0.0-18.0-0.12","5f8f54c1450c2d1b5984c34f","6790928bebf0b969fc839b02","67929d145a93a875db9c3f2c","passed","","","","","","","","","","","","","","","","","ballFalling","500","453.67114317029973","210.33","5","fallScene","false","","","","37","",""
"","","","","","html-keyboard-response","135","437917","0.0-18.0-1.12","5f8f54c1450c2d1b5984c34f","6790928bebf0b969fc839b02","67929d145a93a875db9c3f2c","passed","","694","","","","","","","","","","","","","","f","yesOrNo","","","","5","","","lp","1000","","37","499","151"
"","","","","","html-keyboard-response","136","439485","0.0-18.0-0.13","5f8f54c1450c2d1b5984c34f","6790928bebf0b969fc839b02","67929d145a93a875db9c3f2c","passed","","","","","","","","","","","","","","","","","ballFalling","500","553.4711431702997","282.51","7","fallScene","true","","","","38","",""
"","","","","","html-keyboard-response","137","440488","0.0-18.0-1.13","5f8f54c1450c2d1b5984c34f","6790928bebf0b969fc839b02","67929d145a93a875db9c3f2c","passed","","413","","","","","","","","","","","","","","f","yesOrNo","","","","7","","","gt","1000","","38","553.4711431702997","282.51"
"","","","","","html-keyboard-response","138","442053","0.0-18.0-0.14","5f8f54c1450c2d1b5984c34f","6790928bebf0b969fc839b02","67929d145a93a875db9c3f2c","passed","","","","","","","","","","","","","","","","","ballFalling","322.3","296.07114317029976","371.46","3","fallScene","false","","","","39","",""
"","","","","","html-keyboard-response","139","443058","0.0-18.0-1.14","5f8f54c1450c2d1b5984c34f","6790928bebf0b969fc839b02","67929d145a93a875db9c3f2c","passed","","620","","","","","","","","","","","","","","j","yesOrNo","","","","3","","","gt","1000","","39","296.07114317029976","371.46"
"","","","","","html-keyboard-response","140","444618","0.0-18.0-0.15","5f8f54c1450c2d1b5984c34f","6790928bebf0b969fc839b02","67929d145a93a875db9c3f2c","passed","","","","","","","","","","","","","","","","","ballFalling","500","453.67114317029973","210.33","5","fallScene","true","","","","40","",""
"","","","","","html-keyboard-response","141","445621","0.0-18.0-1.15","5f8f54c1450c2d1b5984c34f","6790928bebf0b969fc839b02","67929d145a93a875db9c3f2c","passed","","672","","","","","","","","","","","","","","f","yesOrNo","","","","5","","","gt","1000","","40","453.6711431702998","210.33"
"","","","","","html-keyboard-response","142","447185","0.0-18.0-0.16","5f8f54c1450c2d1b5984c34f","6790928bebf0b969fc839b02","67929d145a93a875db9c3f2c","passed","","","","","","","","","","","","","","","","","ballFalling","500","453.67114317029973","210.33","5","fallScene","false","","","","41","",""
"","","","","","html-keyboard-response","143","448204","0.0-18.0-1.16","5f8f54c1450c2d1b5984c34f","6790928bebf0b969fc839b02","67929d145a93a875db9c3f2c","passed","","603","","","","","","","","","","","","","","j","yesOrNo","","","","5","","","mid","1000","","41","499","300"
"","","","","","html-keyboard-response","144","450002","0.0-18.0-0.17","5f8f54c1450c2d1b5984c34f","6790928bebf0b969fc839b02","67929d145a93a875db9c3f2c","passed","","","","","","","","","","","","","","","","","ballFalling","322.3","308.07114317029976","253.89","2","fallScene","true","","","","42","",""
"","","","","","html-keyboard-response","145","451008","0.0-18.0-1.17","5f8f54c1450c2d1b5984c34f","6790928bebf0b969fc839b02","67929d145a93a875db9c3f2c","passed","","649","","","","","","","","","","","","","","f","yesOrNo","","","","2","","","lp","1000","","42","321.3","151"
"","","","","","html-keyboard-response","146","452569","0.0-18.0-0.18","5f8f54c1450c2d1b5984c34f","6790928bebf0b969fc839b02","67929d145a93a875db9c3f2c","passed","","","","","","","","","","","","","","","","","ballFalling","322.3","296.07114317029976","371.46","3","fallScene","true","","","","43","",""
"","","","","","html-keyboard-response","147","453580","0.0-18.0-1.18","5f8f54c1450c2d1b5984c34f","6790928bebf0b969fc839b02","67929d145a93a875db9c3f2c","passed","","null","","","","","","","","","","","","","","null","yesOrNo","","","","3","","","lp","1000","","43","321.3","287.3327096511259"
"","","","","","html-keyboard-response","148","455136","0.0-18.0-0.19","5f8f54c1450c2d1b5984c34f","6790928bebf0b969fc839b02","67929d145a93a875db9c3f2c","passed","","","","","","","","","","","","","","","","","ballFalling","322.3","296.07114317029976","371.46","3","fallScene","true","","","","44","",""
"","","","","","html-keyboard-response","149","456142","0.0-18.0-1.19","5f8f54c1450c2d1b5984c34f","6790928bebf0b969fc839b02","67929d145a93a875db9c3f2c","passed","","666","","","","","","","","","","","","","","j","yesOrNo","","","","3","","","mid","1000","","44","321.3","300"
"","","","","","html-keyboard-response","150","457702","0.0-18.0-0.20","5f8f54c1450c2d1b5984c34f","6790928bebf0b969fc839b02","67929d145a93a875db9c3f2c","passed","","","","","","","","","","","","","","","","","ballFalling","500","453.67114317029973","210.33","5","fallScene","true","","","","45","",""
"","","","","","html-keyboard-response","151","458717","0.0-18.0-1.20","5f8f54c1450c2d1b5984c34f","6790928bebf0b969fc839b02","67929d145a93a875db9c3f2c","passed","","767","","","","","","","","","","","","","","j","yesOrNo","","","","5","","","mid","1000","","45","499","300"
"","","","","","html-keyboard-response","152","460285","0.0-18.0-0.21","5f8f54c1450c2d1b5984c34f","6790928bebf0b969fc839b02","67929d145a93a875db9c3f2c","passed","","","","","","","","","","","","","","","","","ballFalling","500","553.4711431702997","282.51","7","fallScene","true","","","","46","",""
"","","","","","html-keyboard-response","153","461301","0.0-18.0-1.21","5f8f54c1450c2d1b5984c34f","6790928bebf0b969fc839b02","67929d145a93a875db9c3f2c","passed","","948","","","","","","","","","","","","","","j","yesOrNo","","","","7","","","lp","1000","","46","501","227.2843295913261"
"","","","","","html-keyboard-response","154","462852","0.0-18.0-0.22","5f8f54c1450c2d1b5984c34f","6790928bebf0b969fc839b02","67929d145a93a875db9c3f2c","passed","","","","","","","","","","","","","","","","","ballFalling","322.3","296.07114317029976","371.46","3","fallScene","false","","","","47","",""
"","","","","","html-keyboard-response","155","463864","0.0-18.0-1.22","5f8f54c1450c2d1b5984c34f","6790928bebf0b969fc839b02","67929d145a93a875db9c3f2c","passed","","700","","","","","","","","","","","","","","j","yesOrNo","","","","3","","","mid","1000","","47","321.3","300"
"","","","","","html-keyboard-response","156","465519","0.0-18.0-0.23","5f8f54c1450c2d1b5984c34f","6790928bebf0b969fc839b02","67929d145a93a875db9c3f2c","passed","","","","","","","","","","","","","","","","","ballFalling","500","479.92114317029973","330.87","6","fallScene","false","","","","48","",""
"","","","","","html-keyboard-response","157","466525","0.0-18.0-1.23","5f8f54c1450c2d1b5984c34f","6790928bebf0b969fc839b02","67929d145a93a875db9c3f2c","passed","","906","","","","","","","","","","","","","","j","yesOrNo","","","","6","","","mid","1000","","48","499","300"
"","","","","","html-keyboard-response","158","467268","0.0-19.0","5f8f54c1450c2d1b5984c34f","6790928bebf0b969fc839b02","67929d145a93a875db9c3f2c","passed","","742","","","","","","","","","","","","","<p><span style=""font-size:40px;"">BLOCK 3</span></p><p><span style=""font-size:25px;"">You have <b style=""color: #FF644F;""><strong>1 second(s)</strong></b> to respond to the following trials.</span><br></p><p></p> <!-- Blank line -->
                <p id=""blinking-text"" style=""font-weight; animation: blink 2s infinite;"">Press Space to continue</p>
                <style>
                    @keyframes blink {
                        50% {
                            opacity: 0;
                        }
                    }
                </style></p>"," ","","","","","","","","","","","","",""
"","","","","","html-keyboard-response","159","468768","0.0-20.0-0.0","5f8f54c1450c2d1b5984c34f","6790928bebf0b969fc839b02","67929d145a93a875db9c3f2c","passed","","","","","","","","","","","","","","","","","ballFalling","604.4000000000001","667.6211431702998","201.78","9","fallScene","true","","","","49","",""
"","","","","","html-keyboard-response","160","469783","0.0-20.0-1.0","5f8f54c1450c2d1b5984c34f","6790928bebf0b969fc839b02","67929d145a93a875db9c3f2c","passed","","704","","","","","","","","","","","","","","j","yesOrNo","","","","9","","","mid","1000","","49","605.4000000000001","300"
"","","","","","html-keyboard-response","161","471442","0.0-20.0-0.1","5f8f54c1450c2d1b5984c34f","6790928bebf0b969fc839b02","67929d145a93a875db9c3f2c","passed","","","","","","","","","","","","","","","","","ballFalling","500","479.92114317029973","330.87","6","fallScene","false","","","","50","",""
"","","","","","html-keyboard-response","162","472449","0.0-20.0-1.1","5f8f54c1450c2d1b5984c34f","6790928bebf0b969fc839b02","67929d145a93a875db9c3f2c","passed","","504","","","","","","","","","","","","","","j","yesOrNo","","","","6","","","mid","1000","","50","499","300"
"","","","","","html-keyboard-response","163","474235","0.0-20.0-0.2","5f8f54c1450c2d1b5984c34f","6790928bebf0b969fc839b02","67929d145a93a875db9c3f2c","passed","","","","","","","","","","","","","","","","","ballFalling","322.3","308.07114317029976","253.89","2","fallScene","true","","","","51","",""
"","","","","","html-keyboard-response","164","475250","0.0-20.0-1.2","5f8f54c1450c2d1b5984c34f","6790928bebf0b969fc839b02","67929d145a93a875db9c3f2c","passed","","510","","","","","","","","","","","","","","j","yesOrNo","","","","2","","","mid","1000","","51","321.3","300"
"","","","","","html-keyboard-response","165","476901","0.0-20.0-0.3","5f8f54c1450c2d1b5984c34f","6790928bebf0b969fc839b02","67929d145a93a875db9c3f2c","passed","","","","","","","","","","","","","","","","","ballFalling","500","479.92114317029973","330.87","6","fallScene","false","","","","52","",""
"","","","","","html-keyboard-response","166","477916","0.0-20.0-1.3","5f8f54c1450c2d1b5984c34f","6790928bebf0b969fc839b02","67929d145a93a875db9c3f2c","passed","","540","","","","","","","","","","","","","","j","yesOrNo","","","","6","","","gt","1000","","52","479.9211431702998","330.87"
"","","","","","html-keyboard-response","167","479469","0.0-20.0-0.4","5f8f54c1450c2d1b5984c34f","6790928bebf0b969fc839b02","67929d145a93a875db9c3f2c","passed","","","","","","","","","","","","","","","","","ballFalling","604.4000000000001","650.0211431702996","404.58000000000004","11","fallScene","true","","","","53","",""
"","","","","","html-keyboard-response","168","480479","0.0-20.0-1.4","5f8f54c1450c2d1b5984c34f","6790928bebf0b969fc839b02","67929d145a93a875db9c3f2c","passed","","600","","","","","","","","","","","","","","j","yesOrNo","","","","11","","","mid","1000","","53","605.4000000000001","300"
"","","","","","html-keyboard-response","169","482035","0.0-20.0-0.5","5f8f54c1450c2d1b5984c34f","6790928bebf0b969fc839b02","67929d145a93a875db9c3f2c","passed","","","","","","","","","","","","","","","","","ballFalling","322.3","356.42114317029973","357.87","4","fallScene","true","","","","54","",""
"","","","","","html-keyboard-response","170","483049","0.0-20.0-1.5","5f8f54c1450c2d1b5984c34f","6790928bebf0b969fc839b02","67929d145a93a875db9c3f2c","passed","","734","","","","","","","","","","","","","","f","yesOrNo","","","","4","","","mid","1000","","54","390.27114317029975","300"
"","","","","","html-keyboard-response","171","484617","0.0-20.0-0.6","5f8f54c1450c2d1b5984c34f","6790928bebf0b969fc839b02","67929d145a93a875db9c3f2c","passed","","","","","","","","","","","","","","","","","ballFalling","500","553.4711431702997","282.51","7","fallScene","true","","","","55","",""
"","","","","","html-keyboard-response","172","485620","0.0-20.0-1.6","5f8f54c1450c2d1b5984c34f","6790928bebf0b969fc839b02","67929d145a93a875db9c3f2c","passed","","745","","","","","","","","","","","","","","j","yesOrNo","","","","7","","","gt","1000","","55","553.4711431702997","282.51"
"","","","","","html-keyboard-response","173","487185","0.0-20.0-0.7","5f8f54c1450c2d1b5984c34f","6790928bebf0b969fc839b02","67929d145a93a875db9c3f2c","passed","","","","","","","","","","","","","","","","","ballFalling","604.4000000000001","650.0211431702996","404.58000000000004","11","fallScene","true","","","","56","",""
"","","","","","html-keyboard-response","174","488200","0.0-20.0-1.7","5f8f54c1450c2d1b5984c34f","6790928bebf0b969fc839b02","67929d145a93a875db9c3f2c","passed","","456","","","","","","","","","","","","","","j","yesOrNo","","","","11","","","lp","1000","","56","605.4000000000001","372.6340973215488"
"","","","","","html-keyboard-response","175","489751","0.0-20.0-0.8","5f8f54c1450c2d1b5984c34f","6790928bebf0b969fc839b02","67929d145a93a875db9c3f2c","passed","","","","","","","","","","","","","","","","","ballFalling","604.4000000000001","575.4211431702997","266.76","12","fallScene","true","","","","57","",""
"","","","","","html-keyboard-response","176","490755","0.0-20.0-1.8","5f8f54c1450c2d1b5984c34f","6790928bebf0b969fc839b02","67929d145a93a875db9c3f2c","passed","","523","","","","","","","","","","","","","","j","yesOrNo","","","","12","","","mid","1000","","57","536.4288568297004","300"
"","","","","","html-keyboard-response","177","492551","0.0-20.0-0.9","5f8f54c1450c2d1b5984c34f","6790928bebf0b969fc839b02","67929d145a93a875db9c3f2c","passed","","","","","","","","","","","","","","","","","ballFalling","322.3","308.07114317029976","253.89","2","fallScene","true","","","","58","",""
"","","","","","html-keyboard-response","178","493566","0.0-20.0-1.9","5f8f54c1450c2d1b5984c34f","6790928bebf0b969fc839b02","67929d145a93a875db9c3f2c","passed","","618","","","","","","","","","","","","","","f","yesOrNo","","","","2","","","mid","1000","","58","321.3","300"
"","","","","","html-keyboard-response","179","495351","0.0-20.0-0.10","5f8f54c1450c2d1b5984c34f","6790928bebf0b969fc839b02","67929d145a93a875db9c3f2c","passed","","","","","","","","","","","","","","","","","ballFalling","322.3","308.07114317029976","253.89","2","fallScene","true","","","","59","",""
"","","","","","html-keyboard-response","180","496358","0.0-20.0-1.10","5f8f54c1450c2d1b5984c34f","6790928bebf0b969fc839b02","67929d145a93a875db9c3f2c","passed","","626","","","","","","","","","","","","","","f","yesOrNo","","","","2","","","lp","1000","","59","321.3","151"
"","","","","","html-keyboard-response","181","497935","0.0-20.0-0.11","5f8f54c1450c2d1b5984c34f","6790928bebf0b969fc839b02","67929d145a93a875db9c3f2c","passed","","","","","","","","","","","","","","","","","ballFalling","500","553.4711431702997","282.51","7","fallScene","true","","","","60","",""
"","","","","","html-keyboard-response","182","498950","0.0-20.0-1.11","5f8f54c1450c2d1b5984c34f","6790928bebf0b969fc839b02","67929d145a93a875db9c3f2c","passed","","715","","","","","","","","","","","","","","f","yesOrNo","","","","7","","","mid","1000","","60","501","300"
"","","","","","html-keyboard-response","183","500501","0.0-20.0-0.12","5f8f54c1450c2d1b5984c34f","6790928bebf0b969fc839b02","67929d145a93a875db9c3f2c","passed","","","","","","","","","","","","","","","","","ballFalling","604.4000000000001","575.4211431702997","266.76","12","fallScene","false","","","","61","",""
"","","","","","html-keyboard-response","184","501508","0.0-20.0-1.12","5f8f54c1450c2d1b5984c34f","6790928bebf0b969fc839b02","67929d145a93a875db9c3f2c","passed","","487","","","","","","","","","","","","","","f","yesOrNo","","","","12","","","gt","1000","","61","575.4211431702997","266.76"
"","","","","","html-keyboard-response","185","503518","0.0-20.0-0.13","5f8f54c1450c2d1b5984c34f","6790928bebf0b969fc839b02","67929d145a93a875db9c3f2c","passed","","","","","","","","","","","","","","","","","ballFalling","500","510.8711431702997","369.03","8","fallScene","false","","","","62","",""
"","","","","","html-keyboard-response","186","504533","0.0-20.0-1.13","5f8f54c1450c2d1b5984c34f","6790928bebf0b969fc839b02","67929d145a93a875db9c3f2c","passed","","445","","","","","","","","","","","","","","f","yesOrNo","","","","8","","","mid","1000","","62","501","300"
"","","","","","html-keyboard-response","187","506318","0.0-20.0-0.14","5f8f54c1450c2d1b5984c34f","6790928bebf0b969fc839b02","67929d145a93a875db9c3f2c","passed","","","","","","","","","","","","","","","","","ballFalling","322.3","308.07114317029976","253.89","2","fallScene","true","","","","63","",""
"","","","","","html-keyboard-response","188","507333","0.0-20.0-1.14","5f8f54c1450c2d1b5984c34f","6790928bebf0b969fc839b02","67929d145a93a875db9c3f2c","passed","","716","","","","","","","","","","","","","","j","yesOrNo","","","","2","","","gt","1000","","63","308.07114317029976","253.89"
"","","","","","html-keyboard-response","189","508884","0.0-20.0-0.15","5f8f54c1450c2d1b5984c34f","6790928bebf0b969fc839b02","67929d145a93a875db9c3f2c","passed","","","","","","","","","","","","","","","","","ballFalling","604.4000000000001","650.0211431702996","404.58000000000004","11","fallScene","true","","","","64","",""
"","","","","","html-keyboard-response","190","509897","0.0-20.0-1.15","5f8f54c1450c2d1b5984c34f","6790928bebf0b969fc839b02","67929d145a93a875db9c3f2c","passed","","646","","","","","","","","","","","","","","j","yesOrNo","","","","11","","","mid","1000","","64","605.4000000000001","300"
"","","","","","html-keyboard-response","191","511901","0.0-20.0-0.16","5f8f54c1450c2d1b5984c34f","6790928bebf0b969fc839b02","67929d145a93a875db9c3f2c","passed","","","","","","","","","","","","","","","","","ballFalling","500","510.8711431702997","369.03","8","fallScene","false","","","","65","",""
"","","","","","html-keyboard-response","192","512906","0.0-20.0-1.16","5f8f54c1450c2d1b5984c34f","6790928bebf0b969fc839b02","67929d145a93a875db9c3f2c","passed","","785","","","","","","","","","","","","","","j","yesOrNo","","","","8","","","mid","1000","","65","501","300"
"","","","","","html-keyboard-response","193","514401","0.0-20.0-0.17","5f8f54c1450c2d1b5984c34f","6790928bebf0b969fc839b02","67929d145a93a875db9c3f2c","passed","","","","","","","","","","","","","","","","","ballFalling","604.4000000000001","667.6211431702998","201.78","9","fallScene","false","","","","66","",""
"","","","","","html-keyboard-response","194","515405","0.0-20.0-1.17","5f8f54c1450c2d1b5984c34f","6790928bebf0b969fc839b02","67929d145a93a875db9c3f2c","passed","","544","","","","","","","","","","","","","","f","yesOrNo","","","","9","","","gt","1000","","66","667.6211431702998","201.78"
"","","","","","html-keyboard-response","195","516967","0.0-20.0-0.18","5f8f54c1450c2d1b5984c34f","6790928bebf0b969fc839b02","67929d145a93a875db9c3f2c","passed","","","","","","","","","","","","","","","","","ballFalling","322.3","296.07114317029976","371.46","3","fallScene","false","","","","67","",""
"","","","","","html-keyboard-response","196","517975","0.0-20.0-1.18","5f8f54c1450c2d1b5984c34f","6790928bebf0b969fc839b02","67929d145a93a875db9c3f2c","passed","","825","","","","","","","","","","","","","","j","yesOrNo","","","","3","","","gt","1000","","67","296.07114317029976","371.46"
"","","","","","html-keyboard-response","197","519533","0.0-20.0-0.19","5f8f54c1450c2d1b5984c34f","6790928bebf0b969fc839b02","67929d145a93a875db9c3f2c","passed","","","","","","","","","","","","","","","","","ballFalling","604.4000000000001","650.0211431702996","404.58000000000004","11","fallScene","false","","","","68","",""
"","","","","","html-keyboard-response","198","520550","0.0-20.0-1.19","5f8f54c1450c2d1b5984c34f","6790928bebf0b969fc839b02","67929d145a93a875db9c3f2c","passed","","733","","","","","","","","","","","","","","f","yesOrNo","","","","11","","","lp","1000","","68","605.4000000000001","372.6340973215488"
"","","","","","html-keyboard-response","199","522101","0.0-20.0-0.20","5f8f54c1450c2d1b5984c34f","6790928bebf0b969fc839b02","67929d145a93a875db9c3f2c","passed","","","","","","","","","","","","","","","","","ballFalling","322.3","379.3711431702997","245.25","1","fallScene","true","","","","69","",""
"","","","","","html-keyboard-response","200","523106","0.0-20.0-1.20","5f8f54c1450c2d1b5984c34f","6790928bebf0b969fc839b02","67929d145a93a875db9c3f2c","passed","","602","","","","","","","","","","","","","","f","yesOrNo","","","","1","","","gt","1000","","69","379.3711431702997","245.25"
"","","","","","html-keyboard-response","201","524667","0.0-20.0-0.21","5f8f54c1450c2d1b5984c34f","6790928bebf0b969fc839b02","67929d145a93a875db9c3f2c","passed","","","","","","","","","","","","","","","","","ballFalling","322.3","356.42114317029973","357.87","4","fallScene","false","","","","70","",""
"","","","","","html-keyboard-response","202","525678","0.0-20.0-1.21","5f8f54c1450c2d1b5984c34f","6790928bebf0b969fc839b02","67929d145a93a875db9c3f2c","passed","","775","","","","","","","","","","","","","","f","yesOrNo","","","","4","","","mid","1000","","70","390.27114317029975","300"
"","","","","","html-keyboard-response","203","527684","0.0-20.0-0.22","5f8f54c1450c2d1b5984c34f","6790928bebf0b969fc839b02","67929d145a93a875db9c3f2c","passed","","","","","","","","","","","","","","","","","ballFalling","500","510.8711431702997","369.03","8","fallScene","false","","","","71","",""
"","","","","","html-keyboard-response","204","528699","0.0-20.0-1.22","5f8f54c1450c2d1b5984c34f","6790928bebf0b969fc839b02","67929d145a93a875db9c3f2c","passed","","783","","","","","","","","","","","","","","f","yesOrNo","","","","8","","","lp","1000","","71","501","151"
"","","","","","html-keyboard-response","205","530184","0.0-20.0-0.23","5f8f54c1450c2d1b5984c34f","6790928bebf0b969fc839b02","67929d145a93a875db9c3f2c","passed","","","","","","","","","","","","","","","","","ballFalling","604.4000000000001","667.6211431702998","201.78","9","fallScene","true","","","","72","",""
"","","","","","html-keyboard-response","206","531196","0.0-20.0-1.23","5f8f54c1450c2d1b5984c34f","6790928bebf0b969fc839b02","67929d145a93a875db9c3f2c","passed","","794","","","","","","","","","","","","","","f","yesOrNo","","","","9","","","mid","1000","","72","605.4000000000001","300"
"","","","","","html-keyboard-response","207","534246","0.0-21.0","5f8f54c1450c2d1b5984c34f","6790928bebf0b969fc839b02","67929d145a93a875db9c3f2c","passed","","3048","","","","","","","","","","","","","<p><span style=""font-size:40px;"">BLOCK 4</span></p><p><span style=""font-size:25px;"">You have <b style=""color: #FF644F;""><strong>1 second(s)</strong></b> to respond to the following trials.</span><br></p><p></p> <!-- Blank line -->
                <p id=""blinking-text"" style=""font-weight; animation: blink 2s infinite;"">Press Space to continue</p>
                <style>
                    @keyframes blink {
                        50% {
                            opacity: 0;
                        }
                    }
                </style></p>"," ","","","","","","","","","","","","",""
"","","","","","html-keyboard-response","208","536250","0.0-22.0-0.0","5f8f54c1450c2d1b5984c34f","6790928bebf0b969fc839b02","67929d145a93a875db9c3f2c","passed","","","","","","","","","","","","","","","","","ballFalling","500","510.8711431702997","369.03","8","fallScene","false","","","","73","",""
"","","","","","html-keyboard-response","209","537255","0.0-22.0-1.0","5f8f54c1450c2d1b5984c34f","6790928bebf0b969fc839b02","67929d145a93a875db9c3f2c","passed","","710","","","","","","","","","","","","","","f","yesOrNo","","","","8","","","lp","1000","","73","501","151"
"","","","","","html-keyboard-response","210","538817","0.0-22.0-0.1","5f8f54c1450c2d1b5984c34f","6790928bebf0b969fc839b02","67929d145a93a875db9c3f2c","passed","","","","","","","","","","","","","","","","","ballFalling","604.4000000000001","650.0211431702996","404.58000000000004","11","fallScene","false","","","","74","",""
"","","","","","html-keyboard-response","211","539835","0.0-22.0-1.1","5f8f54c1450c2d1b5984c34f","6790928bebf0b969fc839b02","67929d145a93a875db9c3f2c","passed","","568","","","","","","","","","","","","","","j","yesOrNo","","","","11","","","gt","1000","","74","650.0211431702996","404.58"
"","","","","","html-keyboard-response","212","541402","0.0-22.0-0.2","5f8f54c1450c2d1b5984c34f","6790928bebf0b969fc839b02","67929d145a93a875db9c3f2c","passed","","","","","","","","","","","","","","","","","ballFalling","322.3","379.3711431702997","245.25","1","fallScene","false","","","","75","",""
"","","","","","html-keyboard-response","213","542414","0.0-22.0-1.2","5f8f54c1450c2d1b5984c34f","6790928bebf0b969fc839b02","67929d145a93a875db9c3f2c","passed","","416","","","","","","","","","","","","","","j","yesOrNo","","","","1","","","lp","1000","","75","323.3","217.74551669457017"
"","","","","","html-keyboard-response","214","543967","0.0-22.0-0.3","5f8f54c1450c2d1b5984c34f","6790928bebf0b969fc839b02","67929d145a93a875db9c3f2c","passed","","","","","","","","","","","","","","","","","ballFalling","322.3","296.07114317029976","371.46","3","fallScene","false","","","","76","",""
"","","","","","html-keyboard-response","215","544974","0.0-22.0-1.3","5f8f54c1450c2d1b5984c34f","6790928bebf0b969fc839b02","67929d145a93a875db9c3f2c","passed","","539","","","","","","","","","","","","","","j","yesOrNo","","","","3","","","lp","1000","","76","321.3","287.3327096511259"
"","","","","","html-keyboard-response","216","546984","0.0-22.0-0.4","5f8f54c1450c2d1b5984c34f","6790928bebf0b969fc839b02","67929d145a93a875db9c3f2c","passed","","","","","","","","","","","","","","","","","ballFalling","604.4000000000001","596.8711431702998","394.5","10","fallScene","true","","","","77","",""
"","","","","","html-keyboard-response","217","547986","0.0-22.0-1.4","5f8f54c1450c2d1b5984c34f","6790928bebf0b969fc839b02","67929d145a93a875db9c3f2c","passed","","571","","","","","","","","","","","","","","f","yesOrNo","","","","10","","","gt","1000","","77","596.8711431702998","394.5"
"","","","","","html-keyboard-response","218","549567","0.0-22.0-0.5","5f8f54c1450c2d1b5984c34f","6790928bebf0b969fc839b02","67929d145a93a875db9c3f2c","passed","","","","","","","","","","","","","","","","","ballFalling","500","553.4711431702997","282.51","7","fallScene","true","","","","78","",""
"","","","","","html-keyboard-response","219","550581","0.0-22.0-1.5","5f8f54c1450c2d1b5984c34f","6790928bebf0b969fc839b02","67929d145a93a875db9c3f2c","passed","","548","","","","","","","","","","","","","","f","yesOrNo","","","","7","","","lp","1000","","78","501","227.2843295913261"
"","","","","","html-keyboard-response","220","552584","0.0-22.0-0.6","5f8f54c1450c2d1b5984c34f","6790928bebf0b969fc839b02","67929d145a93a875db9c3f2c","passed","","","","","","","","","","","","","","","","","ballFalling","604.4000000000001","596.8711431702998","394.5","10","fallScene","false","","","","79","",""
"","","","","","html-keyboard-response","221","553596","0.0-22.0-1.6","5f8f54c1450c2d1b5984c34f","6790928bebf0b969fc839b02","67929d145a93a875db9c3f2c","passed","","577","","","","","","","","","","","","","","f","yesOrNo","","","","10","","","lp","1000","","79","603.4000000000001","215.50214355555383"
"","","","","","html-keyboard-response","222","555600","0.0-22.0-0.7","5f8f54c1450c2d1b5984c34f","6790928bebf0b969fc839b02","67929d145a93a875db9c3f2c","passed","","","","","","","","","","","","","","","","","ballFalling","604.4000000000001","596.8711431702998","394.5","10","fallScene","true","","","","80","",""
"","","","","","html-keyboard-response","223","556615","0.0-22.0-1.7","5f8f54c1450c2d1b5984c34f","6790928bebf0b969fc839b02","67929d145a93a875db9c3f2c","passed","","613","","","","","","","","","","","","","","j","yesOrNo","","","","10","","","mid","1000","","80","536.4288568297004","300"
"","","","","","html-keyboard-response","224","558166","0.0-22.0-0.8","5f8f54c1450c2d1b5984c34f","6790928bebf0b969fc839b02","67929d145a93a875db9c3f2c","passed","","","","","","","","","","","","","","","","","ballFalling","500","453.67114317029973","210.33","5","fallScene","true","","","","81","",""
"","","","","","html-keyboard-response","225","559169","0.0-22.0-1.8","5f8f54c1450c2d1b5984c34f","6790928bebf0b969fc839b02","67929d145a93a875db9c3f2c","passed","","802","","","","","","","","","","","","","","f","yesOrNo","","","","5","","","gt","1000","","81","453.6711431702998","210.33"
"","","","","","html-keyboard-response","226","560733","0.0-22.0-0.9","5f8f54c1450c2d1b5984c34f","6790928bebf0b969fc839b02","67929d145a93a875db9c3f2c","passed","","","","","","","","","","","","","","","","","ballFalling","322.3","379.3711431702997","245.25","1","fallScene","false","","","","82","",""
"","","","","","html-keyboard-response","227","561739","0.0-22.0-1.9","5f8f54c1450c2d1b5984c34f","6790928bebf0b969fc839b02","67929d145a93a875db9c3f2c","passed","","382","","","","","","","","","","","","","","j","yesOrNo","","","","1","","","mid","1000","","82","390.27114317029975","300"
"","","","","","html-keyboard-response","228","563533","0.0-22.0-0.10","5f8f54c1450c2d1b5984c34f","6790928bebf0b969fc839b02","67929d145a93a875db9c3f2c","passed","","","","","","","","","","","","","","","","","ballFalling","322.3","308.07114317029976","253.89","2","fallScene","false","","","","83","",""
"","","","","","html-keyboard-response","229","564551","0.0-22.0-1.10","5f8f54c1450c2d1b5984c34f","6790928bebf0b969fc839b02","67929d145a93a875db9c3f2c","passed","","403","","","","","","","","","","","","","","f","yesOrNo","","","","2","","","gt","1000","","83","308.07114317029976","253.89"
"","","","","","html-keyboard-response","230","566117","0.0-22.0-0.11","5f8f54c1450c2d1b5984c34f","6790928bebf0b969fc839b02","67929d145a93a875db9c3f2c","passed","","","","","","","","","","","","","","","","","ballFalling","322.3","379.3711431702997","245.25","1","fallScene","false","","","","84","",""
"","","","","","html-keyboard-response","231","567121","0.0-22.0-1.11","5f8f54c1450c2d1b5984c34f","6790928bebf0b969fc839b02","67929d145a93a875db9c3f2c","passed","","493","","","","","","","","","","","","","","j","yesOrNo","","","","1","","","gt","1000","","84","379.3711431702997","245.25"
"","","","","","html-keyboard-response","232","569133","0.0-22.0-0.12","5f8f54c1450c2d1b5984c34f","6790928bebf0b969fc839b02","67929d145a93a875db9c3f2c","passed","","","","","","","","","","","","","","","","","ballFalling","604.4000000000001","596.8711431702998","394.5","10","fallScene","false","","","","85","",""
"","","","","","html-keyboard-response","233","570135","0.0-22.0-1.12","5f8f54c1450c2d1b5984c34f","6790928bebf0b969fc839b02","67929d145a93a875db9c3f2c","passed","","485","","","","","","","","","","","","","","f","yesOrNo","","","","10","","","gt","1000","","85","596.8711431702998","394.5"
"","","","","","html-keyboard-response","234","571700","0.0-22.0-0.13","5f8f54c1450c2d1b5984c34f","6790928bebf0b969fc839b02","67929d145a93a875db9c3f2c","passed","","","","","","","","","","","","","","","","","ballFalling","322.3","356.42114317029973","357.87","4","fallScene","true","","","","86","",""
"","","","","","html-keyboard-response","235","572705","0.0-22.0-1.13","5f8f54c1450c2d1b5984c34f","6790928bebf0b969fc839b02","67929d145a93a875db9c3f2c","passed","","549","","","","","","","","","","","","","","f","yesOrNo","","","","4","","","gt","1000","","86","356.42114317029973","357.87"
"","","","","","html-keyboard-response","236","574266","0.0-22.0-0.14","5f8f54c1450c2d1b5984c34f","6790928bebf0b969fc839b02","67929d145a93a875db9c3f2c","passed","","","","","","","","","","","","","","","","","ballFalling","322.3","356.42114317029973","357.87","4","fallScene","true","","","","87","",""
"","","","","","html-keyboard-response","237","575280","0.0-22.0-1.14","5f8f54c1450c2d1b5984c34f","6790928bebf0b969fc839b02","67929d145a93a875db9c3f2c","passed","","639","","","","","","","","","","","","","","f","yesOrNo","","","","4","","","gt","1000","","87","356.42114317029973","357.87"
"","","","","","html-keyboard-response","238","576933","0.0-22.0-0.15","5f8f54c1450c2d1b5984c34f","6790928bebf0b969fc839b02","67929d145a93a875db9c3f2c","passed","","","","","","","","","","","","","","","","","ballFalling","500","479.92114317029973","330.87","6","fallScene","true","","","","88","",""
"","","","","","html-keyboard-response","239","577947","0.0-22.0-1.15","5f8f54c1450c2d1b5984c34f","6790928bebf0b969fc839b02","67929d145a93a875db9c3f2c","passed","","654","","","","","","","","","","","","","","f","yesOrNo","","","","6","","","lp","1000","","88","499","189.92909825697632"
"","","","","","html-keyboard-response","240","579500","0.0-22.0-0.16","5f8f54c1450c2d1b5984c34f","6790928bebf0b969fc839b02","67929d145a93a875db9c3f2c","passed","","","","","","","","","","","","","","","","","ballFalling","322.3","379.3711431702997","245.25","1","fallScene","true","","","","89","",""
"","","","","","html-keyboard-response","241","580502","0.0-22.0-1.16","5f8f54c1450c2d1b5984c34f","6790928bebf0b969fc839b02","67929d145a93a875db9c3f2c","passed","","558","","","","","","","","","","","","","","j","yesOrNo","","","","1","","","mid","1000","","89","390.27114317029975","300"
"","","","","","html-keyboard-response","242","582066","0.0-22.0-0.17","5f8f54c1450c2d1b5984c34f","6790928bebf0b969fc839b02","67929d145a93a875db9c3f2c","passed","","","","","","","","","","","","","","","","","ballFalling","604.4000000000001","575.4211431702997","266.76","12","fallScene","true","","","","90","",""
"","","","","","html-keyboard-response","243","583069","0.0-22.0-1.17","5f8f54c1450c2d1b5984c34f","6790928bebf0b969fc839b02","67929d145a93a875db9c3f2c","passed","","711","","","","","","","","","","","","","","j","yesOrNo","","","","12","","","gt","1000","","90","575.4211431702997","266.76"
"","","","","","html-keyboard-response","244","585082","0.0-22.0-0.18","5f8f54c1450c2d1b5984c34f","6790928bebf0b969fc839b02","67929d145a93a875db9c3f2c","passed","","","","","","","","","","","","","","","","","ballFalling","500","510.8711431702997","369.03","8","fallScene","true","","","","91","",""
"","","","","","html-keyboard-response","245","586085","0.0-22.0-1.18","5f8f54c1450c2d1b5984c34f","6790928bebf0b969fc839b02","67929d145a93a875db9c3f2c","passed","","599","","","","","","","","","","","","","","f","yesOrNo","","","","8","","","gt","1000","","91","510.8711431702997","369.03"
"","","","","","html-keyboard-response","246","587750","0.0-22.0-0.19","5f8f54c1450c2d1b5984c34f","6790928bebf0b969fc839b02","67929d145a93a875db9c3f2c","passed","","","","","","","","","","","","","","","","","ballFalling","500","479.92114317029973","330.87","6","fallScene","true","","","","92","",""
"","","","","","html-keyboard-response","247","588752","0.0-22.0-1.19","5f8f54c1450c2d1b5984c34f","6790928bebf0b969fc839b02","67929d145a93a875db9c3f2c","passed","","589","","","","","","","","","","","","","","f","yesOrNo","","","","6","","","lp","1000","","92","499","189.92909825697632"
"","","","","","html-keyboard-response","248","590316","0.0-22.0-0.20","5f8f54c1450c2d1b5984c34f","6790928bebf0b969fc839b02","67929d145a93a875db9c3f2c","passed","","","","","","","","","","","","","","","","","ballFalling","604.4000000000001","650.0211431702996","404.58000000000004","11","fallScene","true","","","","93","",""
"","","","","","html-keyboard-response","249","591328","0.0-22.0-1.20","5f8f54c1450c2d1b5984c34f","6790928bebf0b969fc839b02","67929d145a93a875db9c3f2c","passed","","836","","","","","","","","","","","","","","f","yesOrNo","","","","11","","","gt","1000","","93","650.0211431702996","404.58"
"","","","","","html-keyboard-response","250","593333","0.0-22.0-0.21","5f8f54c1450c2d1b5984c34f","6790928bebf0b969fc839b02","67929d145a93a875db9c3f2c","passed","","","","","","","","","","","","","","","","","ballFalling","604.4000000000001","596.8711431702998","394.5","10","fallScene","false","","","","94","",""
"","","","","","html-keyboard-response","251","594348","0.0-22.0-1.21","5f8f54c1450c2d1b5984c34f","6790928bebf0b969fc839b02","67929d145a93a875db9c3f2c","passed","","484","","","","","","","","","","","","","","f","yesOrNo","","","","10","","","lp","1000","","94","603.4000000000001","215.50214355555383"
"","","","","","html-keyboard-response","252","595900","0.0-22.0-0.22","5f8f54c1450c2d1b5984c34f","6790928bebf0b969fc839b02","67929d145a93a875db9c3f2c","passed","","","","","","","","","","","","","","","","","ballFalling","322.3","356.42114317029973","357.87","4","fallScene","false","","","","95","",""
"","","","","","html-keyboard-response","253","596915","0.0-22.0-1.22","5f8f54c1450c2d1b5984c34f","6790928bebf0b969fc839b02","67929d145a93a875db9c3f2c","passed","","776","","","","","","","","","","","","","","j","yesOrNo","","","","4","","","lp","1000","","95","323.3","297.4070551689986"
"","","","","","html-keyboard-response","254","598466","0.0-22.0-0.23","5f8f54c1450c2d1b5984c34f","6790928bebf0b969fc839b02","67929d145a93a875db9c3f2c","passed","","","","","","","","","","","","","","","","","ballFalling","322.3","356.42114317029973","357.87","4","fallScene","false","","","","96","",""
"","","","","","html-keyboard-response","255","599479","0.0-22.0-1.23","5f8f54c1450c2d1b5984c34f","6790928bebf0b969fc839b02","67929d145a93a875db9c3f2c","passed","","657","","","","","","","","","","","","","","j","yesOrNo","","","","4","","","lp","1000","","96","323.3","297.4070551689986"
"","","","","","html-keyboard-response","256","601550","0.0-23.0","5f8f54c1450c2d1b5984c34f","6790928bebf0b969fc839b02","67929d145a93a875db9c3f2c","passed","","2070","","","","","","","","","","","","","<p><span style=""font-size:40px;"">BLOCK 5</span></p><p><span style=""font-size:25px;"">You have <b style=""color: #FF644F;""><strong>3 second(s)</strong></b> to respond to the following trials.</span><br></p><p></p> <!-- Blank line -->
                <p id=""blinking-text"" style=""font-weight; animation: blink 2s infinite;"">Press Space to continue</p>
                <style>
                    @keyframes blink {
                        50% {
                            opacity: 0;
                        }
                    }
                </style></p>"," ","","","","","","","","","","","","",""
"","","","","","html-keyboard-response","257","603116","0.0-24.0-0.0","5f8f54c1450c2d1b5984c34f","6790928bebf0b969fc839b02","67929d145a93a875db9c3f2c","passed","","","","","","","","","","","","","","","","","ballFalling","500","453.67114317029973","210.33","5","fallScene","true","","","","97","",""
"","","","","","html-keyboard-response","258","606118","0.0-24.0-1.0","5f8f54c1450c2d1b5984c34f","6790928bebf0b969fc839b02","67929d145a93a875db9c3f2c","passed","","558","","","","","","","","","","","","","","j","yesOrNo","","","","5","","","mid","3000","","97","499","300"
"","","","","","html-keyboard-response","259","607683","0.0-24.0-0.1","5f8f54c1450c2d1b5984c34f","6790928bebf0b969fc839b02","67929d145a93a875db9c3f2c","passed","","","","","","","","","","","","","","","","","ballFalling","604.4000000000001","650.0211431702996","404.58000000000004","11","fallScene","false","","","","98","",""
"","","","","","html-keyboard-response","260","610697","0.0-24.0-1.1","5f8f54c1450c2d1b5984c34f","6790928bebf0b969fc839b02","67929d145a93a875db9c3f2c","passed","","558","","","","","","","","","","","","","","f","yesOrNo","","","","11","","","gt","3000","","98","650.0211431702996","404.58"
"","","","","","html-keyboard-response","261","612349","0.0-24.0-0.2","5f8f54c1450c2d1b5984c34f","6790928bebf0b969fc839b02","67929d145a93a875db9c3f2c","passed","","","","","","","","","","","","","","","","","ballFalling","500","479.92114317029973","330.87","6","fallScene","true","","","","99","",""
"","","","","","html-keyboard-response","262","615352","0.0-24.0-1.2","5f8f54c1450c2d1b5984c34f","6790928bebf0b969fc839b02","67929d145a93a875db9c3f2c","passed","","535","","","","","","","","","","","","","","f","yesOrNo","","","","6","","","lp","3000","","99","499","189.92909825697632"
"","","","","","html-keyboard-response","263","616916","0.0-24.0-0.3","5f8f54c1450c2d1b5984c34f","6790928bebf0b969fc839b02","67929d145a93a875db9c3f2c","passed","","","","","","","","","","","","","","","","","ballFalling","322.3","379.3711431702997","245.25","1","fallScene","true","","","","100","",""
"","","","","","html-keyboard-response","264","619933","0.0-24.0-1.3","5f8f54c1450c2d1b5984c34f","6790928bebf0b969fc839b02","67929d145a93a875db9c3f2c","passed","","462","","","","","","","","","","","","","","j","yesOrNo","","","","1","","","gt","3000","","100","379.3711431702997","245.25"
"","","","","","html-keyboard-response","265","621599","0.0-24.0-0.4","5f8f54c1450c2d1b5984c34f","6790928bebf0b969fc839b02","67929d145a93a875db9c3f2c","passed","","","","","","","","","","","","","","","","","ballFalling","500","479.92114317029973","330.87","6","fallScene","true","","","","101","",""
"","","","","","html-keyboard-response","266","624613","0.0-24.0-1.4","5f8f54c1450c2d1b5984c34f","6790928bebf0b969fc839b02","67929d145a93a875db9c3f2c","passed","","716","","","","","","","","","","","","","","j","yesOrNo","","","","6","","","mid","3000","","101","499","300"
"","","","","","html-keyboard-response","267","626099","0.0-24.0-0.5","5f8f54c1450c2d1b5984c34f","6790928bebf0b969fc839b02","67929d145a93a875db9c3f2c","passed","","","","","","","","","","","","","","","","","ballFalling","604.4000000000001","667.6211431702998","201.78","9","fallScene","true","","","","102","",""
"","","","","","html-keyboard-response","268","629102","0.0-24.0-1.5","5f8f54c1450c2d1b5984c34f","6790928bebf0b969fc839b02","67929d145a93a875db9c3f2c","passed","","721","","","","","","","","","","","","","","f","yesOrNo","","","","9","","","lp","3000","","102","605.4000000000001","151"
"","","","","","html-keyboard-response","269","630666","0.0-24.0-0.6","5f8f54c1450c2d1b5984c34f","6790928bebf0b969fc839b02","67929d145a93a875db9c3f2c","passed","","","","","","","","","","","","","","","","","ballFalling","322.3","296.07114317029976","371.46","3","fallScene","false","","","","103","",""
"","","","","","html-keyboard-response","270","633680","0.0-24.0-1.6","5f8f54c1450c2d1b5984c34f","6790928bebf0b969fc839b02","67929d145a93a875db9c3f2c","passed","","816","","","","","","","","","","","","","","j","yesOrNo","","","","3","","","mid","3000","","103","321.3","300"
"","","","","","html-keyboard-response","271","635232","0.0-24.0-0.7","5f8f54c1450c2d1b5984c34f","6790928bebf0b969fc839b02","67929d145a93a875db9c3f2c","passed","","","","","","","","","","","","","","","","","ballFalling","322.3","356.42114317029973","357.87","4","fallScene","true","","","","104","",""
"","","","","","html-keyboard-response","272","638247","0.0-24.0-1.7","5f8f54c1450c2d1b5984c34f","6790928bebf0b969fc839b02","67929d145a93a875db9c3f2c","passed","","818","","","","","","","","","","","","","","f","yesOrNo","","","","4","","","gt","3000","","104","356.42114317029973","357.87"
"","","","","","html-keyboard-response","273","640249","0.0-24.0-0.8","5f8f54c1450c2d1b5984c34f","6790928bebf0b969fc839b02","67929d145a93a875db9c3f2c","passed","","","","","","","","","","","","","","","","","ballFalling","604.4000000000001","596.8711431702998","394.5","10","fallScene","false","","","","105","",""
"","","","","","html-keyboard-response","274","643255","0.0-24.0-1.8","5f8f54c1450c2d1b5984c34f","6790928bebf0b969fc839b02","67929d145a93a875db9c3f2c","passed","","572","","","","","","","","","","","","","","f","yesOrNo","","","","10","","","mid","3000","","105","536.4288568297004","300"
"","","","","","html-keyboard-response","275","645265","0.0-24.0-0.9","5f8f54c1450c2d1b5984c34f","6790928bebf0b969fc839b02","67929d145a93a875db9c3f2c","passed","","","","","","","","","","","","","","","","","ballFalling","500","510.8711431702997","369.03","8","fallScene","false","","","","106","",""
"","","","","","html-keyboard-response","276","648280","0.0-24.0-1.9","5f8f54c1450c2d1b5984c34f","6790928bebf0b969fc839b02","67929d145a93a875db9c3f2c","passed","","575","","","","","","","","","","","","","","j","yesOrNo","","","","8","","","mid","3000","","106","501","300"
"","","","","","html-keyboard-response","277","650065","0.0-24.0-0.10","5f8f54c1450c2d1b5984c34f","6790928bebf0b969fc839b02","67929d145a93a875db9c3f2c","passed","","","","","","","","","","","","","","","","","ballFalling","322.3","308.07114317029976","253.89","2","fallScene","false","","","","107","",""
"","","","","","html-keyboard-response","278","653074","0.0-24.0-1.10","5f8f54c1450c2d1b5984c34f","6790928bebf0b969fc839b02","67929d145a93a875db9c3f2c","passed","","956","","","","","","","","","","","","","","j","yesOrNo","","","","2","","","mid","3000","","107","321.3","300"
"","","","","","html-keyboard-response","279","654631","0.0-24.0-0.11","5f8f54c1450c2d1b5984c34f","6790928bebf0b969fc839b02","67929d145a93a875db9c3f2c","passed","","","","","","","","","","","","","","","","","ballFalling","604.4000000000001","650.0211431702996","404.58000000000004","11","fallScene","false","","","","108","",""
"","","","","","html-keyboard-response","280","657633","0.0-24.0-1.11","5f8f54c1450c2d1b5984c34f","6790928bebf0b969fc839b02","67929d145a93a875db9c3f2c","passed","","595","","","","","","","","","","","","","","f","yesOrNo","","","","11","","","lp","3000","","108","605.4000000000001","372.6340973215488"
"","","","","","html-keyboard-response","281","659205","0.0-24.0-0.12","5f8f54c1450c2d1b5984c34f","6790928bebf0b969fc839b02","67929d145a93a875db9c3f2c","passed","","","","","","","","","","","","","","","","","ballFalling","322.3","379.3711431702997","245.25","1","fallScene","false","","","","109","",""
"","","","","","html-keyboard-response","282","662212","0.0-24.0-1.12","5f8f54c1450c2d1b5984c34f","6790928bebf0b969fc839b02","67929d145a93a875db9c3f2c","passed","","805","","","","","","","","","","","","","","f","yesOrNo","","","","1","","","mid","3000","","109","390.27114317029975","300"
"","","","","","html-keyboard-response","283","663765","0.0-24.0-0.13","5f8f54c1450c2d1b5984c34f","6790928bebf0b969fc839b02","67929d145a93a875db9c3f2c","passed","","","","","","","","","","","","","","","","","ballFalling","322.3","379.3711431702997","245.25","1","fallScene","false","","","","110","",""
"","","","","","html-keyboard-response","284","666775","0.0-24.0-1.13","5f8f54c1450c2d1b5984c34f","6790928bebf0b969fc839b02","67929d145a93a875db9c3f2c","passed","","735","","","","","","","","","","","","","","j","yesOrNo","","","","1","","","gt","3000","","110","379.3711431702997","245.25"
"","","","","","html-keyboard-response","285","668331","0.0-24.0-0.14","5f8f54c1450c2d1b5984c34f","6790928bebf0b969fc839b02","67929d145a93a875db9c3f2c","passed","","","","","","","","","","","","","","","","","ballFalling","604.4000000000001","650.0211431702996","404.58000000000004","11","fallScene","false","","","","111","",""
"","","","","","html-keyboard-response","286","671334","0.0-24.0-1.14","5f8f54c1450c2d1b5984c34f","6790928bebf0b969fc839b02","67929d145a93a875db9c3f2c","passed","","632","","","","","","","","","","","","","","f","yesOrNo","","","","11","","","lp","3000","","111","605.4000000000001","372.6340973215488"
"","","","","","html-keyboard-response","287","672831","0.0-24.0-0.15","5f8f54c1450c2d1b5984c34f","6790928bebf0b969fc839b02","67929d145a93a875db9c3f2c","passed","","","","","","","","","","","","","","","","","ballFalling","604.4000000000001","667.6211431702998","201.78","9","fallScene","false","","","","112","",""
"","","","","","html-keyboard-response","288","675834","0.0-24.0-1.15","5f8f54c1450c2d1b5984c34f","6790928bebf0b969fc839b02","67929d145a93a875db9c3f2c","passed","","549","","","","","","","","","","","","","","f","yesOrNo","","","","9","","","lp","3000","","112","605.4000000000001","151"
"","","","","","html-keyboard-response","289","677398","0.0-24.0-0.16","5f8f54c1450c2d1b5984c34f","6790928bebf0b969fc839b02","67929d145a93a875db9c3f2c","passed","","","","","","","","","","","","","","","","","ballFalling","500","453.67114317029973","210.33","5","fallScene","true","","","","113","",""
"","","","","","html-keyboard-response","290","680404","0.0-24.0-1.16","5f8f54c1450c2d1b5984c34f","6790928bebf0b969fc839b02","67929d145a93a875db9c3f2c","passed","","742","","","","","","","","","","","","","","f","yesOrNo","","","","5","","","gt","3000","","113","453.6711431702998","210.33"
"","","","","","html-keyboard-response","291","682198","0.0-24.0-0.17","5f8f54c1450c2d1b5984c34f","6790928bebf0b969fc839b02","67929d145a93a875db9c3f2c","passed","","","","","","","","","","","","","","","","","ballFalling","322.3","308.07114317029976","253.89","2","fallScene","false","","","","114","",""
"","","","","","html-keyboard-response","292","685211","0.0-24.0-1.17","5f8f54c1450c2d1b5984c34f","6790928bebf0b969fc839b02","67929d145a93a875db9c3f2c","passed","","518","","","","","","","","","","","","","","j","yesOrNo","","","","2","","","gt","3000","","114","308.07114317029976","253.89"
"","","","","","html-keyboard-response","293","687214","0.0-24.0-0.18","5f8f54c1450c2d1b5984c34f","6790928bebf0b969fc839b02","67929d145a93a875db9c3f2c","passed","","","","","","","","","","","","","","","","","ballFalling","500","510.8711431702997","369.03","8","fallScene","true","","","","115","",""
"","","","","","html-keyboard-response","294","690230","0.0-24.0-1.18","5f8f54c1450c2d1b5984c34f","6790928bebf0b969fc839b02","67929d145a93a875db9c3f2c","passed","","538","","","","","","","","","","","","","","f","yesOrNo","","","","8","","","lp","3000","","115","501","151"
"","","","","","html-keyboard-response","295","691880","0.0-24.0-0.19","5f8f54c1450c2d1b5984c34f","6790928bebf0b969fc839b02","67929d145a93a875db9c3f2c","passed","","","","","","","","","","","","","","","","","ballFalling","500","479.92114317029973","330.87","6","fallScene","false","","","","116","",""
"","","","","","html-keyboard-response","296","694896","0.0-24.0-1.19","5f8f54c1450c2d1b5984c34f","6790928bebf0b969fc839b02","67929d145a93a875db9c3f2c","passed","","629","","","","","","","","","","","","","","f","yesOrNo","","","","6","","","gt","3000","","116","479.9211431702998","330.87"
"","","","","","html-keyboard-response","297","696897","0.0-24.0-0.20","5f8f54c1450c2d1b5984c34f","6790928bebf0b969fc839b02","67929d145a93a875db9c3f2c","passed","","","","","","","","","","","","","","","","","ballFalling","500","510.8711431702997","369.03","8","fallScene","true","","","","117","",""
"","","","","","html-keyboard-response","298","699909","0.0-24.0-1.20","5f8f54c1450c2d1b5984c34f","6790928bebf0b969fc839b02","67929d145a93a875db9c3f2c","passed","","560","","","","","","","","","","","","","","f","yesOrNo","","","","8","","","mid","3000","","117","501","300"
"","","","","","html-keyboard-response","299","701464","0.0-24.0-0.21","5f8f54c1450c2d1b5984c34f","6790928bebf0b969fc839b02","67929d145a93a875db9c3f2c","passed","","","","","","","","","","","","","","","","","ballFalling","322.3","356.42114317029973","357.87","4","fallScene","true","","","","118","",""
"","","","","","html-keyboard-response","300","704470","0.0-24.0-1.21","5f8f54c1450c2d1b5984c34f","6790928bebf0b969fc839b02","67929d145a93a875db9c3f2c","passed","","794","","","","","","","","","","","","","","f","yesOrNo","","","","4","","","gt","3000","","118","356.42114317029973","357.87"
"","","","","","html-keyboard-response","301","706047","0.0-24.0-0.22","5f8f54c1450c2d1b5984c34f","6790928bebf0b969fc839b02","67929d145a93a875db9c3f2c","passed","","","","","","","","","","","","","","","","","ballFalling","500","553.4711431702997","282.51","7","fallScene","true","","","","119","",""
"","","","","","html-keyboard-response","302","709063","0.0-24.0-1.22","5f8f54c1450c2d1b5984c34f","6790928bebf0b969fc839b02","67929d145a93a875db9c3f2c","passed","","782","","","","","","","","","","","","","","f","yesOrNo","","","","7","","","gt","3000","","119","553.4711431702997","282.51"
"","","","","","html-keyboard-response","303","710630","0.0-24.0-0.23","5f8f54c1450c2d1b5984c34f","6790928bebf0b969fc839b02","67929d145a93a875db9c3f2c","passed","","","","","","","","","","","","","","","","","ballFalling","500","553.4711431702997","282.51","7","fallScene","true","","","","120","",""
"","","","","","html-keyboard-response","304","713644","0.0-24.0-1.23","5f8f54c1450c2d1b5984c34f","6790928bebf0b969fc839b02","67929d145a93a875db9c3f2c","passed","","859","","","","","","","","","","","","","","f","yesOrNo","","","","7","","","gt","3000","","120","553.4711431702997","282.51"
"","","","","","html-keyboard-response","305","719236","0.0-25.0","5f8f54c1450c2d1b5984c34f","6790928bebf0b969fc839b02","67929d145a93a875db9c3f2c","passed","","5591","","","","","","","","","","","","","<p><span style=""font-size:40px;"">BLOCK 6</span></p><p><span style=""font-size:25px;"">You have <b style=""color: #FF644F;""><strong>3 second(s)</strong></b> to respond to the following trials.</span><br></p><p></p> <!-- Blank line -->
                <p id=""blinking-text"" style=""font-weight; animation: blink 2s infinite;"">Press Space to continue</p>
                <style>
                    @keyframes blink {
                        50% {
                            opacity: 0;
                        }
                    }
                </style></p>"," ","","","","","","","","","","","","",""
"","","","","","html-keyboard-response","306","720813","0.0-26.0-0.0","5f8f54c1450c2d1b5984c34f","6790928bebf0b969fc839b02","67929d145a93a875db9c3f2c","passed","","","","","","","","","","","","","","","","","ballFalling","500","553.4711431702997","282.51","7","fallScene","false","","","","121","",""
"","","","","","html-keyboard-response","307","723814","0.0-26.0-1.0","5f8f54c1450c2d1b5984c34f","6790928bebf0b969fc839b02","67929d145a93a875db9c3f2c","passed","","860","","","","","","","","","","","","","","j","yesOrNo","","","","7","","","mid","3000","","121","501","300"
