"success","timeout","failed_images","failed_audio","failed_video","trial_type","trial_index","time_elapsed","internal_node_id","subject_id","study_id","session_id","practiceTestResult","view_history","rt","width","height","webaudio","browser","browser_version","mobile","os","fullscreen","vsync_rate","webcam","microphone","url","stimulus","response","task","ball_X","obstacle_groundTruth_x","obstacle_groundTruth_y","stimulus_idx","trial_name","flipped","choice","timeLimit","question_order","currentTrial","obstacle_choice_x","obstacle_choice_y"
"true","false","[]","[]","[]","preload","0","132","0.0-0.0","603f28793a28f30ab6932a12","6790928bebf0b969fc839b02","67982657db3be9841ccafdef","passed","","","","","","","","","","","","","","","","","","","","","","","","","","","","",""
"","","","","","instructions","1","22394","0.0-1.0","603f28793a28f30ab6932a12","6790928bebf0b969fc839b02","67982657db3be9841ccafdef","passed","[{""page_index"":0,""viewing_time"":22262}]","22262","","","","","","","","","","","","","","","","","","","","","","","","","","",""
"","","","","","browser-check","2","22810","0.0-2.0","603f28793a28f30ab6932a12","6790928bebf0b969fc839b02","67982657db3be9841ccafdef","passed","","","1920","953","true","chrome","132.0.0","false","Windows 10","true","145.45","false","true","","","","","","","","","","","","","","","",""
"","","","","","external-html","3","37978","0.0-3.0","603f28793a28f30ab6932a12","6790928bebf0b969fc839b02","67982657db3be9841ccafdef","passed","","15097","","","","","","","","","","","","consent.html","","","","","","","","","","","","","","",""
"true","","","","","fullscreen","4","40977","0.0-4.0","603f28793a28f30ab6932a12","6790928bebf0b969fc839b02","67982657db3be9841ccafdef","passed","","2695","","","","","","","","","","","","","","","","","","","","","","","","","","",""
"","","","","","browser-check","5","41393","0.0-5.0","603f28793a28f30ab6932a12","6790928bebf0b969fc839b02","67982657db3be9841ccafdef","passed","","","1920","1080","true","chrome","132.0.0","false","Windows 10","true","144.37","false","true","","","","","","","","","","","","","","","",""
"","","","","","html-keyboard-response","6","44999","0.0-6.0","603f28793a28f30ab6932a12","6790928bebf0b969fc839b02","67982657db3be9841ccafdef","passed","","3605","","","","","","","","","","","","","<p><b>This experiment requires keyboard input.</b></p> 
        <p><b>To ensure your response will be recorded successfully, please press 'Space' to continue.</b></p>
        <p>If you can't proceed, you won't be able to complete this study.</p>
        <p></p> <!-- Blank line -->
        <p id=""blinking-text"" style=""font-weight; animation: blink 2s infinite;"">Press Space to continue</p>
        <style>
            @keyframes blink {
                50% {
                    opacity: 0;
                }
            }
        </style>"," ","","","","","","","","","","","","",""
"","","","","","html-keyboard-response","7","48932","0.0-7.0","603f28793a28f30ab6932a12","6790928bebf0b969fc839b02","67982657db3be9841ccafdef","passed","","3932","","","","","","","","","","","","","<p><b>This experiment requires keyboard input.</b></p> 
        <p><b>To ensure your response will be recorded successfully, please press the 'f' key to continue.</b></p>
        <p>If you can't proceed, you won't be able to complete this study.</p>
        <p></p> <!-- Blank line -->
        <p id=""blinking-text"" style=""font-weight; animation: blink 2s infinite;"">Press f to continue</p>
        <style>
            @keyframes blink {
                50% {
                    opacity: 0;
                }
            }
        </style>","f","","","","","","","","","","","","",""
"","","","","","html-keyboard-response","8","51704","0.0-8.0","603f28793a28f30ab6932a12","6790928bebf0b969fc839b02","67982657db3be9841ccafdef","passed","","2771","","","","","","","","","","","","","<p><b>This experiment requires keyboard input.</b></p> 
        <p><b>To ensure your response will be recorded successfully, please press the 'j' key to continue.</b></p>
        <p>If you can't proceed, you won't be able to complete this study.</p>
        <p></p> <!-- Blank line -->
        <p id=""blinking-text"" style=""font-weight; animation: blink 2s infinite;"">Press j to continue</p>
        <style>
            @keyframes blink {
                50% {
                    opacity: 0;
                }
            }
        </style>","j","","","","","","","","","","","","",""
"","","","","","browser-check","9","52123","0.0-9.0","603f28793a28f30ab6932a12","6790928bebf0b969fc839b02","67982657db3be9841ccafdef","passed","","","1920","1080","true","chrome","132.0.0","false","Windows 10","true","143.99","false","true","","","","","","","","","","","","","","","",""
"","","","","","survey-text","10","55946","0.0-10.0","603f28793a28f30ab6932a12","6790928bebf0b969fc839b02","67982657db3be9841ccafdef","passed","","3818","","","","","","","","","","","","","","{""prolificID"":""603f28793a28f30ab6932a12""}","","","","","","","","","","","","",""
"","","","","","instructions","11","138890","0.0-11.0-0.0-0.0","603f28793a28f30ab6932a12","6790928bebf0b969fc839b02","67982657db3be9841ccafdef","passed","[{""page_index"":0,""viewing_time"":22487},{""page_index"":1,""viewing_time"":37792},{""page_index"":2,""viewing_time"":12352},{""page_index"":3,""viewing_time"":10312}]","82944","","","","","","","","","","","","","","","","","","","","","","","","","","",""
"","","","","","html-keyboard-response","12","154679","0.0-11.0-0.0-1.0","603f28793a28f30ab6932a12","6790928bebf0b969fc839b02","67982657db3be9841ccafdef","passed","","15277","","","","","","","","","","","","","<br>Remember! After a ball falls, the screen will disappear, and you'll decide if the proposed position is where the hidden triangle was. <br>You will now practice this by watching a few videos and making decisions.<p>To respond:<br style=""margin-bottom: 5px; text-indent: -20px; padding-left: 20px;"">- Press <b style=""color: #12AD2B;"">J for Yes</b>, if you think the triangle is in the correct position.<br style=""margin-top: 0; text-indent: -20px; padding-left: 20px;"">- Press <b style=""color: orange;"">F for No</b>, if you think the triangle is not in the correct position.</p><p>In this practice round, there is no time limit. Focus on getting comfortable with the task first.<br>Press either J or F to begin your practice trials.</p><img src = ""YesOrNo_instruction.png"" style=""width: 65%;""></img>","j","","","","","","","","","","","","",""
"","","","","","html-keyboard-response","13","156763","0.0-11.0-0.0-2.0-0.0","603f28793a28f30ab6932a12","6790928bebf0b969fc839b02","67982657db3be9841ccafdef","passed","","","","","","","","","","","","","","","","","ballFalling_prac","660","666","350","3","fallScene","false","","","","","",""
"","","","","","html-keyboard-response","14","159997","0.0-11.0-0.0-2.0-1.0","603f28793a28f30ab6932a12","6790928bebf0b969fc839b02","67982657db3be9841ccafdef","passed","","3220","","","","","","","","","","","","","","f","yesOrNo_prac_noTimed","","","","3","","","wrong direction","NA","","","",""
"","","","","","html-keyboard-response","15","161575","0.0-11.0-0.0-2.0-0.1","603f28793a28f30ab6932a12","6790928bebf0b969fc839b02","67982657db3be9841ccafdef","passed","","","","","","","","","","","","","","","","","ballFalling_prac","441","414","302","5","fallScene","true","","","","","",""
"","","","","","html-keyboard-response","16","162940","0.0-11.0-0.0-2.0-1.1","603f28793a28f30ab6932a12","6790928bebf0b969fc839b02","67982657db3be9841ccafdef","passed","","1365","","","","","","","","","","","","","","j","yesOrNo_prac_noTimed","","","","5","","","close gt","NA","","","",""
"","","","","","html-keyboard-response","17","164498","0.0-11.0-0.0-2.0-0.2","603f28793a28f30ab6932a12","6790928bebf0b969fc839b02","67982657db3be9841ccafdef","passed","","","","","","","","","","","","","","","","","ballFalling_prac","416","464","296","1","fallScene","false","","","","","",""
"","","","","","html-keyboard-response","18","166350","0.0-11.0-0.0-2.0-1.2","603f28793a28f30ab6932a12","6790928bebf0b969fc839b02","67982657db3be9841ccafdef","passed","","1849","","","","","","","","","","","","","","j","yesOrNo_prac_noTimed","","","","1","","","gt","NA","","","",""
"","","","","","instructions","19","213865","0.0-11.0-0.0-3.0","603f28793a28f30ab6932a12","6790928bebf0b969fc839b02","67982657db3be9841ccafdef","passed","[{""page_index"":0,""viewing_time"":27034},{""page_index"":1,""viewing_time"":20480}]","47514","","","","","","","","","","","","","","","","","","","","","","","","","","",""
"","","","","","html-button-response","20","219450","0.0-11.0-0.0-4.0","603f28793a28f30ab6932a12","6790928bebf0b969fc839b02","67982657db3be9841ccafdef","passed","","5079","","","","","","","","","","","","","<p>To make sure you understood the task, we just have a <b>brief quiz</b> here.</p><p>If you need to review the instructions, click 'Previous'.</p><p>It's important to understand the task to do the study, so you have to pass the quiz to move to the study.</p>","1","","","","","","","","","","","","",""
"","","","","","survey-multi-choice","21","239026","0.0-11.0-1.0-0.0","603f28793a28f30ab6932a12","6790928bebf0b969fc839b02","67982657db3be9841ccafdef","passed","","19575","","","","","","","","","","","","","","{""generalProcedure"":""Watch a video of a ball falling, some of it behind a gray screen. After each video, decide if the triangle is at the spot where the ball hit the triangle behind the screen. There is time limit for the response.""}","","","","","","","","","","[0]","","",""
"","","","","","survey-multi-choice","22","245042","0.0-11.0-1.0-1.0","603f28793a28f30ab6932a12","6790928bebf0b969fc839b02","67982657db3be9841ccafdef","passed","","6015","","","","","","","","","","","","","","{""checkBallHitObstacle"":""Yes.""}","","","","","","","","","","[0]","","",""
"","","","","","survey-multi-choice","23","252409","0.0-11.0-1.0-2.0","603f28793a28f30ab6932a12","6790928bebf0b969fc839b02","67982657db3be9841ccafdef","passed","","7366","","","","","","","","","","","","","","{""checkTriangleVisibility"":""No, the triangle is hidden behind the gray screen.""}","","","","","","","","","","[0]","","",""
"","","","","","survey-multi-choice","24","256626","0.0-11.0-1.0-3.0","603f28793a28f30ab6932a12","6790928bebf0b969fc839b02","67982657db3be9841ccafdef","passed","","4216","","","","","","","","","","","","","","{""checkTimedResponse"":""Your response will not be recorded, and the trial will move to the next one.""}","","","","","","","","","","[0]","","",""
"","","","","","survey-multi-choice","25","264714","0.0-11.0-1.0-4.0","603f28793a28f30ab6932a12","6790928bebf0b969fc839b02","67982657db3be9841ccafdef","passed","","8088","","","","","","","","","","","","","","{""checkTimeBlockNotice"":""At the beginning of each block.""}","","","","","","","","","","[0]","","",""
"","","","","","survey-multi-choice","26","270802","0.0-11.0-1.0-5.0","603f28793a28f30ab6932a12","6790928bebf0b969fc839b02","67982657db3be9841ccafdef","passed","","6087","","","","","","","","","","","","","","{""checkTimeBlockSameness"":""Yes, the time limit is the same for all trials within a block.""}","","","","","","","","","","[0]","","",""
"","","","","","survey-multi-choice","27","288346","0.0-11.0-1.0-6.0","603f28793a28f30ab6932a12","6790928bebf0b969fc839b02","67982657db3be9841ccafdef","passed","","17543","","","","","","","","","","","","","","{""checkTrianglePrecision"":""No. The proposed purple triangle is not in the correct position because it doesn't match the location of the white triangle exactly.""}","","","","","","","","","","[0]","","",""
"","","","","","instructions","28","317650","0.0-12.0","603f28793a28f30ab6932a12","6790928bebf0b969fc839b02","67982657db3be9841ccafdef","passed","[{""page_index"":0,""viewing_time"":5815},{""page_index"":1,""viewing_time"":7560},{""page_index"":2,""viewing_time"":7992},{""page_index"":3,""viewing_time"":7936}]","29303","","","","","","","","","","","","","","","","","","","","","","","","","","",""
"","","","","","instructions","29","330273","0.0-13.0-0.0","603f28793a28f30ab6932a12","6790928bebf0b969fc839b02","67982657db3be9841ccafdef","passed","[{""page_index"":0,""viewing_time"":12623}]","12624","","","","","","","","","","","","","","","","","","","","","","","","","","",""
"","","","","","html-keyboard-response","30","333271","0.0-13.0-1.0","603f28793a28f30ab6932a12","6790928bebf0b969fc839b02","67982657db3be9841ccafdef","passed","","2997","","","","","","","","","","","","","<p><span style=""font-size:40px;"">Practice BLOCK 1</span></p><p><span style=""font-size:25px;"">You have <b style=""color: #FF644F;""><strong>3 second(s)</strong></b> to respond to the following trials.</span><br></p><p id=""blinking-text"" style=""font-weight; animation: blink 2s infinite;"">Press Space to continue</p><style>
                    @keyframes blink {
                        50% {
                            opacity: 0;
                        }
                    }
                </style>"," ","","","","","","","","","","","","",""
"","","","","","html-keyboard-response","31","334825","0.0-13.0-2.0-0.0","603f28793a28f30ab6932a12","6790928bebf0b969fc839b02","67982657db3be9841ccafdef","passed","","","","","","","","","","","","","","","","","ballFalling_prac","416","464","296","1","fallScene","false","","","","","",""
"","","","","","html-keyboard-response","32","337839","0.0-13.0-2.0-1.0","603f28793a28f30ab6932a12","6790928bebf0b969fc839b02","67982657db3be9841ccafdef","passed","","972","","","","","","","","","","","","","","j","yesOrNo_prac","","","","1","","","far gt","3000","","","",""
"","","","","","html-keyboard-response","33","339394","0.0-13.0-2.0-0.1","603f28793a28f30ab6932a12","6790928bebf0b969fc839b02","67982657db3be9841ccafdef","passed","","","","","","","","","","","","","","","","","ballFalling_prac","584","536","296","1","fallScene","true","","","","","",""
"","","","","","html-keyboard-response","34","342401","0.0-13.0-2.0-1.1","603f28793a28f30ab6932a12","6790928bebf0b969fc839b02","67982657db3be9841ccafdef","passed","","1004","","","","","","","","","","","","","","f","yesOrNo_prac","","","","1","","","close gt","3000","","","",""
"","","","","","html-keyboard-response","35","343978","0.0-13.0-2.0-0.2","603f28793a28f30ab6932a12","6790928bebf0b969fc839b02","67982657db3be9841ccafdef","passed","","","","","","","","","","","","","","","","","ballFalling_prac","660","610","263","4","fallScene","false","","","","","",""
"","","","","","html-keyboard-response","36","346985","0.0-13.0-2.0-1.2","603f28793a28f30ab6932a12","6790928bebf0b969fc839b02","67982657db3be9841ccafdef","passed","","763","","","","","","","","","","","","","","f","yesOrNo_prac","","","","4","","","gt","3000","","","",""
"","","","","","html-keyboard-response","37","349397","0.0-13.0-3.0","603f28793a28f30ab6932a12","6790928bebf0b969fc839b02","67982657db3be9841ccafdef","passed","","2412","","","","","","","","","","","","","<p><span style=""font-size:40px;"">Practice BLOCK 2</span></p><p><span style=""font-size:25px;"">You have <b style=""color: #FF644F;""><strong>1 second(s)</strong></b> to respond to the following trials.</span><br></p><p id=""blinking-text"" style=""font-weight; animation: blink 2s infinite;"">Press Space to continue</p><style>
                    @keyframes blink {
                        50% {
                            opacity: 0;
                        }
                    }
                </style>"," ","","","","","","","","","","","","",""
"","","","","","html-keyboard-response","38","350957","0.0-13.0-4.0-0.0","603f28793a28f30ab6932a12","6790928bebf0b969fc839b02","67982657db3be9841ccafdef","passed","","","","","","","","","","","","","","","","","ballFalling_prac","441","500","317","6","fallScene","true","","","","","",""
"","","","","","html-keyboard-response","39","351965","0.0-13.0-4.0-1.0","603f28793a28f30ab6932a12","6790928bebf0b969fc839b02","67982657db3be9841ccafdef","passed","","739","","","","","","","","","","","","","","f","yesOrNo_prac","","","","6","","","gt","1000","","","",""
"","","","","","html-keyboard-response","40","354082","0.0-13.0-4.0-0.1","603f28793a28f30ab6932a12","6790928bebf0b969fc839b02","67982657db3be9841ccafdef","passed","","","","","","","","","","","","","","","","","ballFalling_prac","340","334","350","3","fallScene","true","","","","","",""
"","","","","","html-keyboard-response","41","355090","0.0-13.0-4.0-1.1","603f28793a28f30ab6932a12","6790928bebf0b969fc839b02","67982657db3be9841ccafdef","passed","","710","","","","","","","","","","","","","","f","yesOrNo_prac","","","","3","","","close gt","1000","","","",""
"","","","","","html-keyboard-response","42","356671","0.0-13.0-4.0-0.2","603f28793a28f30ab6932a12","6790928bebf0b969fc839b02","67982657db3be9841ccafdef","passed","","","","","","","","","","","","","","","","","ballFalling_prac","660","610","263","4","fallScene","false","","","","","",""
"","","","","","html-keyboard-response","43","357673","0.0-13.0-4.0-1.2","603f28793a28f30ab6932a12","6790928bebf0b969fc839b02","67982657db3be9841ccafdef","passed","","658","","","","","","","","","","","","","","j","yesOrNo_prac","","","","4","","","far gt","1000","","","",""
"","","","","","instructions","44","365809","0.0-13.0-5.0","603f28793a28f30ab6932a12","6790928bebf0b969fc839b02","67982657db3be9841ccafdef","passed","[{""page_index"":0,""viewing_time"":8135}]","8135","","","","","","","","","","","","","","","","","","","","","","","","","","",""
"","","","","","html-keyboard-response","45","368313","0.0-13.0-6.0","603f28793a28f30ab6932a12","6790928bebf0b969fc839b02","67982657db3be9841ccafdef","passed","","2503","","","","","","","","","","","","","<p><span style=""font-size:40px;"">Practice Test BLOCK 1</span></p><p><span style=""font-size:25px;"">You have <b style=""color: #FF644F;""><strong>1 second(s)</strong></b> to respond to the following trials.</span><br></p><p id=""blinking-text"" style=""font-weight; animation: blink 2s infinite;"">Press Space to continue</p><style>
                    @keyframes blink {
                        50% {
                            opacity: 0;
                        }
                    }
                </style>"," ","","","","","","","","","","","","",""
"","","","","","html-keyboard-response","46","369867","0.0-13.0-7.0-0.0","603f28793a28f30ab6932a12","6790928bebf0b969fc839b02","67982657db3be9841ccafdef","passed","","","","","","","","","","","","","","","","","ballFalling_prac","441","500","317","6","fallScene","true","","","","","",""
"","","","","","html-keyboard-response","47","370874","0.0-13.0-7.0-1.0","603f28793a28f30ab6932a12","6790928bebf0b969fc839b02","67982657db3be9841ccafdef","passed","","745","","","","","","","","","","","","","","j","yesOrNo_prac","","","","6","","","close gt","1000","","","",""
"","","","","","html-keyboard-response","48","372450","0.0-13.0-7.0-0.1","603f28793a28f30ab6932a12","6790928bebf0b969fc839b02","67982657db3be9841ccafdef","passed","","","","","","","","","","","","","","","","","ballFalling_prac","340","390","263","4","fallScene","true","","","","","",""
"","","","","","html-keyboard-response","49","373457","0.0-13.0-7.0-1.1","603f28793a28f30ab6932a12","6790928bebf0b969fc839b02","67982657db3be9841ccafdef","passed","","642","","","","","","","","","","","","","","f","yesOrNo_prac","","","","4","","","far gt","1000","","","",""
"","","","","","html-keyboard-response","50","375034","0.0-13.0-7.0-0.2","603f28793a28f30ab6932a12","6790928bebf0b969fc839b02","67982657db3be9841ccafdef","passed","","","","","","","","","","","","","","","","","ballFalling_prac","559","586","302","5","fallScene","false","","","","","",""
"","","","","","html-keyboard-response","51","376048","0.0-13.0-7.0-1.2","603f28793a28f30ab6932a12","6790928bebf0b969fc839b02","67982657db3be9841ccafdef","passed","","903","","","","","","","","","","","","","","f","yesOrNo_prac","","","","5","","","gt","1000","","","",""
"","","","","","html-keyboard-response","52","378292","0.0-13.0-8.0","603f28793a28f30ab6932a12","6790928bebf0b969fc839b02","67982657db3be9841ccafdef","passed","","2243","","","","","","","","","","","","","<p><span style=""font-size:40px;"">Practice Test BLOCK 2</span></p><p><span style=""font-size:25px;"">You have <b style=""color: #FF644F;""><strong>3 second(s)</strong></b> to respond to the following trials.</span><br></p><p id=""blinking-text"" style=""font-weight; animation: blink 2s infinite;"">Press Space to continue</p><style>
                    @keyframes blink {
                        50% {
                            opacity: 0;
                        }
                    }
                </style>"," ","","","","","","","","","","","","",""
"","","","","","html-keyboard-response","53","379874","0.0-13.0-9.0-0.0","603f28793a28f30ab6932a12","6790928bebf0b969fc839b02","67982657db3be9841ccafdef","passed","","","","","","","","","","","","","","","","","ballFalling_prac","559","586","302","5","fallScene","false","","","","","",""
"","","","","","html-keyboard-response","54","382875","0.0-13.0-9.0-1.0","603f28793a28f30ab6932a12","6790928bebf0b969fc839b02","67982657db3be9841ccafdef","passed","","851","","","","","","","","","","","","","","f","yesOrNo_prac","","","","5","","","far gt","3000","","","",""
"","","","","","html-keyboard-response","55","384458","0.0-13.0-9.0-0.1","603f28793a28f30ab6932a12","6790928bebf0b969fc839b02","67982657db3be9841ccafdef","passed","","","","","","","","","","","","","","","","","ballFalling_prac","340","390","263","4","fallScene","true","","","","","",""
"","","","","","html-keyboard-response","56","387460","0.0-13.0-9.0-1.1","603f28793a28f30ab6932a12","6790928bebf0b969fc839b02","67982657db3be9841ccafdef","passed","","788","","","","","","","","","","","","","","j","yesOrNo_prac","","","","4","","","close gt","3000","","","",""
"","","","","","html-keyboard-response","57","389039","0.0-13.0-9.0-0.2","603f28793a28f30ab6932a12","6790928bebf0b969fc839b02","67982657db3be9841ccafdef","passed","","","","","","","","","","","","","","","","","ballFalling_prac","416","365","249","2","fallScene","false","","","","","",""
"","","","","","html-keyboard-response","58","392041","0.0-13.0-9.0-1.2","603f28793a28f30ab6932a12","6790928bebf0b969fc839b02","67982657db3be9841ccafdef","passed","","1397","","","","","","","","","","","","","","j","yesOrNo_prac","","","","2","","","gt","3000","","","",""
"","","","","","instructions","59","400417","0.0-14.0","603f28793a28f30ab6932a12","6790928bebf0b969fc839b02","67982657db3be9841ccafdef","passed","[{""page_index"":0,""viewing_time"":8374}]","8374","","","","","","","","","","","","","","","","","","","","","","","","","","",""
"","","","","","html-keyboard-response","60","403004","0.0-15.0","603f28793a28f30ab6932a12","6790928bebf0b969fc839b02","67982657db3be9841ccafdef","passed","","2586","","","","","","","","","","","","","<p><span style=""font-size:40px;"">BLOCK 1</span></p><p><span style=""font-size:25px;"">You have <b style=""color: #FF644F;""><strong>3 second(s)</strong></b> to respond to the following trials.</span><br></p><p></p> <!-- Blank line -->
                <p id=""blinking-text"" style=""font-weight; animation: blink 2s infinite;"">Press Space to continue</p>
                <style>
                    @keyframes blink {
                        50% {
                            opacity: 0;
                        }
                    }
                </style></p>"," ","","","","","","","","","","","","",""
"","","","","","html-keyboard-response","61","404582","0.0-16.0-0.0","603f28793a28f30ab6932a12","6790928bebf0b969fc839b02","67982657db3be9841ccafdef","passed","","","","","","","","","","","","","","","","","ballFalling","500","553.4711431702997","282.51","7","fallScene","true","","","","1","",""
"","","","","","html-keyboard-response","62","407589","0.0-16.0-1.0","603f28793a28f30ab6932a12","6790928bebf0b969fc839b02","67982657db3be9841ccafdef","passed","","900","","","","","","","","","","","","","","f","yesOrNo","","","","7","","","mid","3000","","1","501","300"
"","","","","","html-keyboard-response","63","409374","0.0-16.0-0.1","603f28793a28f30ab6932a12","6790928bebf0b969fc839b02","67982657db3be9841ccafdef","passed","","","","","","","","","","","","","","","","","ballFalling","322.3","308.07114317029976","253.89","2","fallScene","false","","","","2","",""
"","","","","","html-keyboard-response","64","412382","0.0-16.0-1.1","603f28793a28f30ab6932a12","6790928bebf0b969fc839b02","67982657db3be9841ccafdef","passed","","992","","","","","","","","","","","","","","f","yesOrNo","","","","2","","","lp","3000","","2","321.3","151"
"","","","","","html-keyboard-response","65","413944","0.0-16.0-0.2","603f28793a28f30ab6932a12","6790928bebf0b969fc839b02","67982657db3be9841ccafdef","passed","","","","","","","","","","","","","","","","","ballFalling","322.3","379.3711431702997","245.25","1","fallScene","true","","","","3","",""
"","","","","","html-keyboard-response","66","416947","0.0-16.0-1.2","603f28793a28f30ab6932a12","6790928bebf0b969fc839b02","67982657db3be9841ccafdef","passed","","1335","","","","","","","","","","","","","","f","yesOrNo","","","","1","","","lp","3000","","3","323.3","217.74551669457017"
"","","","","","html-keyboard-response","67","418506","0.0-16.0-0.3","603f28793a28f30ab6932a12","6790928bebf0b969fc839b02","67982657db3be9841ccafdef","passed","","","","","","","","","","","","","","","","","ballFalling","604.4000000000001","650.0211431702996","404.58000000000004","11","fallScene","true","","","","4","",""
"","","","","","html-keyboard-response","68","421513","0.0-16.0-1.3","603f28793a28f30ab6932a12","6790928bebf0b969fc839b02","67982657db3be9841ccafdef","passed","","1170","","","","","","","","","","","","","","f","yesOrNo","","","","11","","","mid","3000","","4","605.4000000000001","300"
"","","","","","html-keyboard-response","69","423520","0.0-16.0-0.4","603f28793a28f30ab6932a12","6790928bebf0b969fc839b02","67982657db3be9841ccafdef","passed","","","","","","","","","","","","","","","","","ballFalling","604.4000000000001","596.8711431702998","394.5","10","fallScene","true","","","","5","",""
"","","","","","html-keyboard-response","70","426523","0.0-16.0-1.4","603f28793a28f30ab6932a12","6790928bebf0b969fc839b02","67982657db3be9841ccafdef","passed","","904","","","","","","","","","","","","","","f","yesOrNo","","","","10","","","gt","3000","","5","596.8711431702998","394.5"
"","","","","","html-keyboard-response","71","428534","0.0-16.0-0.5","603f28793a28f30ab6932a12","6790928bebf0b969fc839b02","67982657db3be9841ccafdef","passed","","","","","","","","","","","","","","","","","ballFalling","604.4000000000001","596.8711431702998","394.5","10","fallScene","true","","","","6","",""
"","","","","","html-keyboard-response","72","431542","0.0-16.0-1.5","603f28793a28f30ab6932a12","6790928bebf0b969fc839b02","67982657db3be9841ccafdef","passed","","1105","","","","","","","","","","","","","","f","yesOrNo","","","","10","","","mid","3000","","6","536.4288568297004","300"
"","","","","","html-keyboard-response","73","433104","0.0-16.0-0.6","603f28793a28f30ab6932a12","6790928bebf0b969fc839b02","67982657db3be9841ccafdef","passed","","","","","","","","","","","","","","","","","ballFalling","322.3","379.3711431702997","245.25","1","fallScene","false","","","","7","",""
"","","","","","html-keyboard-response","74","436110","0.0-16.0-1.6","603f28793a28f30ab6932a12","6790928bebf0b969fc839b02","67982657db3be9841ccafdef","passed","","1010","","","","","","","","","","","","","","f","yesOrNo","","","","1","","","mid","3000","","7","390.27114317029975","300"
"","","","","","html-keyboard-response","75","437666","0.0-16.0-0.7","603f28793a28f30ab6932a12","6790928bebf0b969fc839b02","67982657db3be9841ccafdef","passed","","","","","","","","","","","","","","","","","ballFalling","500","453.67114317029973","210.33","5","fallScene","false","","","","8","",""
"","","","","","html-keyboard-response","76","440671","0.0-16.0-1.7","603f28793a28f30ab6932a12","6790928bebf0b969fc839b02","67982657db3be9841ccafdef","passed","","1327","","","","","","","","","","","","","","j","yesOrNo","","","","5","","","gt","3000","","8","453.6711431702998","210.33"
"","","","","","html-keyboard-response","77","442229","0.0-16.0-0.8","603f28793a28f30ab6932a12","6790928bebf0b969fc839b02","67982657db3be9841ccafdef","passed","","","","","","","","","","","","","","","","","ballFalling","500","453.67114317029973","210.33","5","fallScene","true","","","","9","",""
"","","","","","html-keyboard-response","78","445235","0.0-16.0-1.8","603f28793a28f30ab6932a12","6790928bebf0b969fc839b02","67982657db3be9841ccafdef","passed","","890","","","","","","","","","","","","","","j","yesOrNo","","","","5","","","gt","3000","","9","453.6711431702998","210.33"
"","","","","","html-keyboard-response","79","446791","0.0-16.0-0.9","603f28793a28f30ab6932a12","6790928bebf0b969fc839b02","67982657db3be9841ccafdef","passed","","","","","","","","","","","","","","","","","ballFalling","604.4000000000001","650.0211431702996","404.58000000000004","11","fallScene","false","","","","10","",""
"","","","","","html-keyboard-response","80","449798","0.0-16.0-1.9","603f28793a28f30ab6932a12","6790928bebf0b969fc839b02","67982657db3be9841ccafdef","passed","","1410","","","","","","","","","","","","","","f","yesOrNo","","","","11","","","lp","3000","","10","605.4000000000001","372.6340973215488"
"","","","","","html-keyboard-response","81","451806","0.0-16.0-0.10","603f28793a28f30ab6932a12","6790928bebf0b969fc839b02","67982657db3be9841ccafdef","passed","","","","","","","","","","","","","","","","","ballFalling","500","510.8711431702997","369.03","8","fallScene","false","","","","11","",""
"","","","","","html-keyboard-response","82","454809","0.0-16.0-1.10","603f28793a28f30ab6932a12","6790928bebf0b969fc839b02","67982657db3be9841ccafdef","passed","","1213","","","","","","","","","","","","","","f","yesOrNo","","","","8","","","lp","3000","","11","501","151"
"","","","","","html-keyboard-response","83","456367","0.0-16.0-0.11","603f28793a28f30ab6932a12","6790928bebf0b969fc839b02","67982657db3be9841ccafdef","passed","","","","","","","","","","","","","","","","","ballFalling","604.4000000000001","575.4211431702997","266.76","12","fallScene","false","","","","12","",""
"","","","","","html-keyboard-response","84","459371","0.0-16.0-1.11","603f28793a28f30ab6932a12","6790928bebf0b969fc839b02","67982657db3be9841ccafdef","passed","","1135","","","","","","","","","","","","","","f","yesOrNo","","","","12","","","lp","3000","","12","603.4000000000001","151"
"","","","","","html-keyboard-response","85","460930","0.0-16.0-0.12","603f28793a28f30ab6932a12","6790928bebf0b969fc839b02","67982657db3be9841ccafdef","passed","","","","","","","","","","","","","","","","","ballFalling","322.3","356.42114317029973","357.87","4","fallScene","true","","","","13","",""
"","","","","","html-keyboard-response","86","463938","0.0-16.0-1.12","603f28793a28f30ab6932a12","6790928bebf0b969fc839b02","67982657db3be9841ccafdef","passed","","1202","","","","","","","","","","","","","","j","yesOrNo","","","","4","","","mid","3000","","13","390.27114317029975","300"
"","","","","","html-keyboard-response","87","465604","0.0-16.0-0.13","603f28793a28f30ab6932a12","6790928bebf0b969fc839b02","67982657db3be9841ccafdef","passed","","","","","","","","","","","","","","","","","ballFalling","500","479.92114317029973","330.87","6","fallScene","true","","","","14","",""
"","","","","","html-keyboard-response","88","468611","0.0-16.0-1.13","603f28793a28f30ab6932a12","6790928bebf0b969fc839b02","67982657db3be9841ccafdef","passed","","1466","","","","","","","","","","","","","","f","yesOrNo","","","","6","","","mid","3000","","14","499","300"
"","","","","","html-keyboard-response","89","470173","0.0-16.0-0.14","603f28793a28f30ab6932a12","6790928bebf0b969fc839b02","67982657db3be9841ccafdef","passed","","","","","","","","","","","","","","","","","ballFalling","322.3","296.07114317029976","371.46","3","fallScene","false","","","","15","",""
"","","","","","html-keyboard-response","90","473180","0.0-16.0-1.14","603f28793a28f30ab6932a12","6790928bebf0b969fc839b02","67982657db3be9841ccafdef","passed","","1474","","","","","","","","","","","","","","f","yesOrNo","","","","3","","","lp","3000","","15","321.3","287.3327096511259"
"","","","","","html-keyboard-response","91","474736","0.0-16.0-0.15","603f28793a28f30ab6932a12","6790928bebf0b969fc839b02","67982657db3be9841ccafdef","passed","","","","","","","","","","","","","","","","","ballFalling","604.4000000000001","650.0211431702996","404.58000000000004","11","fallScene","false","","","","16","",""
"","","","","","html-keyboard-response","92","477743","0.0-16.0-1.15","603f28793a28f30ab6932a12","6790928bebf0b969fc839b02","67982657db3be9841ccafdef","passed","","935","","","","","","","","","","","","","","f","yesOrNo","","","","11","","","lp","3000","","16","605.4000000000001","372.6340973215488"
"","","","","","html-keyboard-response","93","479299","0.0-16.0-0.16","603f28793a28f30ab6932a12","6790928bebf0b969fc839b02","67982657db3be9841ccafdef","passed","","","","","","","","","","","","","","","","","ballFalling","322.3","296.07114317029976","371.46","3","fallScene","false","","","","17","",""
"","","","","","html-keyboard-response","94","482305","0.0-16.0-1.16","603f28793a28f30ab6932a12","6790928bebf0b969fc839b02","67982657db3be9841ccafdef","passed","","1042","","","","","","","","","","","","","","f","yesOrNo","","","","3","","","mid","3000","","17","321.3","300"
"","","","","","html-keyboard-response","95","484312","0.0-16.0-0.17","603f28793a28f30ab6932a12","6790928bebf0b969fc839b02","67982657db3be9841ccafdef","passed","","","","","","","","","","","","","","","","","ballFalling","604.4000000000001","596.8711431702998","394.5","10","fallScene","true","","","","18","",""
"","","","","","html-keyboard-response","96","487320","0.0-16.0-1.17","603f28793a28f30ab6932a12","6790928bebf0b969fc839b02","67982657db3be9841ccafdef","passed","","1600","","","","","","","","","","","","","","f","yesOrNo","","","","10","","","lp","3000","","18","603.4000000000001","215.50214355555383"
"","","","","","html-keyboard-response","97","488882","0.0-16.0-0.18","603f28793a28f30ab6932a12","6790928bebf0b969fc839b02","67982657db3be9841ccafdef","passed","","","","","","","","","","","","","","","","","ballFalling","322.3","356.42114317029973","357.87","4","fallScene","true","","","","19","",""
"","","","","","html-keyboard-response","98","491885","0.0-16.0-1.18","603f28793a28f30ab6932a12","6790928bebf0b969fc839b02","67982657db3be9841ccafdef","passed","","667","","","","","","","","","","","","","","j","yesOrNo","","","","4","","","gt","3000","","19","356.42114317029973","357.87"
"","","","","","html-keyboard-response","99","493444","0.0-16.0-0.19","603f28793a28f30ab6932a12","6790928bebf0b969fc839b02","67982657db3be9841ccafdef","passed","","","","","","","","","","","","","","","","","ballFalling","322.3","356.42114317029973","357.87","4","fallScene","true","","","","20","",""
"","","","","","html-keyboard-response","100","496451","0.0-16.0-1.19","603f28793a28f30ab6932a12","6790928bebf0b969fc839b02","67982657db3be9841ccafdef","passed","","655","","","","","","","","","","","","","","f","yesOrNo","","","","4","","","lp","3000","","20","323.3","297.4070551689986"
"","","","","","html-keyboard-response","101","498458","0.0-16.0-0.20","603f28793a28f30ab6932a12","6790928bebf0b969fc839b02","67982657db3be9841ccafdef","passed","","","","","","","","","","","","","","","","","ballFalling","500","510.8711431702997","369.03","8","fallScene","false","","","","21","",""
"","","","","","html-keyboard-response","102","501466","0.0-16.0-1.20","603f28793a28f30ab6932a12","6790928bebf0b969fc839b02","67982657db3be9841ccafdef","passed","","775","","","","","","","","","","","","","","j","yesOrNo","","","","8","","","mid","3000","","21","501","300"
"","","","","","html-keyboard-response","103","503028","0.0-16.0-0.21","603f28793a28f30ab6932a12","6790928bebf0b969fc839b02","67982657db3be9841ccafdef","passed","","","","","","","","","","","","","","","","","ballFalling","322.3","356.42114317029973","357.87","4","fallScene","false","","","","22","",""
"","","","","","html-keyboard-response","104","506034","0.0-16.0-1.21","603f28793a28f30ab6932a12","6790928bebf0b969fc839b02","67982657db3be9841ccafdef","passed","","791","","","","","","","","","","","","","","f","yesOrNo","","","","4","","","lp","3000","","22","323.3","297.4070551689986"
"","","","","","html-keyboard-response","105","508042","0.0-16.0-0.22","603f28793a28f30ab6932a12","6790928bebf0b969fc839b02","67982657db3be9841ccafdef","passed","","","","","","","","","","","","","","","","","ballFalling","604.4000000000001","596.8711431702998","394.5","10","fallScene","true","","","","23","",""
"","","","","","html-keyboard-response","106","511049","0.0-16.0-1.22","603f28793a28f30ab6932a12","6790928bebf0b969fc839b02","67982657db3be9841ccafdef","passed","","942","","","","","","","","","","","","","","f","yesOrNo","","","","10","","","gt","3000","","23","596.8711431702998","394.5"
"","","","","","html-keyboard-response","107","512610","0.0-16.0-0.23","603f28793a28f30ab6932a12","6790928bebf0b969fc839b02","67982657db3be9841ccafdef","passed","","","","","","","","","","","","","","","","","ballFalling","322.3","356.42114317029973","357.87","4","fallScene","false","","","","24","",""
"","","","","","html-keyboard-response","108","515618","0.0-16.0-1.23","603f28793a28f30ab6932a12","6790928bebf0b969fc839b02","67982657db3be9841ccafdef","passed","","581","","","","","","","","","","","","","","j","yesOrNo","","","","4","","","mid","3000","","24","390.27114317029975","300"
"","","","","","html-keyboard-response","109","521580","0.0-17.0","603f28793a28f30ab6932a12","6790928bebf0b969fc839b02","67982657db3be9841ccafdef","passed","","5961","","","","","","","","","","","","","<p><span style=""font-size:40px;"">BLOCK 2</span></p><p><span style=""font-size:25px;"">You have <b style=""color: #FF644F;""><strong>1 second(s)</strong></b> to respond to the following trials.</span><br></p><p></p> <!-- Blank line -->
                <p id=""blinking-text"" style=""font-weight; animation: blink 2s infinite;"">Press Space to continue</p>
                <style>
                    @keyframes blink {
                        50% {
                            opacity: 0;
                        }
                    }
                </style></p>"," ","","","","","","","","","","","","",""
"","","","","","html-keyboard-response","110","523375","0.0-18.0-0.0","603f28793a28f30ab6932a12","6790928bebf0b969fc839b02","67982657db3be9841ccafdef","passed","","","","","","","","","","","","","","","","","ballFalling","322.3","308.07114317029976","253.89","2","fallScene","false","","","","25","",""
"","","","","","html-keyboard-response","111","524382","0.0-18.0-1.0","603f28793a28f30ab6932a12","6790928bebf0b969fc839b02","67982657db3be9841ccafdef","passed","","908","","","","","","","","","","","","","","f","yesOrNo","","","","2","","","lp","1000","","25","321.3","151"
"","","","","","html-keyboard-response","112","526173","0.0-18.0-0.1","603f28793a28f30ab6932a12","6790928bebf0b969fc839b02","67982657db3be9841ccafdef","passed","","","","","","","","","","","","","","","","","ballFalling","322.3","308.07114317029976","253.89","2","fallScene","true","","","","26","",""
"","","","","","html-keyboard-response","113","527180","0.0-18.0-1.1","603f28793a28f30ab6932a12","6790928bebf0b969fc839b02","67982657db3be9841ccafdef","passed","","642","","","","","","","","","","","","","","j","yesOrNo","","","","2","","","gt","1000","","26","308.07114317029976","253.89"
"","","","","","html-keyboard-response","114","528736","0.0-18.0-0.2","603f28793a28f30ab6932a12","6790928bebf0b969fc839b02","67982657db3be9841ccafdef","passed","","","","","","","","","","","","","","","","","ballFalling","322.3","296.07114317029976","371.46","3","fallScene","false","","","","27","",""
"","","","","","html-keyboard-response","115","529742","0.0-18.0-1.2","603f28793a28f30ab6932a12","6790928bebf0b969fc839b02","67982657db3be9841ccafdef","passed","","441","","","","","","","","","","","","","","j","yesOrNo","","","","3","","","gt","1000","","27","296.07114317029976","371.46"
"","","","","","html-keyboard-response","116","531297","0.0-18.0-0.3","603f28793a28f30ab6932a12","6790928bebf0b969fc839b02","67982657db3be9841ccafdef","passed","","","","","","","","","","","","","","","","","ballFalling","500","453.67114317029973","210.33","5","fallScene","true","","","","28","",""
"","","","","","html-keyboard-response","117","532305","0.0-18.0-1.3","603f28793a28f30ab6932a12","6790928bebf0b969fc839b02","67982657db3be9841ccafdef","passed","","596","","","","","","","","","","","","","","f","yesOrNo","","","","5","","","lp","1000","","28","499","151"
"","","","","","html-keyboard-response","118","534312","0.0-18.0-0.4","603f28793a28f30ab6932a12","6790928bebf0b969fc839b02","67982657db3be9841ccafdef","passed","","","","","","","","","","","","","","","","","ballFalling","500","510.8711431702997","369.03","8","fallScene","true","","","","29","",""
"","","","","","html-keyboard-response","119","535320","0.0-18.0-1.4","603f28793a28f30ab6932a12","6790928bebf0b969fc839b02","67982657db3be9841ccafdef","passed","","711","","","","","","","","","","","","","","f","yesOrNo","","","","8","","","lp","1000","","29","501","151"
"","","","","","html-keyboard-response","120","537333","0.0-18.0-0.5","603f28793a28f30ab6932a12","6790928bebf0b969fc839b02","67982657db3be9841ccafdef","passed","","","","","","","","","","","","","","","","","ballFalling","604.4000000000001","596.8711431702998","394.5","10","fallScene","true","","","","30","",""
"","","","","","html-keyboard-response","121","538340","0.0-18.0-1.5","603f28793a28f30ab6932a12","6790928bebf0b969fc839b02","67982657db3be9841ccafdef","passed","","672","","","","","","","","","","","","","","f","yesOrNo","","","","10","","","mid","1000","","30","536.4288568297004","300"
"","","","","","html-keyboard-response","122","540007","0.0-18.0-0.6","603f28793a28f30ab6932a12","6790928bebf0b969fc839b02","67982657db3be9841ccafdef","passed","","","","","","","","","","","","","","","","","ballFalling","500","479.92114317029973","330.87","6","fallScene","true","","","","31","",""
"","","","","","html-keyboard-response","123","541014","0.0-18.0-1.6","603f28793a28f30ab6932a12","6790928bebf0b969fc839b02","67982657db3be9841ccafdef","passed","","959","","","","","","","","","","","","","","j","yesOrNo","","","","6","","","mid","1000","","31","499","300"
"","","","","","html-keyboard-response","124","542805","0.0-18.0-0.7","603f28793a28f30ab6932a12","6790928bebf0b969fc839b02","67982657db3be9841ccafdef","passed","","","","","","","","","","","","","","","","","ballFalling","322.3","308.07114317029976","253.89","2","fallScene","true","","","","32","",""
"","","","","","html-keyboard-response","125","543811","0.0-18.0-1.7","603f28793a28f30ab6932a12","6790928bebf0b969fc839b02","67982657db3be9841ccafdef","passed","","745","","","","","","","","","","","","","","f","yesOrNo","","","","2","","","mid","1000","","32","321.3","300"
"","","","","","html-keyboard-response","126","545368","0.0-18.0-0.8","603f28793a28f30ab6932a12","6790928bebf0b969fc839b02","67982657db3be9841ccafdef","passed","","","","","","","","","","","","","","","","","ballFalling","604.4000000000001","650.0211431702996","404.58000000000004","11","fallScene","false","","","","33","",""
"","","","","","html-keyboard-response","127","546376","0.0-18.0-1.8","603f28793a28f30ab6932a12","6790928bebf0b969fc839b02","67982657db3be9841ccafdef","passed","","null","","","","","","","","","","","","","","null","yesOrNo","","","","11","","","mid","1000","","33","605.4000000000001","300"
"","","","","","html-keyboard-response","128","548386","0.0-18.0-0.9","603f28793a28f30ab6932a12","6790928bebf0b969fc839b02","67982657db3be9841ccafdef","passed","","","","","","","","","","","","","","","","","ballFalling","604.4000000000001","596.8711431702998","394.5","10","fallScene","false","","","","34","",""
"","","","","","html-keyboard-response","129","549389","0.0-18.0-1.9","603f28793a28f30ab6932a12","6790928bebf0b969fc839b02","67982657db3be9841ccafdef","passed","","null","","","","","","","","","","","","","","null","yesOrNo","","","","10","","","lp","1000","","34","603.4000000000001","215.50214355555383"
"","","","","","html-keyboard-response","130","550944","0.0-18.0-0.10","603f28793a28f30ab6932a12","6790928bebf0b969fc839b02","67982657db3be9841ccafdef","passed","","","","","","","","","","","","","","","","","ballFalling","604.4000000000001","575.4211431702997","266.76","12","fallScene","true","","","","35","",""
"","","","","","html-keyboard-response","131","551951","0.0-18.0-1.10","603f28793a28f30ab6932a12","6790928bebf0b969fc839b02","67982657db3be9841ccafdef","passed","","202","","","","","","","","","","","","","","f","yesOrNo","","","","12","","","lp","1000","","35","603.4000000000001","151"
"","","","","","html-keyboard-response","132","553443","0.0-18.0-0.11","603f28793a28f30ab6932a12","6790928bebf0b969fc839b02","67982657db3be9841ccafdef","passed","","","","","","","","","","","","","","","","","ballFalling","604.4000000000001","667.6211431702998","201.78","9","fallScene","true","","","","36","",""
"","","","","","html-keyboard-response","133","554452","0.0-18.0-1.11","603f28793a28f30ab6932a12","6790928bebf0b969fc839b02","67982657db3be9841ccafdef","passed","","492","","","","","","","","","","","","","","j","yesOrNo","","","","9","","","lp","1000","","36","605.4000000000001","151"
"","","","","","html-keyboard-response","134","556014","0.0-18.0-0.12","603f28793a28f30ab6932a12","6790928bebf0b969fc839b02","67982657db3be9841ccafdef","passed","","","","","","","","","","","","","","","","","ballFalling","322.3","379.3711431702997","245.25","1","fallScene","true","","","","37","",""
"","","","","","html-keyboard-response","135","557021","0.0-18.0-1.12","603f28793a28f30ab6932a12","6790928bebf0b969fc839b02","67982657db3be9841ccafdef","passed","","777","","","","","","","","","","","","","","f","yesOrNo","","","","1","","","lp","1000","","37","323.3","217.74551669457017"
"","","","","","html-keyboard-response","136","559028","0.0-18.0-0.13","603f28793a28f30ab6932a12","6790928bebf0b969fc839b02","67982657db3be9841ccafdef","passed","","","","","","","","","","","","","","","","","ballFalling","500","510.8711431702997","369.03","8","fallScene","false","","","","38","",""
"","","","","","html-keyboard-response","137","560035","0.0-18.0-1.13","603f28793a28f30ab6932a12","6790928bebf0b969fc839b02","67982657db3be9841ccafdef","passed","","null","","","","","","","","","","","","","","null","yesOrNo","","","","8","","","gt","1000","","38","510.8711431702997","369.03"
"","","","","","html-keyboard-response","138","561590","0.0-18.0-0.14","603f28793a28f30ab6932a12","6790928bebf0b969fc839b02","67982657db3be9841ccafdef","passed","","","","","","","","","","","","","","","","","ballFalling","322.3","379.3711431702997","245.25","1","fallScene","false","","","","39","",""
"","","","","","html-keyboard-response","139","562597","0.0-18.0-1.14","603f28793a28f30ab6932a12","6790928bebf0b969fc839b02","67982657db3be9841ccafdef","passed","","null","","","","","","","","","","","","","","null","yesOrNo","","","","1","","","mid","1000","","39","390.27114317029975","300"
"","","","","","html-keyboard-response","140","564153","0.0-18.0-0.15","603f28793a28f30ab6932a12","6790928bebf0b969fc839b02","67982657db3be9841ccafdef","passed","","","","","","","","","","","","","","","","","ballFalling","500","453.67114317029973","210.33","5","fallScene","false","","","","40","",""
"","","","","","html-keyboard-response","141","565157","0.0-18.0-1.15","603f28793a28f30ab6932a12","6790928bebf0b969fc839b02","67982657db3be9841ccafdef","passed","","854","","","","","","","","","","","","","","f","yesOrNo","","","","5","","","gt","1000","","40","453.6711431702998","210.33"
"","","","","","html-keyboard-response","142","566716","0.0-18.0-0.16","603f28793a28f30ab6932a12","6790928bebf0b969fc839b02","67982657db3be9841ccafdef","passed","","","","","","","","","","","","","","","","","ballFalling","604.4000000000001","575.4211431702997","266.76","12","fallScene","false","","","","41","",""
"","","","","","html-keyboard-response","143","567719","0.0-18.0-1.16","603f28793a28f30ab6932a12","6790928bebf0b969fc839b02","67982657db3be9841ccafdef","passed","","717","","","","","","","","","","","","","","f","yesOrNo","","","","12","","","gt","1000","","41","575.4211431702997","266.76"
"","","","","","html-keyboard-response","144","569382","0.0-18.0-0.17","603f28793a28f30ab6932a12","6790928bebf0b969fc839b02","67982657db3be9841ccafdef","passed","","","","","","","","","","","","","","","","","ballFalling","500","479.92114317029973","330.87","6","fallScene","false","","","","42","",""
"","","","","","html-keyboard-response","145","570390","0.0-18.0-1.17","603f28793a28f30ab6932a12","6790928bebf0b969fc839b02","67982657db3be9841ccafdef","passed","","855","","","","","","","","","","","","","","j","yesOrNo","","","","6","","","gt","1000","","42","479.9211431702998","330.87"
"","","","","","html-keyboard-response","146","571952","0.0-18.0-0.18","603f28793a28f30ab6932a12","6790928bebf0b969fc839b02","67982657db3be9841ccafdef","passed","","","","","","","","","","","","","","","","","ballFalling","500","453.67114317029973","210.33","5","fallScene","false","","","","43","",""
"","","","","","html-keyboard-response","147","572954","0.0-18.0-1.18","603f28793a28f30ab6932a12","6790928bebf0b969fc839b02","67982657db3be9841ccafdef","passed","","759","","","","","","","","","","","","","","f","yesOrNo","","","","5","","","mid","1000","","43","499","300"
"","","","","","html-keyboard-response","148","574514","0.0-18.0-0.19","603f28793a28f30ab6932a12","6790928bebf0b969fc839b02","67982657db3be9841ccafdef","passed","","","","","","","","","","","","","","","","","ballFalling","322.3","296.07114317029976","371.46","3","fallScene","false","","","","44","",""
"","","","","","html-keyboard-response","149","575521","0.0-18.0-1.19","603f28793a28f30ab6932a12","6790928bebf0b969fc839b02","67982657db3be9841ccafdef","passed","","null","","","","","","","","","","","","","","null","yesOrNo","","","","3","","","gt","1000","","44","296.07114317029976","371.46"
"","","","","","html-keyboard-response","150","577081","0.0-18.0-0.20","603f28793a28f30ab6932a12","6790928bebf0b969fc839b02","67982657db3be9841ccafdef","passed","","","","","","","","","","","","","","","","","ballFalling","604.4000000000001","650.0211431702996","404.58000000000004","11","fallScene","true","","","","45","",""
"","","","","","html-keyboard-response","151","578083","0.0-18.0-1.20","603f28793a28f30ab6932a12","6790928bebf0b969fc839b02","67982657db3be9841ccafdef","passed","","529","","","","","","","","","","","","","","j","yesOrNo","","","","11","","","lp","1000","","45","605.4000000000001","372.6340973215488"
"","","","","","html-keyboard-response","152","579660","0.0-18.0-0.21","603f28793a28f30ab6932a12","6790928bebf0b969fc839b02","67982657db3be9841ccafdef","passed","","","","","","","","","","","","","","","","","ballFalling","500","553.4711431702997","282.51","7","fallScene","true","","","","46","",""
"","","","","","html-keyboard-response","153","580667","0.0-18.0-1.21","603f28793a28f30ab6932a12","6790928bebf0b969fc839b02","67982657db3be9841ccafdef","passed","","666","","","","","","","","","","","","","","j","yesOrNo","","","","7","","","mid","1000","","46","501","300"
"","","","","","html-keyboard-response","154","582681","0.0-18.0-0.22","603f28793a28f30ab6932a12","6790928bebf0b969fc839b02","67982657db3be9841ccafdef","passed","","","","","","","","","","","","","","","","","ballFalling","500","510.8711431702997","369.03","8","fallScene","false","","","","47","",""
"","","","","","html-keyboard-response","155","583689","0.0-18.0-1.22","603f28793a28f30ab6932a12","6790928bebf0b969fc839b02","67982657db3be9841ccafdef","passed","","null","","","","","","","","","","","","","","null","yesOrNo","","","","8","","","mid","1000","","47","501","300"
"","","","","","html-keyboard-response","156","585250","0.0-18.0-0.23","603f28793a28f30ab6932a12","6790928bebf0b969fc839b02","67982657db3be9841ccafdef","passed","","","","","","","","","","","","","","","","","ballFalling","322.3","379.3711431702997","245.25","1","fallScene","false","","","","48","",""
"","","","","","html-keyboard-response","157","586258","0.0-18.0-1.23","603f28793a28f30ab6932a12","6790928bebf0b969fc839b02","67982657db3be9841ccafdef","passed","","888","","","","","","","","","","","","","","f","yesOrNo","","","","1","","","mid","1000","","48","390.27114317029975","300"
"","","","","","html-keyboard-response","158","592439","0.0-19.0","603f28793a28f30ab6932a12","6790928bebf0b969fc839b02","67982657db3be9841ccafdef","passed","","6180","","","","","","","","","","","","","<p><span style=""font-size:40px;"">BLOCK 3</span></p><p><span style=""font-size:25px;"">You have <b style=""color: #FF644F;""><strong>1 second(s)</strong></b> to respond to the following trials.</span><br></p><p></p> <!-- Blank line -->
                <p id=""blinking-text"" style=""font-weight; animation: blink 2s infinite;"">Press Space to continue</p>
                <style>
                    @keyframes blink {
                        50% {
                            opacity: 0;
                        }
                    }
                </style></p>"," ","","","","","","","","","","","","",""
"","","","","","html-keyboard-response","159","594021","0.0-20.0-0.0","603f28793a28f30ab6932a12","6790928bebf0b969fc839b02","67982657db3be9841ccafdef","passed","","","","","","","","","","","","","","","","","ballFalling","500","553.4711431702997","282.51","7","fallScene","true","","","","49","",""
"","","","","","html-keyboard-response","160","595028","0.0-20.0-1.0","603f28793a28f30ab6932a12","6790928bebf0b969fc839b02","67982657db3be9841ccafdef","passed","","511","","","","","","","","","","","","","","f","yesOrNo","","","","7","","","gt","1000","","49","553.4711431702997","282.51"
"","","","","","html-keyboard-response","161","596584","0.0-20.0-0.1","603f28793a28f30ab6932a12","6790928bebf0b969fc839b02","67982657db3be9841ccafdef","passed","","","","","","","","","","","","","","","","","ballFalling","604.4000000000001","575.4211431702997","266.76","12","fallScene","true","","","","50","",""
"","","","","","html-keyboard-response","162","597591","0.0-20.0-1.1","603f28793a28f30ab6932a12","6790928bebf0b969fc839b02","67982657db3be9841ccafdef","passed","","747","","","","","","","","","","","","","","j","yesOrNo","","","","12","","","mid","1000","","50","536.4288568297004","300"
"","","","","","html-keyboard-response","163","599154","0.0-20.0-0.2","603f28793a28f30ab6932a12","6790928bebf0b969fc839b02","67982657db3be9841ccafdef","passed","","","","","","","","","","","","","","","","","ballFalling","604.4000000000001","575.4211431702997","266.76","12","fallScene","true","","","","51","",""
"","","","","","html-keyboard-response","164","600159","0.0-20.0-1.2","603f28793a28f30ab6932a12","6790928bebf0b969fc839b02","67982657db3be9841ccafdef","passed","","988","","","","","","","","","","","","","","j","yesOrNo","","","","12","","","gt","1000","","51","575.4211431702997","266.76"
"","","","","","html-keyboard-response","165","601647","0.0-20.0-0.3","603f28793a28f30ab6932a12","6790928bebf0b969fc839b02","67982657db3be9841ccafdef","passed","","","","","","","","","","","","","","","","","ballFalling","604.4000000000001","667.6211431702998","201.78","9","fallScene","false","","","","52","",""
"","","","","","html-keyboard-response","166","602653","0.0-20.0-1.3","603f28793a28f30ab6932a12","6790928bebf0b969fc839b02","67982657db3be9841ccafdef","passed","","668","","","","","","","","","","","","","","j","yesOrNo","","","","9","","","mid","1000","","52","605.4000000000001","300"
"","","","","","html-keyboard-response","167","604313","0.0-20.0-0.4","603f28793a28f30ab6932a12","6790928bebf0b969fc839b02","67982657db3be9841ccafdef","passed","","","","","","","","","","","","","","","","","ballFalling","500","479.92114317029973","330.87","6","fallScene","false","","","","53","",""
"","","","","","html-keyboard-response","168","605320","0.0-20.0-1.4","603f28793a28f30ab6932a12","6790928bebf0b969fc839b02","67982657db3be9841ccafdef","passed","","591","","","","","","","","","","","","","","j","yesOrNo","","","","6","","","lp","1000","","53","499","189.92909825697632"
"","","","","","html-keyboard-response","169","607118","0.0-20.0-0.5","603f28793a28f30ab6932a12","6790928bebf0b969fc839b02","67982657db3be9841ccafdef","passed","","","","","","","","","","","","","","","","","ballFalling","322.3","308.07114317029976","253.89","2","fallScene","true","","","","54","",""
"","","","","","html-keyboard-response","170","608126","0.0-20.0-1.5","603f28793a28f30ab6932a12","6790928bebf0b969fc839b02","67982657db3be9841ccafdef","passed","","885","","","","","","","","","","","","","","f","yesOrNo","","","","2","","","gt","1000","","54","308.07114317029976","253.89"
"","","","","","html-keyboard-response","171","609688","0.0-20.0-0.6","603f28793a28f30ab6932a12","6790928bebf0b969fc839b02","67982657db3be9841ccafdef","passed","","","","","","","","","","","","","","","","","ballFalling","500","453.67114317029973","210.33","5","fallScene","true","","","","55","",""
"","","","","","html-keyboard-response","172","610696","0.0-20.0-1.6","603f28793a28f30ab6932a12","6790928bebf0b969fc839b02","67982657db3be9841ccafdef","passed","","658","","","","","","","","","","","","","","j","yesOrNo","","","","5","","","mid","1000","","55","499","300"
"","","","","","html-keyboard-response","173","612264","0.0-20.0-0.7","603f28793a28f30ab6932a12","6790928bebf0b969fc839b02","67982657db3be9841ccafdef","passed","","","","","","","","","","","","","","","","","ballFalling","322.3","356.42114317029973","357.87","4","fallScene","true","","","","56","",""
"","","","","","html-keyboard-response","174","613272","0.0-20.0-1.7","603f28793a28f30ab6932a12","6790928bebf0b969fc839b02","67982657db3be9841ccafdef","passed","","479","","","","","","","","","","","","","","j","yesOrNo","","","","4","","","mid","1000","","56","390.27114317029975","300"
"","","","","","html-keyboard-response","175","614936","0.0-20.0-0.8","603f28793a28f30ab6932a12","6790928bebf0b969fc839b02","67982657db3be9841ccafdef","passed","","","","","","","","","","","","","","","","","ballFalling","500","479.92114317029973","330.87","6","fallScene","true","","","","57","",""
"","","","","","html-keyboard-response","176","615939","0.0-20.0-1.8","603f28793a28f30ab6932a12","6790928bebf0b969fc839b02","67982657db3be9841ccafdef","passed","","860","","","","","","","","","","","","","","f","yesOrNo","","","","6","","","lp","1000","","57","499","189.92909825697632"
"","","","","","html-keyboard-response","177","617500","0.0-20.0-0.9","603f28793a28f30ab6932a12","6790928bebf0b969fc839b02","67982657db3be9841ccafdef","passed","","","","","","","","","","","","","","","","","ballFalling","322.3","296.07114317029976","371.46","3","fallScene","false","","","","58","",""
"","","","","","html-keyboard-response","178","618507","0.0-20.0-1.9","603f28793a28f30ab6932a12","6790928bebf0b969fc839b02","67982657db3be9841ccafdef","passed","","821","","","","","","","","","","","","","","j","yesOrNo","","","","3","","","lp","1000","","58","321.3","287.3327096511259"
"","","","","","html-keyboard-response","179","620515","0.0-20.0-0.10","603f28793a28f30ab6932a12","6790928bebf0b969fc839b02","67982657db3be9841ccafdef","passed","","","","","","","","","","","","","","","","","ballFalling","604.4000000000001","596.8711431702998","394.5","10","fallScene","true","","","","59","",""
"","","","","","html-keyboard-response","180","621521","0.0-20.0-1.10","603f28793a28f30ab6932a12","6790928bebf0b969fc839b02","67982657db3be9841ccafdef","passed","","760","","","","","","","","","","","","","","j","yesOrNo","","","","10","","","gt","1000","","59","596.8711431702998","394.5"
"","","","","","html-keyboard-response","181","623007","0.0-20.0-0.11","603f28793a28f30ab6932a12","6790928bebf0b969fc839b02","67982657db3be9841ccafdef","passed","","","","","","","","","","","","","","","","","ballFalling","604.4000000000001","667.6211431702998","201.78","9","fallScene","false","","","","60","",""
"","","","","","html-keyboard-response","182","624010","0.0-20.0-1.11","603f28793a28f30ab6932a12","6790928bebf0b969fc839b02","67982657db3be9841ccafdef","passed","","908","","","","","","","","","","","","","","f","yesOrNo","","","","9","","","gt","1000","","60","667.6211431702998","201.78"
"","","","","","html-keyboard-response","183","625570","0.0-20.0-0.12","603f28793a28f30ab6932a12","6790928bebf0b969fc839b02","67982657db3be9841ccafdef","passed","","","","","","","","","","","","","","","","","ballFalling","604.4000000000001","650.0211431702996","404.58000000000004","11","fallScene","true","","","","61","",""
"","","","","","html-keyboard-response","184","626577","0.0-20.0-1.12","603f28793a28f30ab6932a12","6790928bebf0b969fc839b02","67982657db3be9841ccafdef","passed","","832","","","","","","","","","","","","","","j","yesOrNo","","","","11","","","gt","1000","","61","650.0211431702996","404.58"
"","","","","","html-keyboard-response","185","628131","0.0-20.0-0.13","603f28793a28f30ab6932a12","6790928bebf0b969fc839b02","67982657db3be9841ccafdef","passed","","","","","","","","","","","","","","","","","ballFalling","604.4000000000001","650.0211431702996","404.58000000000004","11","fallScene","true","","","","62","",""
"","","","","","html-keyboard-response","186","629139","0.0-20.0-1.13","603f28793a28f30ab6932a12","6790928bebf0b969fc839b02","67982657db3be9841ccafdef","passed","","426","","","","","","","","","","","","","","j","yesOrNo","","","","11","","","lp","1000","","62","605.4000000000001","372.6340973215488"
"","","","","","html-keyboard-response","187","630695","0.0-20.0-0.14","603f28793a28f30ab6932a12","6790928bebf0b969fc839b02","67982657db3be9841ccafdef","passed","","","","","","","","","","","","","","","","","ballFalling","604.4000000000001","575.4211431702997","266.76","12","fallScene","true","","","","63","",""
"","","","","","html-keyboard-response","188","631702","0.0-20.0-1.14","603f28793a28f30ab6932a12","6790928bebf0b969fc839b02","67982657db3be9841ccafdef","passed","","657","","","","","","","","","","","","","","f","yesOrNo","","","","12","","","mid","1000","","63","536.4288568297004","300"
"","","","","","html-keyboard-response","189","633278","0.0-20.0-0.15","603f28793a28f30ab6932a12","6790928bebf0b969fc839b02","67982657db3be9841ccafdef","passed","","","","","","","","","","","","","","","","","ballFalling","500","553.4711431702997","282.51","7","fallScene","true","","","","64","",""
"","","","","","html-keyboard-response","190","634286","0.0-20.0-1.15","603f28793a28f30ab6932a12","6790928bebf0b969fc839b02","67982657db3be9841ccafdef","passed","","773","","","","","","","","","","","","","","f","yesOrNo","","","","7","","","gt","1000","","64","553.4711431702997","282.51"
"","","","","","html-keyboard-response","191","636084","0.0-20.0-0.16","603f28793a28f30ab6932a12","6790928bebf0b969fc839b02","67982657db3be9841ccafdef","passed","","","","","","","","","","","","","","","","","ballFalling","322.3","308.07114317029976","253.89","2","fallScene","false","","","","65","",""
"","","","","","html-keyboard-response","192","637091","0.0-20.0-1.16","603f28793a28f30ab6932a12","6790928bebf0b969fc839b02","67982657db3be9841ccafdef","passed","","793","","","","","","","","","","","","","","j","yesOrNo","","","","2","","","lp","1000","","65","321.3","151"
"","","","","","html-keyboard-response","193","638757","0.0-20.0-0.17","603f28793a28f30ab6932a12","6790928bebf0b969fc839b02","67982657db3be9841ccafdef","passed","","","","","","","","","","","","","","","","","ballFalling","500","479.92114317029973","330.87","6","fallScene","false","","","","66","",""
"","","","","","html-keyboard-response","194","639765","0.0-20.0-1.17","603f28793a28f30ab6932a12","6790928bebf0b969fc839b02","67982657db3be9841ccafdef","passed","","780","","","","","","","","","","","","","","j","yesOrNo","","","","6","","","mid","1000","","66","499","300"
"","","","","","html-keyboard-response","195","641327","0.0-20.0-0.18","603f28793a28f30ab6932a12","6790928bebf0b969fc839b02","67982657db3be9841ccafdef","passed","","","","","","","","","","","","","","","","","ballFalling","322.3","379.3711431702997","245.25","1","fallScene","true","","","","67","",""
"","","","","","html-keyboard-response","196","642334","0.0-20.0-1.18","603f28793a28f30ab6932a12","6790928bebf0b969fc839b02","67982657db3be9841ccafdef","passed","","511","","","","","","","","","","","","","","j","yesOrNo","","","","1","","","gt","1000","","67","379.3711431702997","245.25"
"","","","","","html-keyboard-response","197","643911","0.0-20.0-0.19","603f28793a28f30ab6932a12","6790928bebf0b969fc839b02","67982657db3be9841ccafdef","passed","","","","","","","","","","","","","","","","","ballFalling","500","553.4711431702997","282.51","7","fallScene","false","","","","68","",""
"","","","","","html-keyboard-response","198","644918","0.0-20.0-1.19","603f28793a28f30ab6932a12","6790928bebf0b969fc839b02","67982657db3be9841ccafdef","passed","","849","","","","","","","","","","","","","","f","yesOrNo","","","","7","","","lp","1000","","68","501","227.2843295913261"
"","","","","","html-keyboard-response","199","646931","0.0-20.0-0.20","603f28793a28f30ab6932a12","6790928bebf0b969fc839b02","67982657db3be9841ccafdef","passed","","","","","","","","","","","","","","","","","ballFalling","500","510.8711431702997","369.03","8","fallScene","false","","","","69","",""
"","","","","","html-keyboard-response","200","647938","0.0-20.0-1.20","603f28793a28f30ab6932a12","6790928bebf0b969fc839b02","67982657db3be9841ccafdef","passed","","509","","","","","","","","","","","","","","f","yesOrNo","","","","8","","","mid","1000","","69","501","300"
"","","","","","html-keyboard-response","201","649494","0.0-20.0-0.21","603f28793a28f30ab6932a12","6790928bebf0b969fc839b02","67982657db3be9841ccafdef","passed","","","","","","","","","","","","","","","","","ballFalling","604.4000000000001","650.0211431702996","404.58000000000004","11","fallScene","false","","","","70","",""
"","","","","","html-keyboard-response","202","650500","0.0-20.0-1.21","603f28793a28f30ab6932a12","6790928bebf0b969fc839b02","67982657db3be9841ccafdef","passed","","599","","","","","","","","","","","","","","j","yesOrNo","","","","11","","","gt","1000","","70","650.0211431702996","404.58"
"","","","","","html-keyboard-response","203","652057","0.0-20.0-0.22","603f28793a28f30ab6932a12","6790928bebf0b969fc839b02","67982657db3be9841ccafdef","passed","","","","","","","","","","","","","","","","","ballFalling","500","453.67114317029973","210.33","5","fallScene","false","","","","71","",""
"","","","","","html-keyboard-response","204","653064","0.0-20.0-1.22","603f28793a28f30ab6932a12","6790928bebf0b969fc839b02","67982657db3be9841ccafdef","passed","","706","","","","","","","","","","","","","","f","yesOrNo","","","","5","","","gt","1000","","71","453.6711431702998","210.33"
"","","","","","html-keyboard-response","205","654624","0.0-20.0-0.23","603f28793a28f30ab6932a12","6790928bebf0b969fc839b02","67982657db3be9841ccafdef","passed","","","","","","","","","","","","","","","","","ballFalling","322.3","356.42114317029973","357.87","4","fallScene","false","","","","72","",""
"","","","","","html-keyboard-response","206","655627","0.0-20.0-1.23","603f28793a28f30ab6932a12","6790928bebf0b969fc839b02","67982657db3be9841ccafdef","passed","","773","","","","","","","","","","","","","","j","yesOrNo","","","","4","","","gt","1000","","72","356.42114317029973","357.87"
"","","","","","html-keyboard-response","207","657975","0.0-21.0","603f28793a28f30ab6932a12","6790928bebf0b969fc839b02","67982657db3be9841ccafdef","passed","","2347","","","","","","","","","","","","","<p><span style=""font-size:40px;"">BLOCK 4</span></p><p><span style=""font-size:25px;"">You have <b style=""color: #FF644F;""><strong>1 second(s)</strong></b> to respond to the following trials.</span><br></p><p></p> <!-- Blank line -->
                <p id=""blinking-text"" style=""font-weight; animation: blink 2s infinite;"">Press Space to continue</p>
                <style>
                    @keyframes blink {
                        50% {
                            opacity: 0;
                        }
                    }
                </style></p>"," ","","","","","","","","","","","","",""
"","","","","","html-keyboard-response","208","659987","0.0-22.0-0.0","603f28793a28f30ab6932a12","6790928bebf0b969fc839b02","67982657db3be9841ccafdef","passed","","","","","","","","","","","","","","","","","ballFalling","604.4000000000001","596.8711431702998","394.5","10","fallScene","false","","","","73","",""
"","","","","","html-keyboard-response","209","660993","0.0-22.0-1.0","603f28793a28f30ab6932a12","6790928bebf0b969fc839b02","67982657db3be9841ccafdef","passed","","544","","","","","","","","","","","","","","f","yesOrNo","","","","10","","","lp","1000","","73","603.4000000000001","215.50214355555383"
"","","","","","html-keyboard-response","210","662487","0.0-22.0-0.1","603f28793a28f30ab6932a12","6790928bebf0b969fc839b02","67982657db3be9841ccafdef","passed","","","","","","","","","","","","","","","","","ballFalling","604.4000000000001","667.6211431702998","201.78","9","fallScene","false","","","","74","",""
"","","","","","html-keyboard-response","211","663494","0.0-22.0-1.1","603f28793a28f30ab6932a12","6790928bebf0b969fc839b02","67982657db3be9841ccafdef","passed","","525","","","","","","","","","","","","","","j","yesOrNo","","","","9","","","mid","1000","","74","605.4000000000001","300"
"","","","","","html-keyboard-response","212","665508","0.0-22.0-0.2","603f28793a28f30ab6932a12","6790928bebf0b969fc839b02","67982657db3be9841ccafdef","passed","","","","","","","","","","","","","","","","","ballFalling","500","510.8711431702997","369.03","8","fallScene","false","","","","75","",""
"","","","","","html-keyboard-response","213","666514","0.0-22.0-1.2","603f28793a28f30ab6932a12","6790928bebf0b969fc839b02","67982657db3be9841ccafdef","passed","","768","","","","","","","","","","","","","","f","yesOrNo","","","","8","","","gt","1000","","75","510.8711431702997","369.03"
"","","","","","html-keyboard-response","214","668070","0.0-22.0-0.3","603f28793a28f30ab6932a12","6790928bebf0b969fc839b02","67982657db3be9841ccafdef","passed","","","","","","","","","","","","","","","","","ballFalling","322.3","296.07114317029976","371.46","3","fallScene","true","","","","76","",""
"","","","","","html-keyboard-response","215","669077","0.0-22.0-1.3","603f28793a28f30ab6932a12","6790928bebf0b969fc839b02","67982657db3be9841ccafdef","passed","","993","","","","","","","","","","","","","","f","yesOrNo","","","","3","","","lp","1000","","76","321.3","287.3327096511259"
"","","","","","html-keyboard-response","216","670633","0.0-22.0-0.4","603f28793a28f30ab6932a12","6790928bebf0b969fc839b02","67982657db3be9841ccafdef","passed","","","","","","","","","","","","","","","","","ballFalling","322.3","296.07114317029976","371.46","3","fallScene","true","","","","77","",""
"","","","","","html-keyboard-response","217","671640","0.0-22.0-1.4","603f28793a28f30ab6932a12","6790928bebf0b969fc839b02","67982657db3be9841ccafdef","passed","","737","","","","","","","","","","","","","","f","yesOrNo","","","","3","","","mid","1000","","77","321.3","300"
"","","","","","html-keyboard-response","218","673202","0.0-22.0-0.5","603f28793a28f30ab6932a12","6790928bebf0b969fc839b02","67982657db3be9841ccafdef","passed","","","","","","","","","","","","","","","","","ballFalling","322.3","356.42114317029973","357.87","4","fallScene","false","","","","78","",""
"","","","","","html-keyboard-response","219","674204","0.0-22.0-1.5","603f28793a28f30ab6932a12","6790928bebf0b969fc839b02","67982657db3be9841ccafdef","passed","","null","","","","","","","","","","","","","","null","yesOrNo","","","","4","","","lp","1000","","78","323.3","297.4070551689986"
"","","","","","html-keyboard-response","220","676216","0.0-22.0-0.6","603f28793a28f30ab6932a12","6790928bebf0b969fc839b02","67982657db3be9841ccafdef","passed","","","","","","","","","","","","","","","","","ballFalling","604.4000000000001","596.8711431702998","394.5","10","fallScene","true","","","","79","",""
"","","","","","html-keyboard-response","221","677219","0.0-22.0-1.6","603f28793a28f30ab6932a12","6790928bebf0b969fc839b02","67982657db3be9841ccafdef","passed","","725","","","","","","","","","","","","","","j","yesOrNo","","","","10","","","gt","1000","","79","596.8711431702998","394.5"
"","","","","","html-keyboard-response","222","678800","0.0-22.0-0.7","603f28793a28f30ab6932a12","6790928bebf0b969fc839b02","67982657db3be9841ccafdef","passed","","","","","","","","","","","","","","","","","ballFalling","500","553.4711431702997","282.51","7","fallScene","true","","","","80","",""
"","","","","","html-keyboard-response","223","679807","0.0-22.0-1.7","603f28793a28f30ab6932a12","6790928bebf0b969fc839b02","67982657db3be9841ccafdef","passed","","null","","","","","","","","","","","","","","null","yesOrNo","","","","7","","","lp","1000","","80","501","227.2843295913261"
"","","","","","html-keyboard-response","224","681369","0.0-22.0-0.8","603f28793a28f30ab6932a12","6790928bebf0b969fc839b02","67982657db3be9841ccafdef","passed","","","","","","","","","","","","","","","","","ballFalling","322.3","356.42114317029973","357.87","4","fallScene","true","","","","81","",""
"","","","","","html-keyboard-response","225","682375","0.0-22.0-1.8","603f28793a28f30ab6932a12","6790928bebf0b969fc839b02","67982657db3be9841ccafdef","passed","","307","","","","","","","","","","","","","","j","yesOrNo","","","","4","","","lp","1000","","81","323.3","297.4070551689986"
"","","","","","html-keyboard-response","226","683931","0.0-22.0-0.9","603f28793a28f30ab6932a12","6790928bebf0b969fc839b02","67982657db3be9841ccafdef","passed","","","","","","","","","","","","","","","","","ballFalling","322.3","379.3711431702997","245.25","1","fallScene","false","","","","82","",""
"","","","","","html-keyboard-response","227","684933","0.0-22.0-1.9","603f28793a28f30ab6932a12","6790928bebf0b969fc839b02","67982657db3be9841ccafdef","passed","","538","","","","","","","","","","","","","","j","yesOrNo","","","","1","","","gt","1000","","82","379.3711431702997","245.25"
"","","","","","html-keyboard-response","228","686431","0.0-22.0-0.10","603f28793a28f30ab6932a12","6790928bebf0b969fc839b02","67982657db3be9841ccafdef","passed","","","","","","","","","","","","","","","","","ballFalling","604.4000000000001","667.6211431702998","201.78","9","fallScene","true","","","","83","",""
"","","","","","html-keyboard-response","229","687438","0.0-22.0-1.10","603f28793a28f30ab6932a12","6790928bebf0b969fc839b02","67982657db3be9841ccafdef","passed","","585","","","","","","","","","","","","","","f","yesOrNo","","","","9","","","lp","1000","","83","605.4000000000001","151"
"","","","","","html-keyboard-response","230","688931","0.0-22.0-0.11","603f28793a28f30ab6932a12","6790928bebf0b969fc839b02","67982657db3be9841ccafdef","passed","","","","","","","","","","","","","","","","","ballFalling","604.4000000000001","667.6211431702998","201.78","9","fallScene","true","","","","84","",""
"","","","","","html-keyboard-response","231","689939","0.0-22.0-1.11","603f28793a28f30ab6932a12","6790928bebf0b969fc839b02","67982657db3be9841ccafdef","passed","","957","","","","","","","","","","","","","","j","yesOrNo","","","","9","","","gt","1000","","84","667.6211431702998","201.78"
"","","","","","html-keyboard-response","232","691499","0.0-22.0-0.12","603f28793a28f30ab6932a12","6790928bebf0b969fc839b02","67982657db3be9841ccafdef","passed","","","","","","","","","","","","","","","","","ballFalling","322.3","356.42114317029973","357.87","4","fallScene","false","","","","85","",""
"","","","","","html-keyboard-response","233","692502","0.0-22.0-1.12","603f28793a28f30ab6932a12","6790928bebf0b969fc839b02","67982657db3be9841ccafdef","passed","","699","","","","","","","","","","","","","","j","yesOrNo","","","","4","","","gt","1000","","85","356.42114317029973","357.87"
"","","","","","html-keyboard-response","234","694515","0.0-22.0-0.13","603f28793a28f30ab6932a12","6790928bebf0b969fc839b02","67982657db3be9841ccafdef","passed","","","","","","","","","","","","","","","","","ballFalling","604.4000000000001","596.8711431702998","394.5","10","fallScene","true","","","","86","",""
"","","","","","html-keyboard-response","235","695522","0.0-22.0-1.13","603f28793a28f30ab6932a12","6790928bebf0b969fc839b02","67982657db3be9841ccafdef","passed","","608","","","","","","","","","","","","","","f","yesOrNo","","","","10","","","mid","1000","","86","536.4288568297004","300"
"","","","","","html-keyboard-response","236","697084","0.0-22.0-0.14","603f28793a28f30ab6932a12","6790928bebf0b969fc839b02","67982657db3be9841ccafdef","passed","","","","","","","","","","","","","","","","","ballFalling","500","453.67114317029973","210.33","5","fallScene","false","","","","87","",""
"","","","","","html-keyboard-response","237","698091","0.0-22.0-1.14","603f28793a28f30ab6932a12","6790928bebf0b969fc839b02","67982657db3be9841ccafdef","passed","","577","","","","","","","","","","","","","","f","yesOrNo","","","","5","","","lp","1000","","87","499","151"
"","","","","","html-keyboard-response","238","699647","0.0-22.0-0.15","603f28793a28f30ab6932a12","6790928bebf0b969fc839b02","67982657db3be9841ccafdef","passed","","","","","","","","","","","","","","","","","ballFalling","322.3","379.3711431702997","245.25","1","fallScene","true","","","","88","",""
"","","","","","html-keyboard-response","239","700655","0.0-22.0-1.15","603f28793a28f30ab6932a12","6790928bebf0b969fc839b02","67982657db3be9841ccafdef","passed","","879","","","","","","","","","","","","","","j","yesOrNo","","","","1","","","lp","1000","","88","323.3","217.74551669457017"
"","","","","","html-keyboard-response","240","702216","0.0-22.0-0.16","603f28793a28f30ab6932a12","6790928bebf0b969fc839b02","67982657db3be9841ccafdef","passed","","","","","","","","","","","","","","","","","ballFalling","604.4000000000001","575.4211431702997","266.76","12","fallScene","false","","","","89","",""
"","","","","","html-keyboard-response","241","703224","0.0-22.0-1.16","603f28793a28f30ab6932a12","6790928bebf0b969fc839b02","67982657db3be9841ccafdef","passed","","483","","","","","","","","","","","","","","f","yesOrNo","","","","12","","","lp","1000","","89","603.4000000000001","151"
"","","","","","html-keyboard-response","242","704786","0.0-22.0-0.17","603f28793a28f30ab6932a12","6790928bebf0b969fc839b02","67982657db3be9841ccafdef","passed","","","","","","","","","","","","","","","","","ballFalling","322.3","296.07114317029976","371.46","3","fallScene","true","","","","90","",""
"","","","","","html-keyboard-response","243","705792","0.0-22.0-1.17","603f28793a28f30ab6932a12","6790928bebf0b969fc839b02","67982657db3be9841ccafdef","passed","","488","","","","","","","","","","","","","","f","yesOrNo","","","","3","","","mid","1000","","90","321.3","300"
"","","","","","html-keyboard-response","244","707348","0.0-22.0-0.18","603f28793a28f30ab6932a12","6790928bebf0b969fc839b02","67982657db3be9841ccafdef","passed","","","","","","","","","","","","","","","","","ballFalling","604.4000000000001","650.0211431702996","404.58000000000004","11","fallScene","true","","","","91","",""
"","","","","","html-keyboard-response","245","708355","0.0-22.0-1.18","603f28793a28f30ab6932a12","6790928bebf0b969fc839b02","67982657db3be9841ccafdef","passed","","661","","","","","","","","","","","","","","f","yesOrNo","","","","11","","","mid","1000","","91","605.4000000000001","300"
"","","","","","html-keyboard-response","246","710147","0.0-22.0-0.19","603f28793a28f30ab6932a12","6790928bebf0b969fc839b02","67982657db3be9841ccafdef","passed","","","","","","","","","","","","","","","","","ballFalling","322.3","308.07114317029976","253.89","2","fallScene","false","","","","92","",""
"","","","","","html-keyboard-response","247","711155","0.0-22.0-1.19","603f28793a28f30ab6932a12","6790928bebf0b969fc839b02","67982657db3be9841ccafdef","passed","","796","","","","","","","","","","","","","","f","yesOrNo","","","","2","","","mid","1000","","92","321.3","300"
"","","","","","html-keyboard-response","248","713168","0.0-22.0-0.20","603f28793a28f30ab6932a12","6790928bebf0b969fc839b02","67982657db3be9841ccafdef","passed","","","","","","","","","","","","","","","","","ballFalling","500","510.8711431702997","369.03","8","fallScene","false","","","","93","",""
"","","","","","html-keyboard-response","249","714175","0.0-22.0-1.20","603f28793a28f30ab6932a12","6790928bebf0b969fc839b02","67982657db3be9841ccafdef","passed","","915","","","","","","","","","","","","","","f","yesOrNo","","","","8","","","lp","1000","","93","501","151"
"","","","","","html-keyboard-response","250","715839","0.0-22.0-0.21","603f28793a28f30ab6932a12","6790928bebf0b969fc839b02","67982657db3be9841ccafdef","passed","","","","","","","","","","","","","","","","","ballFalling","500","479.92114317029973","330.87","6","fallScene","true","","","","94","",""
"","","","","","html-keyboard-response","251","716842","0.0-22.0-1.21","603f28793a28f30ab6932a12","6790928bebf0b969fc839b02","67982657db3be9841ccafdef","passed","","718","","","","","","","","","","","","","","j","yesOrNo","","","","6","","","gt","1000","","94","479.9211431702998","330.87"
"","","","","","html-keyboard-response","252","718404","0.0-22.0-0.22","603f28793a28f30ab6932a12","6790928bebf0b969fc839b02","67982657db3be9841ccafdef","passed","","","","","","","","","","","","","","","","","ballFalling","322.3","356.42114317029973","357.87","4","fallScene","true","","","","95","",""
"","","","","","html-keyboard-response","253","719405","0.0-22.0-1.22","603f28793a28f30ab6932a12","6790928bebf0b969fc839b02","67982657db3be9841ccafdef","passed","","658","","","","","","","","","","","","","","f","yesOrNo","","","","4","","","mid","1000","","95","390.27114317029975","300"
"","","","","","html-keyboard-response","254","720987","0.0-22.0-0.23","603f28793a28f30ab6932a12","6790928bebf0b969fc839b02","67982657db3be9841ccafdef","passed","","","","","","","","","","","","","","","","","ballFalling","500","553.4711431702997","282.51","7","fallScene","true","","","","96","",""
"","","","","","html-keyboard-response","255","721994","0.0-22.0-1.23","603f28793a28f30ab6932a12","6790928bebf0b969fc839b02","67982657db3be9841ccafdef","passed","","954","","","","","","","","","","","","","","j","yesOrNo","","","","7","","","mid","1000","","96","501","300"
"","","","","","html-keyboard-response","256","723667","0.0-23.0","603f28793a28f30ab6932a12","6790928bebf0b969fc839b02","67982657db3be9841ccafdef","passed","","1672","","","","","","","","","","","","","<p><span style=""font-size:40px;"">BLOCK 5</span></p><p><span style=""font-size:25px;"">You have <b style=""color: #FF644F;""><strong>3 second(s)</strong></b> to respond to the following trials.</span><br></p><p></p> <!-- Blank line -->
                <p id=""blinking-text"" style=""font-weight; animation: blink 2s infinite;"">Press Space to continue</p>
                <style>
                    @keyframes blink {
                        50% {
                            opacity: 0;
                        }
                    }
                </style></p>"," ","","","","","","","","","","","","",""
"","","","","","html-keyboard-response","257","725245","0.0-24.0-0.0","603f28793a28f30ab6932a12","6790928bebf0b969fc839b02","67982657db3be9841ccafdef","passed","","","","","","","","","","","","","","","","","ballFalling","500","553.4711431702997","282.51","7","fallScene","true","","","","97","",""
"","","","","","html-keyboard-response","258","728248","0.0-24.0-1.0","603f28793a28f30ab6932a12","6790928bebf0b969fc839b02","67982657db3be9841ccafdef","passed","","889","","","","","","","","","","","","","","j","yesOrNo","","","","7","","","gt","3000","","97","553.4711431702997","282.51"
"","","","","","html-keyboard-response","259","730043","0.0-24.0-0.1","603f28793a28f30ab6932a12","6790928bebf0b969fc839b02","67982657db3be9841ccafdef","passed","","","","","","","","","","","","","","","","","ballFalling","322.3","308.07114317029976","253.89","2","fallScene","false","","","","98","",""
"","","","","","html-keyboard-response","260","733051","0.0-24.0-1.1","603f28793a28f30ab6932a12","6790928bebf0b969fc839b02","67982657db3be9841ccafdef","passed","","1774","","","","","","","","","","","","","","f","yesOrNo","","","","2","","","mid","3000","","98","321.3","300"
"","","","","","html-keyboard-response","261","734610","0.0-24.0-0.2","603f28793a28f30ab6932a12","6790928bebf0b969fc839b02","67982657db3be9841ccafdef","passed","","","","","","","","","","","","","","","","","ballFalling","322.3","379.3711431702997","245.25","1","fallScene","false","","","","99","",""
"","","","","","html-keyboard-response","262","737613","0.0-24.0-1.2","603f28793a28f30ab6932a12","6790928bebf0b969fc839b02","67982657db3be9841ccafdef","passed","","867","","","","","","","","","","","","","","j","yesOrNo","","","","1","","","lp","3000","","99","323.3","217.74551669457017"
"","","","","","html-keyboard-response","263","739112","0.0-24.0-0.3","603f28793a28f30ab6932a12","6790928bebf0b969fc839b02","67982657db3be9841ccafdef","passed","","","","","","","","","","","","","","","","","ballFalling","604.4000000000001","667.6211431702998","201.78","9","fallScene","false","","","","100","",""
"","","","","","html-keyboard-response","264","742119","0.0-24.0-1.3","603f28793a28f30ab6932a12","6790928bebf0b969fc839b02","67982657db3be9841ccafdef","passed","","1599","","","","","","","","","","","","","","j","yesOrNo","","","","9","","","gt","3000","","100","667.6211431702998","201.78"
"","","","","","html-keyboard-response","265","743681","0.0-24.0-0.4","603f28793a28f30ab6932a12","6790928bebf0b969fc839b02","67982657db3be9841ccafdef","passed","","","","","","","","","","","","","","","","","ballFalling","604.4000000000001","650.0211431702996","404.58000000000004","11","fallScene","true","","","","101","",""
"","","","","","html-keyboard-response","266","746689","0.0-24.0-1.4","603f28793a28f30ab6932a12","6790928bebf0b969fc839b02","67982657db3be9841ccafdef","passed","","682","","","","","","","","","","","","","","j","yesOrNo","","","","11","","","gt","3000","","101","650.0211431702996","404.58"
"","","","","","html-keyboard-response","267","748188","0.0-24.0-0.5","603f28793a28f30ab6932a12","6790928bebf0b969fc839b02","67982657db3be9841ccafdef","passed","","","","","","","","","","","","","","","","","ballFalling","604.4000000000001","667.6211431702998","201.78","9","fallScene","false","","","","102","",""
"","","","","","html-keyboard-response","268","751196","0.0-24.0-1.5","603f28793a28f30ab6932a12","6790928bebf0b969fc839b02","67982657db3be9841ccafdef","passed","","628","","","","","","","","","","","","","","f","yesOrNo","","","","9","","","lp","3000","","102","605.4000000000001","151"
"","","","","","html-keyboard-response","269","752779","0.0-24.0-0.6","603f28793a28f30ab6932a12","6790928bebf0b969fc839b02","67982657db3be9841ccafdef","passed","","","","","","","","","","","","","","","","","ballFalling","500","553.4711431702997","282.51","7","fallScene","false","","","","103","",""
"","","","","","html-keyboard-response","270","755786","0.0-24.0-1.6","603f28793a28f30ab6932a12","6790928bebf0b969fc839b02","67982657db3be9841ccafdef","passed","","346","","","","","","","","","","","","","","j","yesOrNo","","","","7","","","lp","3000","","103","501","227.2843295913261"
"","","","","","html-keyboard-response","271","757575","0.0-24.0-0.7","603f28793a28f30ab6932a12","6790928bebf0b969fc839b02","67982657db3be9841ccafdef","passed","","","","","","","","","","","","","","","","","ballFalling","322.3","308.07114317029976","253.89","2","fallScene","true","","","","104","",""
"","","","","","html-keyboard-response","272","760578","0.0-24.0-1.7","603f28793a28f30ab6932a12","6790928bebf0b969fc839b02","67982657db3be9841ccafdef","passed","","1576","","","","","","","","","","","","","","f","yesOrNo","","","","2","","","mid","3000","","104","321.3","300"
"","","","","","html-keyboard-response","273","762140","0.0-24.0-0.8","603f28793a28f30ab6932a12","6790928bebf0b969fc839b02","67982657db3be9841ccafdef","passed","","","","","","","","","","","","","","","","","ballFalling","500","453.67114317029973","210.33","5","fallScene","false","","","","105","",""
"","","","","","html-keyboard-response","274","765148","0.0-24.0-1.8","603f28793a28f30ab6932a12","6790928bebf0b969fc839b02","67982657db3be9841ccafdef","passed","","630","","","","","","","","","","","","","","j","yesOrNo","","","","5","","","mid","3000","","105","499","300"
"","","","","","html-keyboard-response","275","766730","0.0-24.0-0.9","603f28793a28f30ab6932a12","6790928bebf0b969fc839b02","67982657db3be9841ccafdef","passed","","","","","","","","","","","","","","","","","ballFalling","500","553.4711431702997","282.51","7","fallScene","false","","","","106","",""
"","","","","","html-keyboard-response","276","769737","0.0-24.0-1.9","603f28793a28f30ab6932a12","6790928bebf0b969fc839b02","67982657db3be9841ccafdef","passed","","658","","","","","","","","","","","","","","f","yesOrNo","","","","7","","","gt","3000","","106","553.4711431702997","282.51"
"","","","","","html-keyboard-response","277","771293","0.0-24.0-0.10","603f28793a28f30ab6932a12","6790928bebf0b969fc839b02","67982657db3be9841ccafdef","passed","","","","","","","","","","","","","","","","","ballFalling","604.4000000000001","650.0211431702996","404.58000000000004","11","fallScene","false","","","","107","",""
"","","","","","html-keyboard-response","278","774301","0.0-24.0-1.10","603f28793a28f30ab6932a12","6790928bebf0b969fc839b02","67982657db3be9841ccafdef","passed","","748","","","","","","","","","","","","","","f","yesOrNo","","","","11","","","mid","3000","","107","605.4000000000001","300"
"","","","","","html-keyboard-response","279","775862","0.0-24.0-0.11","603f28793a28f30ab6932a12","6790928bebf0b969fc839b02","67982657db3be9841ccafdef","passed","","","","","","","","","","","","","","","","","ballFalling","322.3","379.3711431702997","245.25","1","fallScene","true","","","","108","",""
"","","","","","html-keyboard-response","280","778869","0.0-24.0-1.11","603f28793a28f30ab6932a12","6790928bebf0b969fc839b02","67982657db3be9841ccafdef","passed","","1114","","","","","","","","","","","","","","f","yesOrNo","","","","1","","","gt","3000","","108","379.3711431702997","245.25"
"","","","","","html-keyboard-response","281","780876","0.0-24.0-0.12","603f28793a28f30ab6932a12","6790928bebf0b969fc839b02","67982657db3be9841ccafdef","passed","","","","","","","","","","","","","","","","","ballFalling","500","510.8711431702997","369.03","8","fallScene","true","","","","109","",""
"","","","","","html-keyboard-response","282","783884","0.0-24.0-1.12","603f28793a28f30ab6932a12","6790928bebf0b969fc839b02","67982657db3be9841ccafdef","passed","","656","","","","","","","","","","","","","","j","yesOrNo","","","","8","","","mid","3000","","109","501","300"
"","","","","","html-keyboard-response","283","785444","0.0-24.0-0.13","603f28793a28f30ab6932a12","6790928bebf0b969fc839b02","67982657db3be9841ccafdef","passed","","","","","","","","","","","","","","","","","ballFalling","322.3","379.3711431702997","245.25","1","fallScene","false","","","","110","",""
"","","","","","html-keyboard-response","284","788447","0.0-24.0-1.13","603f28793a28f30ab6932a12","6790928bebf0b969fc839b02","67982657db3be9841ccafdef","passed","","1128","","","","","","","","","","","","","","f","yesOrNo","","","","1","","","mid","3000","","110","390.27114317029975","300"
"","","","","","html-keyboard-response","285","790009","0.0-24.0-0.14","603f28793a28f30ab6932a12","6790928bebf0b969fc839b02","67982657db3be9841ccafdef","passed","","","","","","","","","","","","","","","","","ballFalling","604.4000000000001","575.4211431702997","266.76","12","fallScene","false","","","","111","",""
"","","","","","html-keyboard-response","286","793015","0.0-24.0-1.14","603f28793a28f30ab6932a12","6790928bebf0b969fc839b02","67982657db3be9841ccafdef","passed","","1529","","","","","","","","","","","","","","f","yesOrNo","","","","12","","","mid","3000","","111","536.4288568297004","300"
"","","","","","html-keyboard-response","287","794675","0.0-24.0-0.15","603f28793a28f30ab6932a12","6790928bebf0b969fc839b02","67982657db3be9841ccafdef","passed","","","","","","","","","","","","","","","","","ballFalling","500","479.92114317029973","330.87","6","fallScene","true","","","","112","",""
"","","","","","html-keyboard-response","288","797682","0.0-24.0-1.15","603f28793a28f30ab6932a12","6790928bebf0b969fc839b02","67982657db3be9841ccafdef","passed","","891","","","","","","","","","","","","","","f","yesOrNo","","","","6","","","lp","3000","","112","499","189.92909825697632"
"","","","","","html-keyboard-response","289","799257","0.0-24.0-0.16","603f28793a28f30ab6932a12","6790928bebf0b969fc839b02","67982657db3be9841ccafdef","passed","","","","","","","","","","","","","","","","","ballFalling","500","553.4711431702997","282.51","7","fallScene","false","","","","113","",""
"","","","","","html-keyboard-response","290","802265","0.0-24.0-1.16","603f28793a28f30ab6932a12","6790928bebf0b969fc839b02","67982657db3be9841ccafdef","passed","","1023","","","","","","","","","","","","","","f","yesOrNo","","","","7","","","lp","3000","","113","501","227.2843295913261"
"","","","","","html-keyboard-response","291","803765","0.0-24.0-0.17","603f28793a28f30ab6932a12","6790928bebf0b969fc839b02","67982657db3be9841ccafdef","passed","","","","","","","","","","","","","","","","","ballFalling","604.4000000000001","667.6211431702998","201.78","9","fallScene","false","","","","114","",""
"","","","","","html-keyboard-response","292","806773","0.0-24.0-1.17","603f28793a28f30ab6932a12","6790928bebf0b969fc839b02","67982657db3be9841ccafdef","passed","","1356","","","","","","","","","","","","","","j","yesOrNo","","","","9","","","mid","3000","","114","605.4000000000001","300"
"","","","","","html-keyboard-response","293","808335","0.0-24.0-0.18","603f28793a28f30ab6932a12","6790928bebf0b969fc839b02","67982657db3be9841ccafdef","passed","","","","","","","","","","","","","","","","","ballFalling","322.3","296.07114317029976","371.46","3","fallScene","true","","","","115","",""
"","","","","","html-keyboard-response","294","811342","0.0-24.0-1.18","603f28793a28f30ab6932a12","6790928bebf0b969fc839b02","67982657db3be9841ccafdef","passed","","1331","","","","","","","","","","","","","","f","yesOrNo","","","","3","","","mid","3000","","115","321.3","300"
"","","","","","html-keyboard-response","295","813140","0.0-24.0-0.19","603f28793a28f30ab6932a12","6790928bebf0b969fc839b02","67982657db3be9841ccafdef","passed","","","","","","","","","","","","","","","","","ballFalling","322.3","308.07114317029976","253.89","2","fallScene","true","","","","116","",""
"","","","","","html-keyboard-response","296","816147","0.0-24.0-1.19","603f28793a28f30ab6932a12","6790928bebf0b969fc839b02","67982657db3be9841ccafdef","passed","","1493","","","","","","","","","","","","","","j","yesOrNo","","","","2","","","gt","3000","","116","308.07114317029976","253.89"
"","","","","","html-keyboard-response","297","817710","0.0-24.0-0.20","603f28793a28f30ab6932a12","6790928bebf0b969fc839b02","67982657db3be9841ccafdef","passed","","","","","","","","","","","","","","","","","ballFalling","322.3","379.3711431702997","245.25","1","fallScene","false","","","","117","",""
"","","","","","html-keyboard-response","298","820718","0.0-24.0-1.20","603f28793a28f30ab6932a12","6790928bebf0b969fc839b02","67982657db3be9841ccafdef","passed","","605","","","","","","","","","","","","","","f","yesOrNo","","","","1","","","gt","3000","","117","379.3711431702997","245.25"
"","","","","","html-keyboard-response","299","822279","0.0-24.0-0.21","603f28793a28f30ab6932a12","6790928bebf0b969fc839b02","67982657db3be9841ccafdef","passed","","","","","","","","","","","","","","","","","ballFalling","322.3","296.07114317029976","371.46","3","fallScene","false","","","","118","",""
"","","","","","html-keyboard-response","300","825283","0.0-24.0-1.21","603f28793a28f30ab6932a12","6790928bebf0b969fc839b02","67982657db3be9841ccafdef","passed","","1126","","","","","","","","","","","","","","f","yesOrNo","","","","3","","","gt","3000","","118","296.07114317029976","371.46"
"","","","","","html-keyboard-response","301","827293","0.0-24.0-0.22","603f28793a28f30ab6932a12","6790928bebf0b969fc839b02","67982657db3be9841ccafdef","passed","","","","","","","","","","","","","","","","","ballFalling","500","510.8711431702997","369.03","8","fallScene","false","","","","119","",""
"","","","","","html-keyboard-response","302","830301","0.0-24.0-1.22","603f28793a28f30ab6932a12","6790928bebf0b969fc839b02","67982657db3be9841ccafdef","passed","","1182","","","","","","","","","","","","","","j","yesOrNo","","","","8","","","gt","3000","","119","510.8711431702997","369.03"
"","","","","","html-keyboard-response","303","831967","0.0-24.0-0.23","603f28793a28f30ab6932a12","6790928bebf0b969fc839b02","67982657db3be9841ccafdef","passed","","","","","","","","","","","","","","","","","ballFalling","500","479.92114317029973","330.87","6","fallScene","true","","","","120","",""
"","","","","","html-keyboard-response","304","834974","0.0-24.0-1.23","603f28793a28f30ab6932a12","6790928bebf0b969fc839b02","67982657db3be9841ccafdef","passed","","1072","","","","","","","","","","","","","","f","yesOrNo","","","","6","","","gt","3000","","120","479.9211431702998","330.87"
"","","","","","html-keyboard-response","305","846059","0.0-25.0","603f28793a28f30ab6932a12","6790928bebf0b969fc839b02","67982657db3be9841ccafdef","passed","","11084","","","","","","","","","","","","","<p><span style=""font-size:40px;"">BLOCK 6</span></p><p><span style=""font-size:25px;"">You have <b style=""color: #FF644F;""><strong>3 second(s)</strong></b> to respond to the following trials.</span><br></p><p></p> <!-- Blank line -->
                <p id=""blinking-text"" style=""font-weight; animation: blink 2s infinite;"">Press Space to continue</p>
                <style>
                    @keyframes blink {
                        50% {
                            opacity: 0;
                        }
                    }
                </style></p>"," ","","","","","","","","","","","","",""
"","","","","","html-keyboard-response","306","847724","0.0-26.0-0.0","603f28793a28f30ab6932a12","6790928bebf0b969fc839b02","67982657db3be9841ccafdef","passed","","","","","","","","","","","","","","","","","ballFalling","500","479.92114317029973","330.87","6","fallScene","true","","","","121","",""
