"success","timeout","failed_images","failed_audio","failed_video","trial_type","trial_index","time_elapsed","internal_node_id","subject_id","study_id","session_id","practiceTestResult","view_history","rt","width","height","webaudio","browser","browser_version","mobile","os","fullscreen","vsync_rate","webcam","microphone","url","stimulus","response","task","ball_X","obstacle_groundTruth_x","obstacle_groundTruth_y","stimulus_idx","trial_name","flipped","choice","timeLimit","question_order","comprehensionCheck","currentTrial","obstacle_choice_x","obstacle_choice_y"
"true","false","[]","[]","[]","preload","0","496","0.0-0.0","61bb392e40db417c1a138dcb","6790928bebf0b969fc839b02","679827d73167607bbdfe59b2","passed","","","","","","","","","","","","","","","","","","","","","","","","","","","","","",""
"","","","","","instructions","1","41611","0.0-1.0","61bb392e40db417c1a138dcb","6790928bebf0b969fc839b02","679827d73167607bbdfe59b2","passed","[{""page_index"":0,""viewing_time"":41111}]","41112","","","","","","","","","","","","","","","","","","","","","","","","","","","",""
"","","","","","browser-check","2","42607","0.0-2.0","61bb392e40db417c1a138dcb","6790928bebf0b969fc839b02","679827d73167607bbdfe59b2","passed","","","1517","684","true","chrome","130.0.0","false","Chrome OS","true","61.34","true","true","","","","","","","","","","","","","","","","",""
"","","","","","external-html","3","47391","0.0-3.0","61bb392e40db417c1a138dcb","6790928bebf0b969fc839b02","679827d73167607bbdfe59b2","passed","","4628","","","","","","","","","","","","consent.html","","","","","","","","","","","","","","","",""
"true","","","","","fullscreen","4","105287","0.0-4.0","61bb392e40db417c1a138dcb","6790928bebf0b969fc839b02","679827d73167607bbdfe59b2","passed","","57591","","","","","","","","","","","","","","","","","","","","","","","","","","","",""
"","","","","","browser-check","5","106277","0.0-5.0","61bb392e40db417c1a138dcb","6790928bebf0b969fc839b02","679827d73167607bbdfe59b2","passed","","","1517","852","true","chrome","130.0.0","false","Chrome OS","true","60.83","true","true","","","","","","","","","","","","","","","","",""
"","","","","","html-keyboard-response","6","122252","0.0-6.0","61bb392e40db417c1a138dcb","6790928bebf0b969fc839b02","679827d73167607bbdfe59b2","passed","","15973","","","","","","","","","","","","","<p><b>This experiment requires keyboard input.</b></p> 
        <p><b>To ensure your response will be recorded successfully, please press 'Space' to continue.</b></p>
        <p>If you can't proceed, you won't be able to complete this study.</p>
        <p></p> <!-- Blank line -->
        <p id=""blinking-text"" style=""font-weight; animation: blink 2s infinite;"">Press Space to continue</p>
        <style>
            @keyframes blink {
                50% {
                    opacity: 0;
                }
            }
        </style>"," ","","","","","","","","","","","","","",""
"","","","","","html-keyboard-response","7","136421","0.0-7.0","61bb392e40db417c1a138dcb","6790928bebf0b969fc839b02","679827d73167607bbdfe59b2","passed","","14167","","","","","","","","","","","","","<p><b>This experiment requires keyboard input.</b></p> 
        <p><b>To ensure your response will be recorded successfully, please press the 'f' key to continue.</b></p>
        <p>If you can't proceed, you won't be able to complete this study.</p>
        <p></p> <!-- Blank line -->
        <p id=""blinking-text"" style=""font-weight; animation: blink 2s infinite;"">Press f to continue</p>
        <style>
            @keyframes blink {
                50% {
                    opacity: 0;
                }
            }
        </style>","f","","","","","","","","","","","","","",""
"","","","","","html-keyboard-response","8","142564","0.0-8.0","61bb392e40db417c1a138dcb","6790928bebf0b969fc839b02","679827d73167607bbdfe59b2","passed","","6141","","","","","","","","","","","","","<p><b>This experiment requires keyboard input.</b></p> 
        <p><b>To ensure your response will be recorded successfully, please press the 'j' key to continue.</b></p>
        <p>If you can't proceed, you won't be able to complete this study.</p>
        <p></p> <!-- Blank line -->
        <p id=""blinking-text"" style=""font-weight; animation: blink 2s infinite;"">Press j to continue</p>
        <style>
            @keyframes blink {
                50% {
                    opacity: 0;
                }
            }
        </style>","j","","","","","","","","","","","","","",""
"","","","","","browser-check","9","143573","0.0-9.0","61bb392e40db417c1a138dcb","6790928bebf0b969fc839b02","679827d73167607bbdfe59b2","passed","","","1517","852","true","chrome","130.0.0","false","Chrome OS","true","60.05","true","true","","","","","","","","","","","","","","","","",""
"","","","","","survey-text","10","158568","0.0-10.0","61bb392e40db417c1a138dcb","6790928bebf0b969fc839b02","679827d73167607bbdfe59b2","passed","","14980","","","","","","","","","","","","","","{""prolificID"":""61bb392e40db417c1a138dcb""}","","","","","","","","","","","","","",""
"","","","","","instructions","11","336504","0.0-11.0-0.0-0.0","61bb392e40db417c1a138dcb","6790928bebf0b969fc839b02","679827d73167607bbdfe59b2","passed","[{""page_index"":0,""viewing_time"":68223},{""page_index"":1,""viewing_time"":75147},{""page_index"":2,""viewing_time"":16033},{""page_index"":3,""viewing_time"":18529}]","177934","","","","","","","","","","","","","","","","","","","","","","","","","","","",""
"","","","","","html-keyboard-response","12","342365","0.0-11.0-0.0-1.0","61bb392e40db417c1a138dcb","6790928bebf0b969fc839b02","679827d73167607bbdfe59b2","passed","","5327","","","","","","","","","","","","","<br>Remember! After a ball falls, the screen will disappear, and you'll decide if the proposed position is where the hidden triangle was. <br>You will now practice this by watching a few videos and making decisions.<p>To respond:<br style=""margin-bottom: 5px; text-indent: -20px; padding-left: 20px;"">- Press <b style=""color: #12AD2B;"">J for Yes</b>, if you think the triangle is in the correct position.<br style=""margin-top: 0; text-indent: -20px; padding-left: 20px;"">- Press <b style=""color: orange;"">F for No</b>, if you think the triangle is not in the correct position.</p><p>In this practice round, there is no time limit. Focus on getting comfortable with the task first.<br>Press either J or F to begin your practice trials.</p><img src = ""YesOrNo_instruction.png"" style=""width: 65%;""></img>","j","","","","","","","","","","","","","",""
"","","","","","html-keyboard-response","13","344543","0.0-11.0-0.0-2.0-0.0","61bb392e40db417c1a138dcb","6790928bebf0b969fc839b02","679827d73167607bbdfe59b2","passed","","","","","","","","","","","","","","","","","ballFalling_prac","416","464","296","1","fallScene","false","","","","","","",""
"","","","","","html-keyboard-response","14","353269","0.0-11.0-0.0-2.0-1.0","61bb392e40db417c1a138dcb","6790928bebf0b969fc839b02","679827d73167607bbdfe59b2","passed","","8715","","","","","","","","","","","","","","f","yesOrNo_prac_noTimed","","","","1","","","gt","NA","","","","",""
"","","","","","html-keyboard-response","15","355380","0.0-11.0-0.0-2.0-0.1","61bb392e40db417c1a138dcb","6790928bebf0b969fc839b02","679827d73167607bbdfe59b2","passed","","","","","","","","","","","","","","","","","ballFalling_prac","660","666","350","3","fallScene","false","","","","","","",""
"","","","","","html-keyboard-response","16","358379","0.0-11.0-0.0-2.0-1.1","61bb392e40db417c1a138dcb","6790928bebf0b969fc839b02","679827d73167607bbdfe59b2","passed","","2991","","","","","","","","","","","","","","j","yesOrNo_prac_noTimed","","","","3","","","wrong direction","NA","","","","",""
"","","","","","html-keyboard-response","17","359958","0.0-11.0-0.0-2.0-0.2","61bb392e40db417c1a138dcb","6790928bebf0b969fc839b02","679827d73167607bbdfe59b2","passed","","","","","","","","","","","","","","","","","ballFalling_prac","441","414","302","5","fallScene","true","","","","","","",""
"","","","","","html-keyboard-response","18","361083","0.0-11.0-0.0-2.0-1.2","61bb392e40db417c1a138dcb","6790928bebf0b969fc839b02","679827d73167607bbdfe59b2","passed","","1119","","","","","","","","","","","","","","j","yesOrNo_prac_noTimed","","","","5","","","close gt","NA","","","","",""
"","","","","","instructions","19","517083","0.0-11.0-0.0-3.0","61bb392e40db417c1a138dcb","6790928bebf0b969fc839b02","679827d73167607bbdfe59b2","passed","[{""page_index"":0,""viewing_time"":70099},{""page_index"":1,""viewing_time"":85897}]","155998","","","","","","","","","","","","","","","","","","","","","","","","","","","",""
"","","","","","html-button-response","20","556016","0.0-11.0-0.0-4.0","61bb392e40db417c1a138dcb","6790928bebf0b969fc839b02","679827d73167607bbdfe59b2","passed","","38429","","","","","","","","","","","","","<p>To make sure you understood the task, we just have a <b>brief quiz</b> here.</p><p>If you need to review the instructions, click 'Previous'.</p><p>It's important to understand the task to do the study, so you have to pass the quiz to move to the study.</p>","1","","","","","","","","","","","","","",""
"","","","","","survey-multi-choice","21","584823","0.0-11.0-1.0-0.0","61bb392e40db417c1a138dcb","6790928bebf0b969fc839b02","679827d73167607bbdfe59b2","passed","","28800","","","","","","","","","","","","","","{""generalProcedure"":""Watch a video of a ball falling, some of it behind a gray screen. After each video, decide if the triangle is at the spot where the ball hit the triangle behind the screen. There is time limit for the response.""}","","","","","","","","","","[0]","","","",""
"","","","","","survey-multi-choice","22","591101","0.0-11.0-1.0-1.0","61bb392e40db417c1a138dcb","6790928bebf0b969fc839b02","679827d73167607bbdfe59b2","passed","","6272","","","","","","","","","","","","","","{""checkBallHitObstacle"":""Yes.""}","","","","","","","","","","[0]","","","",""
"","","","","","survey-multi-choice","23","605504","0.0-11.0-1.0-2.0","61bb392e40db417c1a138dcb","6790928bebf0b969fc839b02","679827d73167607bbdfe59b2","passed","","14398","","","","","","","","","","","","","","{""checkTriangleVisibility"":""No, the triangle is hidden behind the gray screen.""}","","","","","","","","","","[0]","","","",""
"","","","","","survey-multi-choice","24","611382","0.0-11.0-1.0-3.0","61bb392e40db417c1a138dcb","6790928bebf0b969fc839b02","679827d73167607bbdfe59b2","passed","","5872","","","","","","","","","","","","","","{""checkTimedResponse"":""Your response will not be recorded, and the trial will move to the next one.""}","","","","","","","","","","[0]","","","",""
"","","","","","survey-multi-choice","25","668408","0.0-11.0-1.0-4.0","61bb392e40db417c1a138dcb","6790928bebf0b969fc839b02","679827d73167607bbdfe59b2","passed","","57022","","","","","","","","","","","","","","{""checkTimeBlockNotice"":""At the end of each block.""}","","","","","","","","","","[0]","","","",""
"","","","","","survey-multi-choice","26","684253","0.0-11.0-1.0-5.0","61bb392e40db417c1a138dcb","6790928bebf0b969fc839b02","679827d73167607bbdfe59b2","passed","","15840","","","","","","","","","","","","","","{""checkTimeBlockSameness"":""Yes, the time limit is the same for all trials within a block.""}","","","","","","","","","","[0]","","","",""
"","","","","","survey-multi-choice","27","725404","0.0-11.0-1.0-6.0","61bb392e40db417c1a138dcb","6790928bebf0b969fc839b02","679827d73167607bbdfe59b2","passed","","41144","","","","","","","","","","","","","","{""checkTrianglePrecision"":""No. The proposed purple triangle is not in the correct position because it doesn't match the location of the white triangle exactly.""}","","","","","","","","","","[0]","","","",""
"","","","","","html-button-response","28","728577","0.0-11.0-2.0-0.0","61bb392e40db417c1a138dcb","6790928bebf0b969fc839b02","679827d73167607bbdfe59b2","passed","","3168","","","","","","","","","","","","","<p>Oops! You did not pass the quiz.</p><p>You will now repeat the instructions and practice.</p>","0","","","","","","","","","","","failed","","",""
"","","","","","instructions","29","758060","0.0-11.1-0.1-0.1","61bb392e40db417c1a138dcb","6790928bebf0b969fc839b02","679827d73167607bbdfe59b2","passed","[{""page_index"":0,""viewing_time"":18587},{""page_index"":1,""viewing_time"":2104},{""page_index"":2,""viewing_time"":5675},{""page_index"":3,""viewing_time"":3113}]","29481","","","","","","","","","","","","","","","","","","","","","","","","","","","",""
"","","","","","html-keyboard-response","30","869137","0.0-11.1-0.1-1.1","61bb392e40db417c1a138dcb","6790928bebf0b969fc839b02","679827d73167607bbdfe59b2","passed","","110573","","","","","","","","","","","","","<br>Remember! After a ball falls, the screen will disappear, and you'll decide if the proposed position is where the hidden triangle was. <br>You will now practice this by watching a few videos and making decisions.<p>To respond:<br style=""margin-bottom: 5px; text-indent: -20px; padding-left: 20px;"">- Press <b style=""color: #12AD2B;"">J for Yes</b>, if you think the triangle is in the correct position.<br style=""margin-top: 0; text-indent: -20px; padding-left: 20px;"">- Press <b style=""color: orange;"">F for No</b>, if you think the triangle is not in the correct position.</p><p>In this practice round, there is no time limit. Focus on getting comfortable with the task first.<br>Press either J or F to begin your practice trials.</p><img src = ""YesOrNo_instruction.png"" style=""width: 65%;""></img>","f","","","","","","","","","","","","","",""
"","","","","","html-keyboard-response","31","870681","0.0-11.1-0.1-2.1-0.3","61bb392e40db417c1a138dcb","6790928bebf0b969fc839b02","679827d73167607bbdfe59b2","passed","","","","","","","","","","","","","","","","","ballFalling_prac","441","414","302","5","fallScene","true","","","","","","",""
"","","","","","html-keyboard-response","32","873188","0.0-11.1-0.1-2.1-1.3","61bb392e40db417c1a138dcb","6790928bebf0b969fc839b02","679827d73167607bbdfe59b2","passed","","2500","","","","","","","","","","","","","","j","yesOrNo_prac_noTimed","","","","5","","","close gt","NA","","","","",""
"","","","","","html-keyboard-response","33","875292","0.0-11.1-0.1-2.1-0.4","61bb392e40db417c1a138dcb","6790928bebf0b969fc839b02","679827d73167607bbdfe59b2","passed","","","","","","","","","","","","","","","","","ballFalling_prac","660","666","350","3","fallScene","false","","","","","","",""
"","","","","","html-keyboard-response","34","876987","0.0-11.1-0.1-2.1-1.4","61bb392e40db417c1a138dcb","6790928bebf0b969fc839b02","679827d73167607bbdfe59b2","passed","","1690","","","","","","","","","","","","","","j","yesOrNo_prac_noTimed","","","","3","","","wrong direction","NA","","","","",""
"","","","","","html-keyboard-response","35","878540","0.0-11.1-0.1-2.1-0.5","61bb392e40db417c1a138dcb","6790928bebf0b969fc839b02","679827d73167607bbdfe59b2","passed","","","","","","","","","","","","","","","","","ballFalling_prac","416","464","296","1","fallScene","false","","","","","","",""
"","","","","","html-keyboard-response","36","881748","0.0-11.1-0.1-2.1-1.5","61bb392e40db417c1a138dcb","6790928bebf0b969fc839b02","679827d73167607bbdfe59b2","passed","","3203","","","","","","","","","","","","","","j","yesOrNo_prac_noTimed","","","","1","","","gt","NA","","","","",""
"","","","","","instructions","37","911619","0.0-11.1-0.1-3.1","61bb392e40db417c1a138dcb","6790928bebf0b969fc839b02","679827d73167607bbdfe59b2","passed","[{""page_index"":0,""viewing_time"":18518},{""page_index"":1,""viewing_time"":11351}]","29870","","","","","","","","","","","","","","","","","","","","","","","","","","","",""
"","","","","","html-button-response","38","937490","0.0-11.1-0.1-4.1","61bb392e40db417c1a138dcb","6790928bebf0b969fc839b02","679827d73167607bbdfe59b2","passed","","25367","","","","","","","","","","","","","<p>To make sure you understood the task, we just have a <b>brief quiz</b> here.</p><p>If you need to review the instructions, click 'Previous'.</p><p>It's important to understand the task to do the study, so you have to pass the quiz to move to the study.</p>","1","","","","","","","","","","","","","",""
"","","","","","survey-multi-choice","39","951749","0.0-11.1-1.1-0.1","61bb392e40db417c1a138dcb","6790928bebf0b969fc839b02","679827d73167607bbdfe59b2","passed","","14251","","","","","","","","","","","","","","{""generalProcedure"":""Watch a video of a ball falling, some of it behind a gray screen. After each video, decide if the triangle is at the spot where the ball hit the triangle behind the screen. There is time limit for the response.""}","","","","","","","","","","[0]","","","",""
"","","","","","survey-multi-choice","40","956456","0.0-11.1-1.1-1.1","61bb392e40db417c1a138dcb","6790928bebf0b969fc839b02","679827d73167607bbdfe59b2","passed","","4698","","","","","","","","","","","","","","{""checkBallHitObstacle"":""Yes.""}","","","","","","","","","","[0]","","","",""
"","","","","","survey-multi-choice","41","968396","0.0-11.1-1.1-2.1","61bb392e40db417c1a138dcb","6790928bebf0b969fc839b02","679827d73167607bbdfe59b2","passed","","11936","","","","","","","","","","","","","","{""checkTriangleVisibility"":""No, the triangle is hidden behind the gray screen.""}","","","","","","","","","","[0]","","","",""
"","","","","","survey-multi-choice","42","985935","0.0-11.1-1.1-3.1","61bb392e40db417c1a138dcb","6790928bebf0b969fc839b02","679827d73167607bbdfe59b2","passed","","17534","","","","","","","","","","","","","","{""checkTimedResponse"":""Your response will not be recorded, and the trial will move to the next one.""}","","","","","","","","","","[0]","","","",""
"","","","","","survey-multi-choice","43","1016812","0.0-11.1-1.1-4.1","61bb392e40db417c1a138dcb","6790928bebf0b969fc839b02","679827d73167607bbdfe59b2","passed","","30874","","","","","","","","","","","","","","{""checkTimeBlockNotice"":""At the beginning of each block.""}","","","","","","","","","","[0]","","","",""
"","","","","","survey-multi-choice","44","1074794","0.0-11.1-1.1-5.1","61bb392e40db417c1a138dcb","6790928bebf0b969fc839b02","679827d73167607bbdfe59b2","passed","","57979","","","","","","","","","","","","","","{""checkTimeBlockSameness"":""Yes, the time limit is the same for all trials within a block.""}","","","","","","","","","","[0]","","","",""
"","","","","","survey-multi-choice","45","1108218","0.0-11.1-1.1-6.1","61bb392e40db417c1a138dcb","6790928bebf0b969fc839b02","679827d73167607bbdfe59b2","passed","","33418","","","","","","","","","","","","","","{""checkTrianglePrecision"":""No. The proposed purple triangle is not in the correct position because it doesn't match the location of the white triangle exactly.""}","","","","","","","","","","[0]","","","",""
"","","","","","instructions","46","1171586","0.0-12.0","61bb392e40db417c1a138dcb","6790928bebf0b969fc839b02","679827d73167607bbdfe59b2","passed","[{""page_index"":0,""viewing_time"":17437},{""page_index"":1,""viewing_time"":9561},{""page_index"":2,""viewing_time"":27185},{""page_index"":3,""viewing_time"":9181}]","63365","","","","","","","","","","","","","","","","","","","","","","","","","","","",""
"","","","","","instructions","47","1241949","0.0-13.0-0.0","61bb392e40db417c1a138dcb","6790928bebf0b969fc839b02","679827d73167607bbdfe59b2","passed","[{""page_index"":0,""viewing_time"":70345}]","70345","","","","","","","","","","","","","","","","","","","","","","","","","","","",""
"","","","","","html-keyboard-response","48","1264059","0.0-13.0-1.0","61bb392e40db417c1a138dcb","6790928bebf0b969fc839b02","679827d73167607bbdfe59b2","passed","","22103","","","","","","","","","","","","","<p><span style=""font-size:40px;"">Practice BLOCK 1</span></p><p><span style=""font-size:25px;"">You have <b style=""color: #FF644F;""><strong>3 second(s)</strong></b> to respond to the following trials.</span><br></p><p id=""blinking-text"" style=""font-weight; animation: blink 2s infinite;"">Press Space to continue</p><style>
                    @keyframes blink {
                        50% {
                            opacity: 0;
                        }
                    }
                </style>"," ","","","","","","","","","","","","","",""
"","","","","","html-keyboard-response","49","1265637","0.0-13.0-2.0-0.0","61bb392e40db417c1a138dcb","6790928bebf0b969fc839b02","679827d73167607bbdfe59b2","passed","","","","","","","","","","","","","","","","","ballFalling_prac","660","610","263","4","fallScene","false","","","","","","",""
"","","","","","html-keyboard-response","50","1268663","0.0-13.0-2.0-1.0","61bb392e40db417c1a138dcb","6790928bebf0b969fc839b02","679827d73167607bbdfe59b2","passed","","1620","","","","","","","","","","","","","","j","yesOrNo_prac","","","","4","","","gt","3000","","","","",""
"","","","","","html-keyboard-response","51","1270216","0.0-13.0-2.0-0.1","61bb392e40db417c1a138dcb","6790928bebf0b969fc839b02","679827d73167607bbdfe59b2","passed","","","","","","","","","","","","","","","","","ballFalling_prac","584","536","296","1","fallScene","true","","","","","","",""
"","","","","","html-keyboard-response","52","1273223","0.0-13.0-2.0-1.1","61bb392e40db417c1a138dcb","6790928bebf0b969fc839b02","679827d73167607bbdfe59b2","passed","","1101","","","","","","","","","","","","","","f","yesOrNo_prac","","","","1","","","close gt","3000","","","","",""
"","","","","","html-keyboard-response","53","1274778","0.0-13.0-2.0-0.2","61bb392e40db417c1a138dcb","6790928bebf0b969fc839b02","679827d73167607bbdfe59b2","passed","","","","","","","","","","","","","","","","","ballFalling_prac","416","464","296","1","fallScene","false","","","","","","",""
"","","","","","html-keyboard-response","54","1277784","0.0-13.0-2.0-1.2","61bb392e40db417c1a138dcb","6790928bebf0b969fc839b02","679827d73167607bbdfe59b2","passed","","1050","","","","","","","","","","","","","","j","yesOrNo_prac","","","","1","","","far gt","3000","","","","",""
"","","","","","html-keyboard-response","55","1284375","0.0-13.0-3.0","61bb392e40db417c1a138dcb","6790928bebf0b969fc839b02","679827d73167607bbdfe59b2","passed","","6589","","","","","","","","","","","","","<p><span style=""font-size:40px;"">Practice BLOCK 2</span></p><p><span style=""font-size:25px;"">You have <b style=""color: #FF644F;""><strong>1 second(s)</strong></b> to respond to the following trials.</span><br></p><p id=""blinking-text"" style=""font-weight; animation: blink 2s infinite;"">Press Space to continue</p><style>
                    @keyframes blink {
                        50% {
                            opacity: 0;
                        }
                    }
                </style>"," ","","","","","","","","","","","","","",""
"","","","","","html-keyboard-response","56","1286482","0.0-13.0-4.0-0.0","61bb392e40db417c1a138dcb","6790928bebf0b969fc839b02","679827d73167607bbdfe59b2","passed","","","","","","","","","","","","","","","","","ballFalling_prac","340","334","350","3","fallScene","true","","","","","","",""
"","","","","","html-keyboard-response","57","1287491","0.0-13.0-4.0-1.0","61bb392e40db417c1a138dcb","6790928bebf0b969fc839b02","679827d73167607bbdfe59b2","passed","","954","","","","","","","","","","","","","","j","yesOrNo_prac","","","","3","","","close gt","1000","","","","",""
"","","","","","html-keyboard-response","58","1289063","0.0-13.0-4.0-0.1","61bb392e40db417c1a138dcb","6790928bebf0b969fc839b02","679827d73167607bbdfe59b2","passed","","","","","","","","","","","","","","","","","ballFalling_prac","660","610","263","4","fallScene","false","","","","","","",""
"","","","","","html-keyboard-response","59","1290070","0.0-13.0-4.0-1.1","61bb392e40db417c1a138dcb","6790928bebf0b969fc839b02","679827d73167607bbdfe59b2","passed","","465","","","","","","","","","","","","","","j","yesOrNo_prac","","","","4","","","far gt","1000","","","","",""
"","","","","","html-keyboard-response","60","1291627","0.0-13.0-4.0-0.2","61bb392e40db417c1a138dcb","6790928bebf0b969fc839b02","679827d73167607bbdfe59b2","passed","","","","","","","","","","","","","","","","","ballFalling_prac","441","500","317","6","fallScene","true","","","","","","",""
"","","","","","html-keyboard-response","61","1292634","0.0-13.0-4.0-1.2","61bb392e40db417c1a138dcb","6790928bebf0b969fc839b02","679827d73167607bbdfe59b2","passed","","783","","","","","","","","","","","","","","j","yesOrNo_prac","","","","6","","","gt","1000","","","","",""
"","","","","","instructions","62","1312036","0.0-13.0-5.0","61bb392e40db417c1a138dcb","6790928bebf0b969fc839b02","679827d73167607bbdfe59b2","passed","[{""page_index"":0,""viewing_time"":19399}]","19400","","","","","","","","","","","","","","","","","","","","","","","","","","","",""
"","","","","","html-keyboard-response","63","1322322","0.0-13.0-6.0","61bb392e40db417c1a138dcb","6790928bebf0b969fc839b02","679827d73167607bbdfe59b2","passed","","10283","","","","","","","","","","","","","<p><span style=""font-size:40px;"">Practice Test BLOCK 1</span></p><p><span style=""font-size:25px;"">You have <b style=""color: #FF644F;""><strong>1 second(s)</strong></b> to respond to the following trials.</span><br></p><p id=""blinking-text"" style=""font-weight; animation: blink 2s infinite;"">Press Space to continue</p><style>
                    @keyframes blink {
                        50% {
                            opacity: 0;
                        }
                    }
                </style>"," ","","","","","","","","","","","","","",""
"","","","","","html-keyboard-response","64","1323878","0.0-13.0-7.0-0.0","61bb392e40db417c1a138dcb","6790928bebf0b969fc839b02","679827d73167607bbdfe59b2","passed","","","","","","","","","","","","","","","","","ballFalling_prac","441","500","317","6","fallScene","true","","","","","","",""
"","","","","","html-keyboard-response","65","1324887","0.0-13.0-7.0-1.0","61bb392e40db417c1a138dcb","6790928bebf0b969fc839b02","679827d73167607bbdfe59b2","passed","","789","","","","","","","","","","","","","","j","yesOrNo_prac","","","","6","","","close gt","1000","","","","",""
"","","","","","html-keyboard-response","66","1326443","0.0-13.0-7.0-0.1","61bb392e40db417c1a138dcb","6790928bebf0b969fc839b02","679827d73167607bbdfe59b2","passed","","","","","","","","","","","","","","","","","ballFalling_prac","340","390","263","4","fallScene","true","","","","","","",""
"","","","","","html-keyboard-response","67","1327447","0.0-13.0-7.0-1.1","61bb392e40db417c1a138dcb","6790928bebf0b969fc839b02","679827d73167607bbdfe59b2","passed","","474","","","","","","","","","","","","","","j","yesOrNo_prac","","","","4","","","far gt","1000","","","","",""
"","","","","","html-keyboard-response","68","1328989","0.0-13.0-7.0-0.2","61bb392e40db417c1a138dcb","6790928bebf0b969fc839b02","679827d73167607bbdfe59b2","passed","","","","","","","","","","","","","","","","","ballFalling_prac","559","586","302","5","fallScene","false","","","","","","",""
"","","","","","html-keyboard-response","69","1330018","0.0-13.0-7.0-1.2","61bb392e40db417c1a138dcb","6790928bebf0b969fc839b02","679827d73167607bbdfe59b2","passed","","587","","","","","","","","","","","","","","j","yesOrNo_prac","","","","5","","","gt","1000","","","","",""
"","","","","","html-keyboard-response","70","1342820","0.0-13.0-8.0","61bb392e40db417c1a138dcb","6790928bebf0b969fc839b02","679827d73167607bbdfe59b2","passed","","12800","","","","","","","","","","","","","<p><span style=""font-size:40px;"">Practice Test BLOCK 2</span></p><p><span style=""font-size:25px;"">You have <b style=""color: #FF644F;""><strong>3 second(s)</strong></b> to respond to the following trials.</span><br></p><p id=""blinking-text"" style=""font-weight; animation: blink 2s infinite;"">Press Space to continue</p><style>
                    @keyframes blink {
                        50% {
                            opacity: 0;
                        }
                    }
                </style>"," ","","","","","","","","","","","","","",""
"","","","","","html-keyboard-response","71","1344357","0.0-13.0-9.0-0.0","61bb392e40db417c1a138dcb","6790928bebf0b969fc839b02","679827d73167607bbdfe59b2","passed","","","","","","","","","","","","","","","","","ballFalling_prac","340","390","263","4","fallScene","true","","","","","","",""
"","","","","","html-keyboard-response","72","1347365","0.0-13.0-9.0-1.0","61bb392e40db417c1a138dcb","6790928bebf0b969fc839b02","679827d73167607bbdfe59b2","passed","","1139","","","","","","","","","","","","","","j","yesOrNo_prac","","","","4","","","close gt","3000","","","","",""
"","","","","","html-keyboard-response","73","1348936","0.0-13.0-9.0-0.1","61bb392e40db417c1a138dcb","6790928bebf0b969fc839b02","679827d73167607bbdfe59b2","passed","","","","","","","","","","","","","","","","","ballFalling_prac","559","586","302","5","fallScene","false","","","","","","",""
"","","","","","html-keyboard-response","74","1351942","0.0-13.0-9.0-1.1","61bb392e40db417c1a138dcb","6790928bebf0b969fc839b02","679827d73167607bbdfe59b2","passed","","1731","","","","","","","","","","","","","","j","yesOrNo_prac","","","","5","","","far gt","3000","","","","",""
"","","","","","html-keyboard-response","75","1353516","0.0-13.0-9.0-0.2","61bb392e40db417c1a138dcb","6790928bebf0b969fc839b02","679827d73167607bbdfe59b2","passed","","","","","","","","","","","","","","","","","ballFalling_prac","416","365","249","2","fallScene","false","","","","","","",""
"","","","","","html-keyboard-response","76","1356522","0.0-13.0-9.0-1.2","61bb392e40db417c1a138dcb","6790928bebf0b969fc839b02","679827d73167607bbdfe59b2","passed","","1465","","","","","","","","","","","","","","f","yesOrNo_prac","","","","2","","","gt","3000","","","","",""
"","","","","","instructions","77","1373889","0.0-14.0","61bb392e40db417c1a138dcb","6790928bebf0b969fc839b02","679827d73167607bbdfe59b2","passed","[{""page_index"":0,""viewing_time"":17363}]","17364","","","","","","","","","","","","","","","","","","","","","","","","","","","",""
"","","","","","html-keyboard-response","78","1379616","0.0-15.0","61bb392e40db417c1a138dcb","6790928bebf0b969fc839b02","679827d73167607bbdfe59b2","passed","","5724","","","","","","","","","","","","","<p><span style=""font-size:40px;"">BLOCK 1</span></p><p><span style=""font-size:25px;"">You have <b style=""color: #FF644F;""><strong>1 second(s)</strong></b> to respond to the following trials.</span><br></p><p></p> <!-- Blank line -->
                <p id=""blinking-text"" style=""font-weight; animation: blink 2s infinite;"">Press Space to continue</p>
                <style>
                    @keyframes blink {
                        50% {
                            opacity: 0;
                        }
                    }
                </style></p>"," ","","","","","","","","","","","","","",""
"","","","","","html-keyboard-response","79","1381209","0.0-16.0-0.0","61bb392e40db417c1a138dcb","6790928bebf0b969fc839b02","679827d73167607bbdfe59b2","passed","","","","","","","","","","","","","","","","","ballFalling","322.3","296.07114317029976","371.46","3","fallScene","true","","","","","1","",""
"","","","","","html-keyboard-response","80","1382217","0.0-16.0-1.0","61bb392e40db417c1a138dcb","6790928bebf0b969fc839b02","679827d73167607bbdfe59b2","passed","","726","","","","","","","","","","","","","","j","yesOrNo","","","","3","","","mid","1000","","","1","321.3","300"
"","","","","","html-keyboard-response","81","1383753","0.0-16.0-0.1","61bb392e40db417c1a138dcb","6790928bebf0b969fc839b02","679827d73167607bbdfe59b2","passed","","","","","","","","","","","","","","","","","ballFalling","604.4000000000001","575.4211431702997","266.76","12","fallScene","false","","","","","2","",""
"","","","","","html-keyboard-response","82","1384763","0.0-16.0-1.1","61bb392e40db417c1a138dcb","6790928bebf0b969fc839b02","679827d73167607bbdfe59b2","passed","","645","","","","","","","","","","","","","","j","yesOrNo","","","","12","","","lp","1000","","","2","603.4000000000001","151"
"","","","","","html-keyboard-response","83","1386305","0.0-16.0-0.2","61bb392e40db417c1a138dcb","6790928bebf0b969fc839b02","679827d73167607bbdfe59b2","passed","","","","","","","","","","","","","","","","","ballFalling","500","453.67114317029973","210.33","5","fallScene","true","","","","","3","",""
"","","","","","html-keyboard-response","84","1387312","0.0-16.0-1.2","61bb392e40db417c1a138dcb","6790928bebf0b969fc839b02","679827d73167607bbdfe59b2","passed","","875","","","","","","","","","","","","","","f","yesOrNo","","","","5","","","lp","1000","","","3","499","151"
"","","","","","html-keyboard-response","85","1388863","0.0-16.0-0.3","61bb392e40db417c1a138dcb","6790928bebf0b969fc839b02","679827d73167607bbdfe59b2","passed","","","","","","","","","","","","","","","","","ballFalling","604.4000000000001","575.4211431702997","266.76","12","fallScene","false","","","","","4","",""
"","","","","","html-keyboard-response","86","1389869","0.0-16.0-1.3","61bb392e40db417c1a138dcb","6790928bebf0b969fc839b02","679827d73167607bbdfe59b2","passed","","669","","","","","","","","","","","","","","j","yesOrNo","","","","12","","","gt","1000","","","4","575.4211431702997","266.76"
"","","","","","html-keyboard-response","87","1391429","0.0-16.0-0.4","61bb392e40db417c1a138dcb","6790928bebf0b969fc839b02","679827d73167607bbdfe59b2","passed","","","","","","","","","","","","","","","","","ballFalling","604.4000000000001","575.4211431702997","266.76","12","fallScene","true","","","","","5","",""
"","","","","","html-keyboard-response","88","1392434","0.0-16.0-1.4","61bb392e40db417c1a138dcb","6790928bebf0b969fc839b02","679827d73167607bbdfe59b2","passed","","933","","","","","","","","","","","","","","f","yesOrNo","","","","12","","","lp","1000","","","5","603.4000000000001","151"
"","","","","","html-keyboard-response","89","1393994","0.0-16.0-0.5","61bb392e40db417c1a138dcb","6790928bebf0b969fc839b02","679827d73167607bbdfe59b2","passed","","","","","","","","","","","","","","","","","ballFalling","500","453.67114317029973","210.33","5","fallScene","false","","","","","6","",""
"","","","","","html-keyboard-response","90","1394999","0.0-16.0-1.5","61bb392e40db417c1a138dcb","6790928bebf0b969fc839b02","679827d73167607bbdfe59b2","passed","","707","","","","","","","","","","","","","","j","yesOrNo","","","","5","","","gt","1000","","","6","453.6711431702998","210.33"
"","","","","","html-keyboard-response","91","1396555","0.0-16.0-0.6","61bb392e40db417c1a138dcb","6790928bebf0b969fc839b02","679827d73167607bbdfe59b2","passed","","","","","","","","","","","","","","","","","ballFalling","500","553.4711431702997","282.51","7","fallScene","false","","","","","7","",""
"","","","","","html-keyboard-response","92","1397563","0.0-16.0-1.6","61bb392e40db417c1a138dcb","6790928bebf0b969fc839b02","679827d73167607bbdfe59b2","passed","","778","","","","","","","","","","","","","","f","yesOrNo","","","","7","","","lp","1000","","","7","501","227.2843295913261"
"","","","","","html-keyboard-response","93","1399205","0.0-16.0-0.7","61bb392e40db417c1a138dcb","6790928bebf0b969fc839b02","679827d73167607bbdfe59b2","passed","","","","","","","","","","","","","","","","","ballFalling","500","479.92114317029973","330.87","6","fallScene","true","","","","","8","",""
"","","","","","html-keyboard-response","94","1400210","0.0-16.0-1.7","61bb392e40db417c1a138dcb","6790928bebf0b969fc839b02","679827d73167607bbdfe59b2","passed","","753","","","","","","","","","","","","","","j","yesOrNo","","","","6","","","lp","1000","","","8","499","189.92909825697632"
"","","","","","html-keyboard-response","95","1401784","0.0-16.0-0.8","61bb392e40db417c1a138dcb","6790928bebf0b969fc839b02","679827d73167607bbdfe59b2","passed","","","","","","","","","","","","","","","","","ballFalling","500","553.4711431702997","282.51","7","fallScene","true","","","","","9","",""
"","","","","","html-keyboard-response","96","1402791","0.0-16.0-1.8","61bb392e40db417c1a138dcb","6790928bebf0b969fc839b02","679827d73167607bbdfe59b2","passed","","506","","","","","","","","","","","","","","j","yesOrNo","","","","7","","","mid","1000","","","9","501","300"
"","","","","","html-keyboard-response","97","1404348","0.0-16.0-0.9","61bb392e40db417c1a138dcb","6790928bebf0b969fc839b02","679827d73167607bbdfe59b2","passed","","","","","","","","","","","","","","","","","ballFalling","322.3","379.3711431702997","245.25","1","fallScene","false","","","","","10","",""
"","","","","","html-keyboard-response","98","1405358","0.0-16.0-1.9","61bb392e40db417c1a138dcb","6790928bebf0b969fc839b02","679827d73167607bbdfe59b2","passed","","915","","","","","","","","","","","","","","j","yesOrNo","","","","1","","","lp","1000","","","10","323.3","217.74551669457017"
"","","","","","html-keyboard-response","99","1406895","0.0-16.0-0.10","61bb392e40db417c1a138dcb","6790928bebf0b969fc839b02","679827d73167607bbdfe59b2","passed","","","","","","","","","","","","","","","","","ballFalling","604.4000000000001","575.4211431702997","266.76","12","fallScene","false","","","","","11","",""
"","","","","","html-keyboard-response","100","1407902","0.0-16.0-1.10","61bb392e40db417c1a138dcb","6790928bebf0b969fc839b02","679827d73167607bbdfe59b2","passed","","null","","","","","","","","","","","","","","null","yesOrNo","","","","12","","","mid","1000","","","11","536.4288568297004","300"
"","","","","","html-keyboard-response","101","1409461","0.0-16.0-0.11","61bb392e40db417c1a138dcb","6790928bebf0b969fc839b02","679827d73167607bbdfe59b2","passed","","","","","","","","","","","","","","","","","ballFalling","322.3","356.42114317029973","357.87","4","fallScene","false","","","","","12","",""
"","","","","","html-keyboard-response","102","1410466","0.0-16.0-1.11","61bb392e40db417c1a138dcb","6790928bebf0b969fc839b02","679827d73167607bbdfe59b2","passed","","null","","","","","","","","","","","","","","null","yesOrNo","","","","4","","","gt","1000","","","12","356.42114317029973","357.87"
"","","","","","html-keyboard-response","103","1412024","0.0-16.0-0.12","61bb392e40db417c1a138dcb","6790928bebf0b969fc839b02","679827d73167607bbdfe59b2","passed","","","","","","","","","","","","","","","","","ballFalling","322.3","356.42114317029973","357.87","4","fallScene","false","","","","","13","",""
"","","","","","html-keyboard-response","104","1413032","0.0-16.0-1.12","61bb392e40db417c1a138dcb","6790928bebf0b969fc839b02","679827d73167607bbdfe59b2","passed","","664","","","","","","","","","","","","","","j","yesOrNo","","","","4","","","gt","1000","","","13","356.42114317029973","357.87"
"","","","","","html-keyboard-response","105","1415037","0.0-16.0-0.13","61bb392e40db417c1a138dcb","6790928bebf0b969fc839b02","679827d73167607bbdfe59b2","passed","","","","","","","","","","","","","","","","","ballFalling","604.4000000000001","596.8711431702998","394.5","10","fallScene","true","","","","","14","",""
"","","","","","html-keyboard-response","106","1416044","0.0-16.0-1.13","61bb392e40db417c1a138dcb","6790928bebf0b969fc839b02","679827d73167607bbdfe59b2","passed","","815","","","","","","","","","","","","","","f","yesOrNo","","","","10","","","mid","1000","","","14","536.4288568297004","300"
"","","","","","html-keyboard-response","107","1417604","0.0-16.0-0.14","61bb392e40db417c1a138dcb","6790928bebf0b969fc839b02","679827d73167607bbdfe59b2","passed","","","","","","","","","","","","","","","","","ballFalling","322.3","296.07114317029976","371.46","3","fallScene","false","","","","","15","",""
"","","","","","html-keyboard-response","108","1418609","0.0-16.0-1.14","61bb392e40db417c1a138dcb","6790928bebf0b969fc839b02","679827d73167607bbdfe59b2","passed","","768","","","","","","","","","","","","","","j","yesOrNo","","","","3","","","gt","1000","","","15","296.07114317029976","371.46"
"","","","","","html-keyboard-response","109","1420167","0.0-16.0-0.15","61bb392e40db417c1a138dcb","6790928bebf0b969fc839b02","679827d73167607bbdfe59b2","passed","","","","","","","","","","","","","","","","","ballFalling","604.4000000000001","575.4211431702997","266.76","12","fallScene","false","","","","","16","",""
"","","","","","html-keyboard-response","110","1421173","0.0-16.0-1.15","61bb392e40db417c1a138dcb","6790928bebf0b969fc839b02","679827d73167607bbdfe59b2","passed","","674","","","","","","","","","","","","","","j","yesOrNo","","","","12","","","mid","1000","","","16","536.4288568297004","300"
"","","","","","html-keyboard-response","111","1422713","0.0-16.0-0.16","61bb392e40db417c1a138dcb","6790928bebf0b969fc839b02","679827d73167607bbdfe59b2","passed","","","","","","","","","","","","","","","","","ballFalling","500","453.67114317029973","210.33","5","fallScene","false","","","","","17","",""
"","","","","","html-keyboard-response","112","1423719","0.0-16.0-1.16","61bb392e40db417c1a138dcb","6790928bebf0b969fc839b02","679827d73167607bbdfe59b2","passed","","641","","","","","","","","","","","","","","j","yesOrNo","","","","5","","","lp","1000","","","17","499","151"
"","","","","","html-keyboard-response","113","1425277","0.0-16.0-0.17","61bb392e40db417c1a138dcb","6790928bebf0b969fc839b02","679827d73167607bbdfe59b2","passed","","","","","","","","","","","","","","","","","ballFalling","322.3","356.42114317029973","357.87","4","fallScene","false","","","","","18","",""
"","","","","","html-keyboard-response","114","1426283","0.0-16.0-1.17","61bb392e40db417c1a138dcb","6790928bebf0b969fc839b02","679827d73167607bbdfe59b2","passed","","null","","","","","","","","","","","","","","null","yesOrNo","","","","4","","","mid","1000","","","18","390.27114317029975","300"
"","","","","","html-keyboard-response","115","1428290","0.0-16.0-0.18","61bb392e40db417c1a138dcb","6790928bebf0b969fc839b02","679827d73167607bbdfe59b2","passed","","","","","","","","","","","","","","","","","ballFalling","500","510.8711431702997","369.03","8","fallScene","true","","","","","19","",""
"","","","","","html-keyboard-response","116","1429297","0.0-16.0-1.18","61bb392e40db417c1a138dcb","6790928bebf0b969fc839b02","679827d73167607bbdfe59b2","passed","","null","","","","","","","","","","","","","","null","yesOrNo","","","","8","","","gt","1000","","","19","510.8711431702997","369.03"
"","","","","","html-keyboard-response","117","1430838","0.0-16.0-0.19","61bb392e40db417c1a138dcb","6790928bebf0b969fc839b02","679827d73167607bbdfe59b2","passed","","","","","","","","","","","","","","","","","ballFalling","322.3","379.3711431702997","245.25","1","fallScene","true","","","","","20","",""
"","","","","","html-keyboard-response","118","1431844","0.0-16.0-1.19","61bb392e40db417c1a138dcb","6790928bebf0b969fc839b02","679827d73167607bbdfe59b2","passed","","868","","","","","","","","","","","","","","j","yesOrNo","","","","1","","","lp","1000","","","20","323.3","217.74551669457017"
"","","","","","html-keyboard-response","119","1433618","0.0-16.0-0.20","61bb392e40db417c1a138dcb","6790928bebf0b969fc839b02","679827d73167607bbdfe59b2","passed","","","","","","","","","","","","","","","","","ballFalling","322.3","308.07114317029976","253.89","2","fallScene","true","","","","","21","",""
"","","","","","html-keyboard-response","120","1434625","0.0-16.0-1.20","61bb392e40db417c1a138dcb","6790928bebf0b969fc839b02","679827d73167607bbdfe59b2","passed","","618","","","","","","","","","","","","","","j","yesOrNo","","","","2","","","lp","1000","","","21","321.3","151"
"","","","","","html-keyboard-response","121","1436616","0.0-16.0-0.21","61bb392e40db417c1a138dcb","6790928bebf0b969fc839b02","679827d73167607bbdfe59b2","passed","","","","","","","","","","","","","","","","","ballFalling","604.4000000000001","596.8711431702998","394.5","10","fallScene","true","","","","","22","",""
"","","","","","html-keyboard-response","122","1437620","0.0-16.0-1.21","61bb392e40db417c1a138dcb","6790928bebf0b969fc839b02","679827d73167607bbdfe59b2","passed","","null","","","","","","","","","","","","","","null","yesOrNo","","","","10","","","gt","1000","","","22","596.8711431702998","394.5"
"","","","","","html-keyboard-response","123","1439630","0.0-16.0-0.22","61bb392e40db417c1a138dcb","6790928bebf0b969fc839b02","679827d73167607bbdfe59b2","passed","","","","","","","","","","","","","","","","","ballFalling","500","510.8711431702997","369.03","8","fallScene","false","","","","","23","",""
"","","","","","html-keyboard-response","124","1440637","0.0-16.0-1.22","61bb392e40db417c1a138dcb","6790928bebf0b969fc839b02","679827d73167607bbdfe59b2","passed","","719","","","","","","","","","","","","","","j","yesOrNo","","","","8","","","gt","1000","","","23","510.8711431702997","369.03"
"","","","","","html-keyboard-response","125","1442629","0.0-16.0-0.23","61bb392e40db417c1a138dcb","6790928bebf0b969fc839b02","679827d73167607bbdfe59b2","passed","","","","","","","","","","","","","","","","","ballFalling","500","510.8711431702997","369.03","8","fallScene","true","","","","","24","",""
"","","","","","html-keyboard-response","126","1443635","0.0-16.0-1.23","61bb392e40db417c1a138dcb","6790928bebf0b969fc839b02","679827d73167607bbdfe59b2","passed","","562","","","","","","","","","","","","","","j","yesOrNo","","","","8","","","mid","1000","","","24","501","300"
"","","","","","html-keyboard-response","127","1446481","0.0-17.0","61bb392e40db417c1a138dcb","6790928bebf0b969fc839b02","679827d73167607bbdfe59b2","passed","","2845","","","","","","","","","","","","","<p><span style=""font-size:40px;"">BLOCK 2</span></p><p><span style=""font-size:25px;"">You have <b style=""color: #FF644F;""><strong>3 second(s)</strong></b> to respond to the following trials.</span><br></p><p></p> <!-- Blank line -->
                <p id=""blinking-text"" style=""font-weight; animation: blink 2s infinite;"">Press Space to continue</p>
                <style>
                    @keyframes blink {
                        50% {
                            opacity: 0;
                        }
                    }
                </style></p>"," ","","","","","","","","","","","","","",""
"","","","","","html-keyboard-response","128","1447988","0.0-18.0-0.0","61bb392e40db417c1a138dcb","6790928bebf0b969fc839b02","679827d73167607bbdfe59b2","passed","","","","","","","","","","","","","","","","","ballFalling","500","453.67114317029973","210.33","5","fallScene","true","","","","","25","",""
"","","","","","html-keyboard-response","129","1450996","0.0-18.0-1.0","61bb392e40db417c1a138dcb","6790928bebf0b969fc839b02","679827d73167607bbdfe59b2","passed","","1241","","","","","","","","","","","","","","j","yesOrNo","","","","5","","","gt","3000","","","25","453.6711431702998","210.33"
"","","","","","html-keyboard-response","130","1452553","0.0-18.0-0.1","61bb392e40db417c1a138dcb","6790928bebf0b969fc839b02","679827d73167607bbdfe59b2","passed","","","","","","","","","","","","","","","","","ballFalling","322.3","356.42114317029973","357.87","4","fallScene","false","","","","","26","",""
"","","","","","html-keyboard-response","131","1455558","0.0-18.0-1.1","61bb392e40db417c1a138dcb","6790928bebf0b969fc839b02","679827d73167607bbdfe59b2","passed","","1157","","","","","","","","","","","","","","f","yesOrNo","","","","4","","","mid","3000","","","26","390.27114317029975","300"
"","","","","","html-keyboard-response","132","1457345","0.0-18.0-0.2","61bb392e40db417c1a138dcb","6790928bebf0b969fc839b02","679827d73167607bbdfe59b2","passed","","","","","","","","","","","","","","","","","ballFalling","322.3","308.07114317029976","253.89","2","fallScene","true","","","","","27","",""
"","","","","","html-keyboard-response","133","1460353","0.0-18.0-1.2","61bb392e40db417c1a138dcb","6790928bebf0b969fc839b02","679827d73167607bbdfe59b2","passed","","999","","","","","","","","","","","","","","j","yesOrNo","","","","2","","","gt","3000","","","27","308.07114317029976","253.89"
"","","","","","html-keyboard-response","134","1461890","0.0-18.0-0.3","61bb392e40db417c1a138dcb","6790928bebf0b969fc839b02","679827d73167607bbdfe59b2","passed","","","","","","","","","","","","","","","","","ballFalling","604.4000000000001","575.4211431702997","266.76","12","fallScene","true","","","","","28","",""
"","","","","","html-keyboard-response","135","1464896","0.0-18.0-1.3","61bb392e40db417c1a138dcb","6790928bebf0b969fc839b02","679827d73167607bbdfe59b2","passed","","981","","","","","","","","","","","","","","j","yesOrNo","","","","12","","","gt","3000","","","28","575.4211431702997","266.76"
"","","","","","html-keyboard-response","136","1466455","0.0-18.0-0.4","61bb392e40db417c1a138dcb","6790928bebf0b969fc839b02","679827d73167607bbdfe59b2","passed","","","","","","","","","","","","","","","","","ballFalling","604.4000000000001","575.4211431702997","266.76","12","fallScene","true","","","","","29","",""
"","","","","","html-keyboard-response","137","1469460","0.0-18.0-1.4","61bb392e40db417c1a138dcb","6790928bebf0b969fc839b02","679827d73167607bbdfe59b2","passed","","1296","","","","","","","","","","","","","","f","yesOrNo","","","","12","","","mid","3000","","","29","536.4288568297004","300"
"","","","","","html-keyboard-response","138","1471465","0.0-18.0-0.5","61bb392e40db417c1a138dcb","6790928bebf0b969fc839b02","679827d73167607bbdfe59b2","passed","","","","","","","","","","","","","","","","","ballFalling","604.4000000000001","596.8711431702998","394.5","10","fallScene","true","","","","","30","",""
"","","","","","html-keyboard-response","139","1474471","0.0-18.0-1.5","61bb392e40db417c1a138dcb","6790928bebf0b969fc839b02","679827d73167607bbdfe59b2","passed","","665","","","","","","","","","","","","","","j","yesOrNo","","","","10","","","lp","3000","","","30","603.4000000000001","215.50214355555383"
"","","","","","html-keyboard-response","140","1476043","0.0-18.0-0.6","61bb392e40db417c1a138dcb","6790928bebf0b969fc839b02","679827d73167607bbdfe59b2","passed","","","","","","","","","","","","","","","","","ballFalling","500","553.4711431702997","282.51","7","fallScene","true","","","","","31","",""
"","","","","","html-keyboard-response","141","1479049","0.0-18.0-1.6","61bb392e40db417c1a138dcb","6790928bebf0b969fc839b02","679827d73167607bbdfe59b2","passed","","828","","","","","","","","","","","","","","j","yesOrNo","","","","7","","","lp","3000","","","31","501","227.2843295913261"
"","","","","","html-keyboard-response","142","1480838","0.0-18.0-0.7","61bb392e40db417c1a138dcb","6790928bebf0b969fc839b02","679827d73167607bbdfe59b2","passed","","","","","","","","","","","","","","","","","ballFalling","322.3","308.07114317029976","253.89","2","fallScene","true","","","","","32","",""
"","","","","","html-keyboard-response","143","1483844","0.0-18.0-1.7","61bb392e40db417c1a138dcb","6790928bebf0b969fc839b02","679827d73167607bbdfe59b2","passed","","1022","","","","","","","","","","","","","","j","yesOrNo","","","","2","","","mid","3000","","","32","321.3","300"
"","","","","","html-keyboard-response","144","1485417","0.0-18.0-0.8","61bb392e40db417c1a138dcb","6790928bebf0b969fc839b02","679827d73167607bbdfe59b2","passed","","","","","","","","","","","","","","","","","ballFalling","500","553.4711431702997","282.51","7","fallScene","false","","","","","33","",""
"","","","","","html-keyboard-response","145","1488423","0.0-18.0-1.8","61bb392e40db417c1a138dcb","6790928bebf0b969fc839b02","679827d73167607bbdfe59b2","passed","","971","","","","","","","","","","","","","","j","yesOrNo","","","","7","","","mid","3000","","","33","501","300"
"","","","","","html-keyboard-response","146","1489979","0.0-18.0-0.9","61bb392e40db417c1a138dcb","6790928bebf0b969fc839b02","679827d73167607bbdfe59b2","passed","","","","","","","","","","","","","","","","","ballFalling","604.4000000000001","650.0211431702996","404.58000000000004","11","fallScene","false","","","","","34","",""
"","","","","","html-keyboard-response","147","1492985","0.0-18.0-1.9","61bb392e40db417c1a138dcb","6790928bebf0b969fc839b02","679827d73167607bbdfe59b2","passed","","1018","","","","","","","","","","","","","","j","yesOrNo","","","","11","","","gt","3000","","","34","650.0211431702996","404.58"
"","","","","","html-keyboard-response","148","1494990","0.0-18.0-0.10","61bb392e40db417c1a138dcb","6790928bebf0b969fc839b02","679827d73167607bbdfe59b2","passed","","","","","","","","","","","","","","","","","ballFalling","604.4000000000001","596.8711431702998","394.5","10","fallScene","false","","","","","35","",""
"","","","","","html-keyboard-response","149","1497997","0.0-18.0-1.10","61bb392e40db417c1a138dcb","6790928bebf0b969fc839b02","679827d73167607bbdfe59b2","passed","","684","","","","","","","","","","","","","","j","yesOrNo","","","","10","","","gt","3000","","","35","596.8711431702998","394.5"
"","","","","","html-keyboard-response","150","1499554","0.0-18.0-0.11","61bb392e40db417c1a138dcb","6790928bebf0b969fc839b02","679827d73167607bbdfe59b2","passed","","","","","","","","","","","","","","","","","ballFalling","322.3","296.07114317029976","371.46","3","fallScene","false","","","","","36","",""
"","","","","","html-keyboard-response","151","1502561","0.0-18.0-1.11","61bb392e40db417c1a138dcb","6790928bebf0b969fc839b02","679827d73167607bbdfe59b2","passed","","817","","","","","","","","","","","","","","j","yesOrNo","","","","3","","","lp","3000","","","36","321.3","287.3327096511259"
"","","","","","html-keyboard-response","152","1504115","0.0-18.0-0.12","61bb392e40db417c1a138dcb","6790928bebf0b969fc839b02","679827d73167607bbdfe59b2","passed","","","","","","","","","","","","","","","","","ballFalling","500","453.67114317029973","210.33","5","fallScene","true","","","","","37","",""
"","","","","","html-keyboard-response","153","1507122","0.0-18.0-1.12","61bb392e40db417c1a138dcb","6790928bebf0b969fc839b02","679827d73167607bbdfe59b2","passed","","827","","","","","","","","","","","","","","j","yesOrNo","","","","5","","","mid","3000","","","37","499","300"
"","","","","","html-keyboard-response","154","1508644","0.0-18.0-0.13","61bb392e40db417c1a138dcb","6790928bebf0b969fc839b02","679827d73167607bbdfe59b2","passed","","","","","","","","","","","","","","","","","ballFalling","322.3","379.3711431702997","245.25","1","fallScene","true","","","","","38","",""
"","","","","","html-keyboard-response","155","1511649","0.0-18.0-1.13","61bb392e40db417c1a138dcb","6790928bebf0b969fc839b02","679827d73167607bbdfe59b2","passed","","1186","","","","","","","","","","","","","","j","yesOrNo","","","","1","","","mid","3000","","","38","390.27114317029975","300"
"","","","","","html-keyboard-response","156","1513306","0.0-18.0-0.14","61bb392e40db417c1a138dcb","6790928bebf0b969fc839b02","679827d73167607bbdfe59b2","passed","","","","","","","","","","","","","","","","","ballFalling","500","479.92114317029973","330.87","6","fallScene","false","","","","","39","",""
"","","","","","html-keyboard-response","157","1516315","0.0-18.0-1.14","61bb392e40db417c1a138dcb","6790928bebf0b969fc839b02","679827d73167607bbdfe59b2","passed","","695","","","","","","","","","","","","","","j","yesOrNo","","","","6","","","gt","3000","","","39","479.9211431702998","330.87"
"","","","","","html-keyboard-response","158","1517801","0.0-18.0-0.15","61bb392e40db417c1a138dcb","6790928bebf0b969fc839b02","679827d73167607bbdfe59b2","passed","","","","","","","","","","","","","","","","","ballFalling","604.4000000000001","667.6211431702998","201.78","9","fallScene","false","","","","","40","",""
"","","","","","html-keyboard-response","159","1520809","0.0-18.0-1.15","61bb392e40db417c1a138dcb","6790928bebf0b969fc839b02","679827d73167607bbdfe59b2","passed","","950","","","","","","","","","","","","","","j","yesOrNo","","","","9","","","mid","3000","","","40","605.4000000000001","300"
"","","","","","html-keyboard-response","160","1522463","0.0-18.0-0.16","61bb392e40db417c1a138dcb","6790928bebf0b969fc839b02","679827d73167607bbdfe59b2","passed","","","","","","","","","","","","","","","","","ballFalling","500","479.92114317029973","330.87","6","fallScene","false","","","","","41","",""
"","","","","","html-keyboard-response","161","1525471","0.0-18.0-1.16","61bb392e40db417c1a138dcb","6790928bebf0b969fc839b02","679827d73167607bbdfe59b2","passed","","721","","","","","","","","","","","","","","j","yesOrNo","","","","6","","","gt","3000","","","41","479.9211431702998","330.87"
"","","","","","html-keyboard-response","162","1527475","0.0-18.0-0.17","61bb392e40db417c1a138dcb","6790928bebf0b969fc839b02","679827d73167607bbdfe59b2","passed","","","","","","","","","","","","","","","","","ballFalling","604.4000000000001","596.8711431702998","394.5","10","fallScene","false","","","","","42","",""
"","","","","","html-keyboard-response","163","1530484","0.0-18.0-1.17","61bb392e40db417c1a138dcb","6790928bebf0b969fc839b02","679827d73167607bbdfe59b2","passed","","1167","","","","","","","","","","","","","","j","yesOrNo","","","","10","","","mid","3000","","","42","536.4288568297004","300"
"","","","","","html-keyboard-response","164","1532037","0.0-18.0-0.18","61bb392e40db417c1a138dcb","6790928bebf0b969fc839b02","679827d73167607bbdfe59b2","passed","","","","","","","","","","","","","","","","","ballFalling","500","453.67114317029973","210.33","5","fallScene","true","","","","","43","",""
"","","","","","html-keyboard-response","165","1535044","0.0-18.0-1.18","61bb392e40db417c1a138dcb","6790928bebf0b969fc839b02","679827d73167607bbdfe59b2","passed","","1089","","","","","","","","","","","","","","j","yesOrNo","","","","5","","","gt","3000","","","43","453.6711431702998","210.33"
"","","","","","html-keyboard-response","166","1537048","0.0-18.0-0.19","61bb392e40db417c1a138dcb","6790928bebf0b969fc839b02","679827d73167607bbdfe59b2","passed","","","","","","","","","","","","","","","","","ballFalling","604.4000000000001","596.8711431702998","394.5","10","fallScene","true","","","","","44","",""
"","","","","","html-keyboard-response","167","1540056","0.0-18.0-1.19","61bb392e40db417c1a138dcb","6790928bebf0b969fc839b02","679827d73167607bbdfe59b2","passed","","1466","","","","","","","","","","","","","","f","yesOrNo","","","","10","","","mid","3000","","","44","536.4288568297004","300"
"","","","","","html-keyboard-response","168","1542060","0.0-18.0-0.20","61bb392e40db417c1a138dcb","6790928bebf0b969fc839b02","679827d73167607bbdfe59b2","passed","","","","","","","","","","","","","","","","","ballFalling","500","510.8711431702997","369.03","8","fallScene","false","","","","","45","",""
"","","","","","html-keyboard-response","169","1545068","0.0-18.0-1.20","61bb392e40db417c1a138dcb","6790928bebf0b969fc839b02","679827d73167607bbdfe59b2","passed","","622","","","","","","","","","","","","","","j","yesOrNo","","","","8","","","mid","3000","","","45","501","300"
"","","","","","html-keyboard-response","170","1547072","0.0-18.0-0.21","61bb392e40db417c1a138dcb","6790928bebf0b969fc839b02","679827d73167607bbdfe59b2","passed","","","","","","","","","","","","","","","","","ballFalling","500","510.8711431702997","369.03","8","fallScene","true","","","","","46","",""
"","","","","","html-keyboard-response","171","1550080","0.0-18.0-1.21","61bb392e40db417c1a138dcb","6790928bebf0b969fc839b02","679827d73167607bbdfe59b2","passed","","647","","","","","","","","","","","","","","j","yesOrNo","","","","8","","","gt","3000","","","46","510.8711431702997","369.03"
"","","","","","html-keyboard-response","172","1551567","0.0-18.0-0.22","61bb392e40db417c1a138dcb","6790928bebf0b969fc839b02","679827d73167607bbdfe59b2","passed","","","","","","","","","","","","","","","","","ballFalling","604.4000000000001","667.6211431702998","201.78","9","fallScene","true","","","","","47","",""
"","","","","","html-keyboard-response","173","1554576","0.0-18.0-1.22","61bb392e40db417c1a138dcb","6790928bebf0b969fc839b02","679827d73167607bbdfe59b2","passed","","674","","","","","","","","","","","","","","j","yesOrNo","","","","9","","","lp","3000","","","47","605.4000000000001","151"
"","","","","","html-keyboard-response","174","1556364","0.0-18.0-0.23","61bb392e40db417c1a138dcb","6790928bebf0b969fc839b02","679827d73167607bbdfe59b2","passed","","","","","","","","","","","","","","","","","ballFalling","322.3","308.07114317029976","253.89","2","fallScene","true","","","","","48","",""
"","","","","","html-keyboard-response","175","1559370","0.0-18.0-1.23","61bb392e40db417c1a138dcb","6790928bebf0b969fc839b02","679827d73167607bbdfe59b2","passed","","1082","","","","","","","","","","","","","","j","yesOrNo","","","","2","","","gt","3000","","","48","308.07114317029976","253.89"
"","","","","","html-keyboard-response","176","1562675","0.0-19.0","61bb392e40db417c1a138dcb","6790928bebf0b969fc839b02","679827d73167607bbdfe59b2","passed","","3304","","","","","","","","","","","","","<p><span style=""font-size:40px;"">BLOCK 3</span></p><p><span style=""font-size:25px;"">You have <b style=""color: #FF644F;""><strong>1 second(s)</strong></b> to respond to the following trials.</span><br></p><p></p> <!-- Blank line -->
                <p id=""blinking-text"" style=""font-weight; animation: blink 2s infinite;"">Press Space to continue</p>
                <style>
                    @keyframes blink {
                        50% {
                            opacity: 0;
                        }
                    }
                </style></p>"," ","","","","","","","","","","","","","",""
"","","","","","html-keyboard-response","177","1564239","0.0-20.0-0.0","61bb392e40db417c1a138dcb","6790928bebf0b969fc839b02","679827d73167607bbdfe59b2","passed","","","","","","","","","","","","","","","","","ballFalling","500","453.67114317029973","210.33","5","fallScene","false","","","","","49","",""
"","","","","","html-keyboard-response","178","1565245","0.0-20.0-1.0","61bb392e40db417c1a138dcb","6790928bebf0b969fc839b02","679827d73167607bbdfe59b2","passed","","652","","","","","","","","","","","","","","j","yesOrNo","","","","5","","","mid","1000","","","49","499","300"
"","","","","","html-keyboard-response","179","1567253","0.0-20.0-0.1","61bb392e40db417c1a138dcb","6790928bebf0b969fc839b02","679827d73167607bbdfe59b2","passed","","","","","","","","","","","","","","","","","ballFalling","500","510.8711431702997","369.03","8","fallScene","false","","","","","50","",""
"","","","","","html-keyboard-response","180","1568259","0.0-20.0-1.1","61bb392e40db417c1a138dcb","6790928bebf0b969fc839b02","679827d73167607bbdfe59b2","passed","","603","","","","","","","","","","","","","","j","yesOrNo","","","","8","","","lp","1000","","","50","501","151"
"","","","","","html-keyboard-response","181","1569749","0.0-20.0-0.2","61bb392e40db417c1a138dcb","6790928bebf0b969fc839b02","679827d73167607bbdfe59b2","passed","","","","","","","","","","","","","","","","","ballFalling","604.4000000000001","667.6211431702998","201.78","9","fallScene","true","","","","","51","",""
"","","","","","html-keyboard-response","182","1570756","0.0-20.0-1.2","61bb392e40db417c1a138dcb","6790928bebf0b969fc839b02","679827d73167607bbdfe59b2","passed","","490","","","","","","","","","","","","","","j","yesOrNo","","","","9","","","mid","1000","","","51","605.4000000000001","300"
"","","","","","html-keyboard-response","183","1572336","0.0-20.0-0.3","61bb392e40db417c1a138dcb","6790928bebf0b969fc839b02","679827d73167607bbdfe59b2","passed","","","","","","","","","","","","","","","","","ballFalling","500","553.4711431702997","282.51","7","fallScene","true","","","","","52","",""
"","","","","","html-keyboard-response","184","1573341","0.0-20.0-1.3","61bb392e40db417c1a138dcb","6790928bebf0b969fc839b02","679827d73167607bbdfe59b2","passed","","479","","","","","","","","","","","","","","j","yesOrNo","","","","7","","","gt","1000","","","52","553.4711431702997","282.51"
"","","","","","html-keyboard-response","185","1574894","0.0-20.0-0.4","61bb392e40db417c1a138dcb","6790928bebf0b969fc839b02","679827d73167607bbdfe59b2","passed","","","","","","","","","","","","","","","","","ballFalling","322.3","356.42114317029973","357.87","4","fallScene","true","","","","","53","",""
"","","","","","html-keyboard-response","186","1575900","0.0-20.0-1.4","61bb392e40db417c1a138dcb","6790928bebf0b969fc839b02","679827d73167607bbdfe59b2","passed","","575","","","","","","","","","","","","","","j","yesOrNo","","","","4","","","lp","1000","","","53","323.3","297.4070551689986"
"","","","","","html-keyboard-response","187","1577691","0.0-20.0-0.5","61bb392e40db417c1a138dcb","6790928bebf0b969fc839b02","679827d73167607bbdfe59b2","passed","","","","","","","","","","","","","","","","","ballFalling","322.3","308.07114317029976","253.89","2","fallScene","false","","","","","54","",""
"","","","","","html-keyboard-response","188","1578698","0.0-20.0-1.5","61bb392e40db417c1a138dcb","6790928bebf0b969fc839b02","679827d73167607bbdfe59b2","passed","","553","","","","","","","","","","","","","","j","yesOrNo","","","","2","","","lp","1000","","","54","321.3","151"
"","","","","","html-keyboard-response","189","1580255","0.0-20.0-0.6","61bb392e40db417c1a138dcb","6790928bebf0b969fc839b02","679827d73167607bbdfe59b2","passed","","","","","","","","","","","","","","","","","ballFalling","322.3","379.3711431702997","245.25","1","fallScene","true","","","","","55","",""
"","","","","","html-keyboard-response","190","1581260","0.0-20.0-1.6","61bb392e40db417c1a138dcb","6790928bebf0b969fc839b02","679827d73167607bbdfe59b2","passed","","650","","","","","","","","","","","","","","j","yesOrNo","","","","1","","","gt","1000","","","55","379.3711431702997","245.25"
"","","","","","html-keyboard-response","191","1582919","0.0-20.0-0.7","61bb392e40db417c1a138dcb","6790928bebf0b969fc839b02","679827d73167607bbdfe59b2","passed","","","","","","","","","","","","","","","","","ballFalling","500","479.92114317029973","330.87","6","fallScene","true","","","","","56","",""
"","","","","","html-keyboard-response","192","1583926","0.0-20.0-1.7","61bb392e40db417c1a138dcb","6790928bebf0b969fc839b02","679827d73167607bbdfe59b2","passed","","714","","","","","","","","","","","","","","j","yesOrNo","","","","6","","","mid","1000","","","56","499","300"
"","","","","","html-keyboard-response","193","1585483","0.0-20.0-0.8","61bb392e40db417c1a138dcb","6790928bebf0b969fc839b02","679827d73167607bbdfe59b2","passed","","","","","","","","","","","","","","","","","ballFalling","604.4000000000001","650.0211431702996","404.58000000000004","11","fallScene","false","","","","","57","",""
"","","","","","html-keyboard-response","194","1586506","0.0-20.0-1.8","61bb392e40db417c1a138dcb","6790928bebf0b969fc839b02","679827d73167607bbdfe59b2","passed","","654","","","","","","","","","","","","","","j","yesOrNo","","","","11","","","mid","1000","","","57","605.4000000000001","300"
"","","","","","html-keyboard-response","195","1588514","0.0-20.0-0.9","61bb392e40db417c1a138dcb","6790928bebf0b969fc839b02","679827d73167607bbdfe59b2","passed","","","","","","","","","","","","","","","","","ballFalling","604.4000000000001","596.8711431702998","394.5","10","fallScene","true","","","","","58","",""
"","","","","","html-keyboard-response","196","1589520","0.0-20.0-1.9","61bb392e40db417c1a138dcb","6790928bebf0b969fc839b02","679827d73167607bbdfe59b2","passed","","521","","","","","","","","","","","","","","j","yesOrNo","","","","10","","","lp","1000","","","58","603.4000000000001","215.50214355555383"
"","","","","","html-keyboard-response","197","1591527","0.0-20.0-0.10","61bb392e40db417c1a138dcb","6790928bebf0b969fc839b02","679827d73167607bbdfe59b2","passed","","","","","","","","","","","","","","","","","ballFalling","500","510.8711431702997","369.03","8","fallScene","false","","","","","59","",""
"","","","","","html-keyboard-response","198","1592534","0.0-20.0-1.10","61bb392e40db417c1a138dcb","6790928bebf0b969fc839b02","679827d73167607bbdfe59b2","passed","","517","","","","","","","","","","","","","","j","yesOrNo","","","","8","","","mid","1000","","","59","501","300"
"","","","","","html-keyboard-response","199","1594093","0.0-20.0-0.11","61bb392e40db417c1a138dcb","6790928bebf0b969fc839b02","679827d73167607bbdfe59b2","passed","","","","","","","","","","","","","","","","","ballFalling","322.3","379.3711431702997","245.25","1","fallScene","true","","","","","60","",""
"","","","","","html-keyboard-response","200","1595099","0.0-20.0-1.11","61bb392e40db417c1a138dcb","6790928bebf0b969fc839b02","679827d73167607bbdfe59b2","passed","","434","","","","","","","","","","","","","","f","yesOrNo","","","","1","","","mid","1000","","","60","390.27114317029975","300"
"","","","","","html-keyboard-response","201","1596656","0.0-20.0-0.12","61bb392e40db417c1a138dcb","6790928bebf0b969fc839b02","679827d73167607bbdfe59b2","passed","","","","","","","","","","","","","","","","","ballFalling","604.4000000000001","650.0211431702996","404.58000000000004","11","fallScene","false","","","","","61","",""
"","","","","","html-keyboard-response","202","1597662","0.0-20.0-1.12","61bb392e40db417c1a138dcb","6790928bebf0b969fc839b02","679827d73167607bbdfe59b2","passed","","572","","","","","","","","","","","","","","f","yesOrNo","","","","11","","","gt","1000","","","61","650.0211431702996","404.58"
"","","","","","html-keyboard-response","203","1599220","0.0-20.0-0.13","61bb392e40db417c1a138dcb","6790928bebf0b969fc839b02","679827d73167607bbdfe59b2","passed","","","","","","","","","","","","","","","","","ballFalling","322.3","296.07114317029976","371.46","3","fallScene","false","","","","","62","",""
"","","","","","html-keyboard-response","204","1600226","0.0-20.0-1.13","61bb392e40db417c1a138dcb","6790928bebf0b969fc839b02","679827d73167607bbdfe59b2","passed","","787","","","","","","","","","","","","","","f","yesOrNo","","","","3","","","gt","1000","","","62","296.07114317029976","371.46"
"","","","","","html-keyboard-response","205","1601784","0.0-20.0-0.14","61bb392e40db417c1a138dcb","6790928bebf0b969fc839b02","679827d73167607bbdfe59b2","passed","","","","","","","","","","","","","","","","","ballFalling","500","453.67114317029973","210.33","5","fallScene","false","","","","","63","",""
"","","","","","html-keyboard-response","206","1602790","0.0-20.0-1.14","61bb392e40db417c1a138dcb","6790928bebf0b969fc839b02","679827d73167607bbdfe59b2","passed","","981","","","","","","","","","","","","","","j","yesOrNo","","","","5","","","gt","1000","","","63","453.6711431702998","210.33"
"","","","","","html-keyboard-response","207","1604365","0.0-20.0-0.15","61bb392e40db417c1a138dcb","6790928bebf0b969fc839b02","679827d73167607bbdfe59b2","passed","","","","","","","","","","","","","","","","","ballFalling","500","553.4711431702997","282.51","7","fallScene","false","","","","","64","",""
"","","","","","html-keyboard-response","208","1605371","0.0-20.0-1.15","61bb392e40db417c1a138dcb","6790928bebf0b969fc839b02","679827d73167607bbdfe59b2","passed","","981","","","","","","","","","","","","","","f","yesOrNo","","","","7","","","gt","1000","","","64","553.4711431702997","282.51"
"","","","","","html-keyboard-response","209","1606929","0.0-20.0-0.16","61bb392e40db417c1a138dcb","6790928bebf0b969fc839b02","679827d73167607bbdfe59b2","passed","","","","","","","","","","","","","","","","","ballFalling","322.3","379.3711431702997","245.25","1","fallScene","true","","","","","65","",""
"","","","","","html-keyboard-response","210","1607936","0.0-20.0-1.16","61bb392e40db417c1a138dcb","6790928bebf0b969fc839b02","679827d73167607bbdfe59b2","passed","","982","","","","","","","","","","","","","","f","yesOrNo","","","","1","","","gt","1000","","","65","379.3711431702997","245.25"
"","","","","","html-keyboard-response","211","1609593","0.0-20.0-0.17","61bb392e40db417c1a138dcb","6790928bebf0b969fc839b02","679827d73167607bbdfe59b2","passed","","","","","","","","","","","","","","","","","ballFalling","500","479.92114317029973","330.87","6","fallScene","false","","","","","66","",""
"","","","","","html-keyboard-response","212","1610599","0.0-20.0-1.17","61bb392e40db417c1a138dcb","6790928bebf0b969fc839b02","679827d73167607bbdfe59b2","passed","","539","","","","","","","","","","","","","","j","yesOrNo","","","","6","","","lp","1000","","","66","499","189.92909825697632"
"","","","","","html-keyboard-response","213","1612158","0.0-20.0-0.18","61bb392e40db417c1a138dcb","6790928bebf0b969fc839b02","679827d73167607bbdfe59b2","passed","","","","","","","","","","","","","","","","","ballFalling","322.3","379.3711431702997","245.25","1","fallScene","false","","","","","67","",""
"","","","","","html-keyboard-response","214","1613164","0.0-20.0-1.18","61bb392e40db417c1a138dcb","6790928bebf0b969fc839b02","679827d73167607bbdfe59b2","passed","","917","","","","","","","","","","","","","","f","yesOrNo","","","","1","","","mid","1000","","","67","390.27114317029975","300"
"","","","","","html-keyboard-response","215","1614955","0.0-20.0-0.19","61bb392e40db417c1a138dcb","6790928bebf0b969fc839b02","679827d73167607bbdfe59b2","passed","","","","","","","","","","","","","","","","","ballFalling","322.3","308.07114317029976","253.89","2","fallScene","true","","","","","68","",""
"","","","","","html-keyboard-response","216","1615960","0.0-20.0-1.19","61bb392e40db417c1a138dcb","6790928bebf0b969fc839b02","679827d73167607bbdfe59b2","passed","","898","","","","","","","","","","","","","","j","yesOrNo","","","","2","","","gt","1000","","","68","308.07114317029976","253.89"
"","","","","","html-keyboard-response","217","1617522","0.0-20.0-0.20","61bb392e40db417c1a138dcb","6790928bebf0b969fc839b02","679827d73167607bbdfe59b2","passed","","","","","","","","","","","","","","","","","ballFalling","322.3","296.07114317029976","371.46","3","fallScene","true","","","","","69","",""
"","","","","","html-keyboard-response","218","1618531","0.0-20.0-1.20","61bb392e40db417c1a138dcb","6790928bebf0b969fc839b02","679827d73167607bbdfe59b2","passed","","561","","","","","","","","","","","","","","j","yesOrNo","","","","3","","","mid","1000","","","69","321.3","300"
"","","","","","html-keyboard-response","219","1620085","0.0-20.0-0.21","61bb392e40db417c1a138dcb","6790928bebf0b969fc839b02","679827d73167607bbdfe59b2","passed","","","","","","","","","","","","","","","","","ballFalling","604.4000000000001","575.4211431702997","266.76","12","fallScene","false","","","","","70","",""
"","","","","","html-keyboard-response","220","1621094","0.0-20.0-1.21","61bb392e40db417c1a138dcb","6790928bebf0b969fc839b02","679827d73167607bbdfe59b2","passed","","647","","","","","","","","","","","","","","j","yesOrNo","","","","12","","","gt","1000","","","70","575.4211431702997","266.76"
"","","","","","html-keyboard-response","221","1622865","0.0-20.0-0.22","61bb392e40db417c1a138dcb","6790928bebf0b969fc839b02","679827d73167607bbdfe59b2","passed","","","","","","","","","","","","","","","","","ballFalling","322.3","308.07114317029976","253.89","2","fallScene","true","","","","","71","",""
"","","","","","html-keyboard-response","222","1623870","0.0-20.0-1.22","61bb392e40db417c1a138dcb","6790928bebf0b969fc839b02","679827d73167607bbdfe59b2","passed","","559","","","","","","","","","","","","","","j","yesOrNo","","","","2","","","mid","1000","","","71","321.3","300"
"","","","","","html-keyboard-response","223","1625410","0.0-20.0-0.23","61bb392e40db417c1a138dcb","6790928bebf0b969fc839b02","679827d73167607bbdfe59b2","passed","","","","","","","","","","","","","","","","","ballFalling","604.4000000000001","650.0211431702996","404.58000000000004","11","fallScene","false","","","","","72","",""
"","","","","","html-keyboard-response","224","1626427","0.0-20.0-1.23","61bb392e40db417c1a138dcb","6790928bebf0b969fc839b02","679827d73167607bbdfe59b2","passed","","516","","","","","","","","","","","","","","j","yesOrNo","","","","11","","","lp","1000","","","72","605.4000000000001","372.6340973215488"
"","","","","","html-keyboard-response","225","1637299","0.0-21.0","61bb392e40db417c1a138dcb","6790928bebf0b969fc839b02","679827d73167607bbdfe59b2","passed","","10871","","","","","","","","","","","","","<p><span style=""font-size:40px;"">BLOCK 4</span></p><p><span style=""font-size:25px;"">You have <b style=""color: #FF644F;""><strong>1 second(s)</strong></b> to respond to the following trials.</span><br></p><p></p> <!-- Blank line -->
                <p id=""blinking-text"" style=""font-weight; animation: blink 2s infinite;"">Press Space to continue</p>
                <style>
                    @keyframes blink {
                        50% {
                            opacity: 0;
                        }
                    }
                </style></p>"," ","","","","","","","","","","","","","",""
"","","","","","html-keyboard-response","226","1638763","0.0-22.0-0.0","61bb392e40db417c1a138dcb","6790928bebf0b969fc839b02","679827d73167607bbdfe59b2","passed","","","","","","","","","","","","","","","","","ballFalling","604.4000000000001","667.6211431702998","201.78","9","fallScene","true","","","","","73","",""
"","","","","","html-keyboard-response","227","1639770","0.0-22.0-1.0","61bb392e40db417c1a138dcb","6790928bebf0b969fc839b02","679827d73167607bbdfe59b2","passed","","556","","","","","","","","","","","","","","j","yesOrNo","","","","9","","","lp","1000","","","73","605.4000000000001","151"
"","","","","","html-keyboard-response","228","1641244","0.0-22.0-0.1","61bb392e40db417c1a138dcb","6790928bebf0b969fc839b02","679827d73167607bbdfe59b2","passed","","","","","","","","","","","","","","","","","ballFalling","604.4000000000001","667.6211431702998","201.78","9","fallScene","true","","","","","74","",""
"","","","","","html-keyboard-response","229","1642252","0.0-22.0-1.1","61bb392e40db417c1a138dcb","6790928bebf0b969fc839b02","679827d73167607bbdfe59b2","passed","","null","","","","","","","","","","","","","","null","yesOrNo","","","","9","","","gt","1000","","","74","667.6211431702998","201.78"
"","","","","","html-keyboard-response","230","1644258","0.0-22.0-0.2","61bb392e40db417c1a138dcb","6790928bebf0b969fc839b02","679827d73167607bbdfe59b2","passed","","","","","","","","","","","","","","","","","ballFalling","604.4000000000001","596.8711431702998","394.5","10","fallScene","false","","","","","75","",""
"","","","","","html-keyboard-response","231","1645264","0.0-22.0-1.2","61bb392e40db417c1a138dcb","6790928bebf0b969fc839b02","679827d73167607bbdfe59b2","passed","","null","","","","","","","","","","","","","","null","yesOrNo","","","","10","","","gt","1000","","","75","596.8711431702998","394.5"
"","","","","","html-keyboard-response","232","1646905","0.0-22.0-0.3","61bb392e40db417c1a138dcb","6790928bebf0b969fc839b02","679827d73167607bbdfe59b2","passed","","","","","","","","","","","","","","","","","ballFalling","500","479.92114317029973","330.87","6","fallScene","false","","","","","76","",""
"","","","","","html-keyboard-response","233","1647912","0.0-22.0-1.3","61bb392e40db417c1a138dcb","6790928bebf0b969fc839b02","679827d73167607bbdfe59b2","passed","","393","","","","","","","","","","","","","","j","yesOrNo","","","","6","","","mid","1000","","","76","499","300"
"","","","","","html-keyboard-response","234","1649902","0.0-22.0-0.4","61bb392e40db417c1a138dcb","6790928bebf0b969fc839b02","679827d73167607bbdfe59b2","passed","","","","","","","","","","","","","","","","","ballFalling","500","510.8711431702997","369.03","8","fallScene","false","","","","","77","",""
"","","","","","html-keyboard-response","235","1650908","0.0-22.0-1.4","61bb392e40db417c1a138dcb","6790928bebf0b969fc839b02","679827d73167607bbdfe59b2","passed","","550","","","","","","","","","","","","","","j","yesOrNo","","","","8","","","lp","1000","","","77","501","151"
"","","","","","html-keyboard-response","236","1652700","0.0-22.0-0.5","61bb392e40db417c1a138dcb","6790928bebf0b969fc839b02","679827d73167607bbdfe59b2","passed","","","","","","","","","","","","","","","","","ballFalling","322.3","308.07114317029976","253.89","2","fallScene","false","","","","","78","",""
"","","","","","html-keyboard-response","237","1653706","0.0-22.0-1.5","61bb392e40db417c1a138dcb","6790928bebf0b969fc839b02","679827d73167607bbdfe59b2","passed","","815","","","","","","","","","","","","","","j","yesOrNo","","","","2","","","mid","1000","","","78","321.3","300"
"","","","","","html-keyboard-response","238","1655713","0.0-22.0-0.6","61bb392e40db417c1a138dcb","6790928bebf0b969fc839b02","679827d73167607bbdfe59b2","passed","","","","","","","","","","","","","","","","","ballFalling","604.4000000000001","596.8711431702998","394.5","10","fallScene","true","","","","","79","",""
"","","","","","html-keyboard-response","239","1656719","0.0-22.0-1.6","61bb392e40db417c1a138dcb","6790928bebf0b969fc839b02","679827d73167607bbdfe59b2","passed","","477","","","","","","","","","","","","","","j","yesOrNo","","","","10","","","lp","1000","","","79","603.4000000000001","215.50214355555383"
"","","","","","html-keyboard-response","240","1658277","0.0-22.0-0.7","61bb392e40db417c1a138dcb","6790928bebf0b969fc839b02","679827d73167607bbdfe59b2","passed","","","","","","","","","","","","","","","","","ballFalling","604.4000000000001","650.0211431702996","404.58000000000004","11","fallScene","true","","","","","80","",""
"","","","","","html-keyboard-response","241","1659283","0.0-22.0-1.7","61bb392e40db417c1a138dcb","6790928bebf0b969fc839b02","679827d73167607bbdfe59b2","passed","","581","","","","","","","","","","","","","","j","yesOrNo","","","","11","","","mid","1000","","","80","605.4000000000001","300"
"","","","","","html-keyboard-response","242","1660827","0.0-22.0-0.8","61bb392e40db417c1a138dcb","6790928bebf0b969fc839b02","679827d73167607bbdfe59b2","passed","","","","","","","","","","","","","","","","","ballFalling","322.3","356.42114317029973","357.87","4","fallScene","false","","","","","81","",""
"","","","","","html-keyboard-response","243","1661833","0.0-22.0-1.8","61bb392e40db417c1a138dcb","6790928bebf0b969fc839b02","679827d73167607bbdfe59b2","passed","","null","","","","","","","","","","","","","","null","yesOrNo","","","","4","","","mid","1000","","","81","390.27114317029975","300"
"","","","","","html-keyboard-response","244","1663408","0.0-22.0-0.9","61bb392e40db417c1a138dcb","6790928bebf0b969fc839b02","679827d73167607bbdfe59b2","passed","","","","","","","","","","","","","","","","","ballFalling","500","553.4711431702997","282.51","7","fallScene","true","","","","","82","",""
"","","","","","html-keyboard-response","245","1664413","0.0-22.0-1.9","61bb392e40db417c1a138dcb","6790928bebf0b969fc839b02","679827d73167607bbdfe59b2","passed","","663","","","","","","","","","","","","","","j","yesOrNo","","","","7","","","lp","1000","","","82","501","227.2843295913261"
"","","","","","html-keyboard-response","246","1665986","0.0-22.0-0.10","61bb392e40db417c1a138dcb","6790928bebf0b969fc839b02","679827d73167607bbdfe59b2","passed","","","","","","","","","","","","","","","","","ballFalling","500","553.4711431702997","282.51","7","fallScene","false","","","","","83","",""
"","","","","","html-keyboard-response","247","1666994","0.0-22.0-1.10","61bb392e40db417c1a138dcb","6790928bebf0b969fc839b02","679827d73167607bbdfe59b2","passed","","788","","","","","","","","","","","","","","j","yesOrNo","","","","7","","","mid","1000","","","83","501","300"
"","","","","","html-keyboard-response","248","1668487","0.0-22.0-0.11","61bb392e40db417c1a138dcb","6790928bebf0b969fc839b02","679827d73167607bbdfe59b2","passed","","","","","","","","","","","","","","","","","ballFalling","604.4000000000001","667.6211431702998","201.78","9","fallScene","true","","","","","84","",""
"","","","","","html-keyboard-response","249","1669493","0.0-22.0-1.11","61bb392e40db417c1a138dcb","6790928bebf0b969fc839b02","679827d73167607bbdfe59b2","passed","","512","","","","","","","","","","","","","","j","yesOrNo","","","","9","","","gt","1000","","","84","667.6211431702998","201.78"
"","","","","","html-keyboard-response","250","1671148","0.0-22.0-0.12","61bb392e40db417c1a138dcb","6790928bebf0b969fc839b02","679827d73167607bbdfe59b2","passed","","","","","","","","","","","","","","","","","ballFalling","500","479.92114317029973","330.87","6","fallScene","false","","","","","85","",""
"","","","","","html-keyboard-response","251","1672154","0.0-22.0-1.12","61bb392e40db417c1a138dcb","6790928bebf0b969fc839b02","679827d73167607bbdfe59b2","passed","","583","","","","","","","","","","","","","","j","yesOrNo","","","","6","","","gt","1000","","","85","479.9211431702998","330.87"
"","","","","","html-keyboard-response","252","1673719","0.0-22.0-0.13","61bb392e40db417c1a138dcb","6790928bebf0b969fc839b02","679827d73167607bbdfe59b2","passed","","","","","","","","","","","","","","","","","ballFalling","604.4000000000001","650.0211431702996","404.58000000000004","11","fallScene","true","","","","","86","",""
"","","","","","html-keyboard-response","253","1674723","0.0-22.0-1.13","61bb392e40db417c1a138dcb","6790928bebf0b969fc839b02","679827d73167607bbdfe59b2","passed","","782","","","","","","","","","","","","","","f","yesOrNo","","","","11","","","gt","1000","","","86","650.0211431702996","404.58"
"","","","","","html-keyboard-response","254","1676283","0.0-22.0-0.14","61bb392e40db417c1a138dcb","6790928bebf0b969fc839b02","679827d73167607bbdfe59b2","passed","","","","","","","","","","","","","","","","","ballFalling","322.3","356.42114317029973","357.87","4","fallScene","true","","","","","87","",""
"","","","","","html-keyboard-response","255","1677288","0.0-22.0-1.14","61bb392e40db417c1a138dcb","6790928bebf0b969fc839b02","679827d73167607bbdfe59b2","passed","","863","","","","","","","","","","","","","","j","yesOrNo","","","","4","","","lp","1000","","","87","323.3","297.4070551689986"
"","","","","","html-keyboard-response","256","1678824","0.0-22.0-0.15","61bb392e40db417c1a138dcb","6790928bebf0b969fc839b02","679827d73167607bbdfe59b2","passed","","","","","","","","","","","","","","","","","ballFalling","500","453.67114317029973","210.33","5","fallScene","false","","","","","88","",""
"","","","","","html-keyboard-response","257","1679831","0.0-22.0-1.15","61bb392e40db417c1a138dcb","6790928bebf0b969fc839b02","679827d73167607bbdfe59b2","passed","","573","","","","","","","","","","","","","","j","yesOrNo","","","","5","","","mid","1000","","","88","499","300"
"","","","","","html-keyboard-response","258","1681305","0.0-22.0-0.16","61bb392e40db417c1a138dcb","6790928bebf0b969fc839b02","679827d73167607bbdfe59b2","passed","","","","","","","","","","","","","","","","","ballFalling","604.4000000000001","667.6211431702998","201.78","9","fallScene","false","","","","","89","",""
"","","","","","html-keyboard-response","259","1682311","0.0-22.0-1.16","61bb392e40db417c1a138dcb","6790928bebf0b969fc839b02","679827d73167607bbdfe59b2","passed","","649","","","","","","","","","","","","","","j","yesOrNo","","","","9","","","mid","1000","","","89","605.4000000000001","300"
"","","","","","html-keyboard-response","260","1683852","0.0-22.0-0.17","61bb392e40db417c1a138dcb","6790928bebf0b969fc839b02","679827d73167607bbdfe59b2","passed","","","","","","","","","","","","","","","","","ballFalling","604.4000000000001","650.0211431702996","404.58000000000004","11","fallScene","false","","","","","90","",""
"","","","","","html-keyboard-response","261","1684862","0.0-22.0-1.17","61bb392e40db417c1a138dcb","6790928bebf0b969fc839b02","679827d73167607bbdfe59b2","passed","","779","","","","","","","","","","","","","","j","yesOrNo","","","","11","","","lp","1000","","","90","605.4000000000001","372.6340973215488"
"","","","","","html-keyboard-response","262","1686509","0.0-22.0-0.18","61bb392e40db417c1a138dcb","6790928bebf0b969fc839b02","679827d73167607bbdfe59b2","passed","","","","","","","","","","","","","","","","","ballFalling","500","479.92114317029973","330.87","6","fallScene","true","","","","","91","",""
"","","","","","html-keyboard-response","263","1687514","0.0-22.0-1.18","61bb392e40db417c1a138dcb","6790928bebf0b969fc839b02","679827d73167607bbdfe59b2","passed","","788","","","","","","","","","","","","","","j","yesOrNo","","","","6","","","gt","1000","","","91","479.9211431702998","330.87"
"","","","","","html-keyboard-response","264","1688964","0.0-22.0-0.19","61bb392e40db417c1a138dcb","6790928bebf0b969fc839b02","679827d73167607bbdfe59b2","passed","","","","","","","","","","","","","","","","","ballFalling","604.4000000000001","667.6211431702998","201.78","9","fallScene","true","","","","","92","",""
"","","","","","html-keyboard-response","265","1689969","0.0-22.0-1.19","61bb392e40db417c1a138dcb","6790928bebf0b969fc839b02","679827d73167607bbdfe59b2","passed","","580","","","","","","","","","","","","","","j","yesOrNo","","","","9","","","lp","1000","","","92","605.4000000000001","151"
"","","","","","html-keyboard-response","266","1691978","0.0-22.0-0.20","61bb392e40db417c1a138dcb","6790928bebf0b969fc839b02","679827d73167607bbdfe59b2","passed","","","","","","","","","","","","","","","","","ballFalling","604.4000000000001","596.8711431702998","394.5","10","fallScene","false","","","","","93","",""
"","","","","","html-keyboard-response","267","1692984","0.0-22.0-1.20","61bb392e40db417c1a138dcb","6790928bebf0b969fc839b02","679827d73167607bbdfe59b2","passed","","746","","","","","","","","","","","","","","f","yesOrNo","","","","10","","","mid","1000","","","93","536.4288568297004","300"
"","","","","","html-keyboard-response","268","1694541","0.0-22.0-0.21","61bb392e40db417c1a138dcb","6790928bebf0b969fc839b02","679827d73167607bbdfe59b2","passed","","","","","","","","","","","","","","","","","ballFalling","322.3","296.07114317029976","371.46","3","fallScene","true","","","","","94","",""
"","","","","","html-keyboard-response","269","1695548","0.0-22.0-1.21","61bb392e40db417c1a138dcb","6790928bebf0b969fc839b02","679827d73167607bbdfe59b2","passed","","849","","","","","","","","","","","","","","j","yesOrNo","","","","3","","","lp","1000","","","94","321.3","287.3327096511259"
"","","","","","html-keyboard-response","270","1697108","0.0-22.0-0.22","61bb392e40db417c1a138dcb","6790928bebf0b969fc839b02","679827d73167607bbdfe59b2","passed","","","","","","","","","","","","","","","","","ballFalling","322.3","296.07114317029976","371.46","3","fallScene","false","","","","","95","",""
"","","","","","html-keyboard-response","271","1698112","0.0-22.0-1.22","61bb392e40db417c1a138dcb","6790928bebf0b969fc839b02","679827d73167607bbdfe59b2","passed","","655","","","","","","","","","","","","","","j","yesOrNo","","","","3","","","lp","1000","","","95","321.3","287.3327096511259"
"","","","","","html-keyboard-response","272","1699886","0.0-22.0-0.23","61bb392e40db417c1a138dcb","6790928bebf0b969fc839b02","679827d73167607bbdfe59b2","passed","","","","","","","","","","","","","","","","","ballFalling","322.3","308.07114317029976","253.89","2","fallScene","true","","","","","96","",""
"","","","","","html-keyboard-response","273","1700893","0.0-22.0-1.23","61bb392e40db417c1a138dcb","6790928bebf0b969fc839b02","679827d73167607bbdfe59b2","passed","","668","","","","","","","","","","","","","","j","yesOrNo","","","","2","","","gt","1000","","","96","308.07114317029976","253.89"
"","","","","","html-keyboard-response","274","1708873","0.0-23.0","61bb392e40db417c1a138dcb","6790928bebf0b969fc839b02","679827d73167607bbdfe59b2","passed","","7978","","","","","","","","","","","","","<p><span style=""font-size:40px;"">BLOCK 5</span></p><p><span style=""font-size:25px;"">You have <b style=""color: #FF644F;""><strong>3 second(s)</strong></b> to respond to the following trials.</span><br></p><p></p> <!-- Blank line -->
                <p id=""blinking-text"" style=""font-weight; animation: blink 2s infinite;"">Press Space to continue</p>
                <style>
                    @keyframes blink {
                        50% {
                            opacity: 0;
                        }
                    }
                </style></p>"," ","","","","","","","","","","","","","",""
"","","","","","html-keyboard-response","275","1710425","0.0-24.0-0.0","61bb392e40db417c1a138dcb","6790928bebf0b969fc839b02","679827d73167607bbdfe59b2","passed","","","","","","","","","","","","","","","","","ballFalling","322.3","379.3711431702997","245.25","1","fallScene","true","","","","","97","",""
"","","","","","html-keyboard-response","276","1713432","0.0-24.0-1.0","61bb392e40db417c1a138dcb","6790928bebf0b969fc839b02","679827d73167607bbdfe59b2","passed","","982","","","","","","","","","","","","","","j","yesOrNo","","","","1","","","gt","3000","","","97","379.3711431702997","245.25"
"","","","","","html-keyboard-response","277","1714921","0.0-24.0-0.1","61bb392e40db417c1a138dcb","6790928bebf0b969fc839b02","679827d73167607bbdfe59b2","passed","","","","","","","","","","","","","","","","","ballFalling","604.4000000000001","667.6211431702998","201.78","9","fallScene","false","","","","","98","",""
"","","","","","html-keyboard-response","278","1717927","0.0-24.0-1.1","61bb392e40db417c1a138dcb","6790928bebf0b969fc839b02","679827d73167607bbdfe59b2","passed","","1267","","","","","","","","","","","","","","j","yesOrNo","","","","9","","","gt","3000","","","98","667.6211431702998","201.78"
"","","","","","html-keyboard-response","279","1719932","0.0-24.0-0.2","61bb392e40db417c1a138dcb","6790928bebf0b969fc839b02","679827d73167607bbdfe59b2","passed","","","","","","","","","","","","","","","","","ballFalling","500","510.8711431702997","369.03","8","fallScene","false","","","","","99","",""
"","","","","","html-keyboard-response","280","1722939","0.0-24.0-1.2","61bb392e40db417c1a138dcb","6790928bebf0b969fc839b02","679827d73167607bbdfe59b2","passed","","1009","","","","","","","","","","","","","","j","yesOrNo","","","","8","","","mid","3000","","","99","501","300"
"","","","","","html-keyboard-response","281","1724496","0.0-24.0-0.3","61bb392e40db417c1a138dcb","6790928bebf0b969fc839b02","679827d73167607bbdfe59b2","passed","","","","","","","","","","","","","","","","","ballFalling","322.3","296.07114317029976","371.46","3","fallScene","false","","","","","100","",""
"","","","","","html-keyboard-response","282","1727501","0.0-24.0-1.3","61bb392e40db417c1a138dcb","6790928bebf0b969fc839b02","679827d73167607bbdfe59b2","passed","","1216","","","","","","","","","","","","","","j","yesOrNo","","","","3","","","mid","3000","","","100","321.3","300"
"","","","","","html-keyboard-response","283","1729506","0.0-24.0-0.4","61bb392e40db417c1a138dcb","6790928bebf0b969fc839b02","679827d73167607bbdfe59b2","passed","","","","","","","","","","","","","","","","","ballFalling","500","510.8711431702997","369.03","8","fallScene","true","","","","","101","",""
"","","","","","html-keyboard-response","284","1732512","0.0-24.0-1.4","61bb392e40db417c1a138dcb","6790928bebf0b969fc839b02","679827d73167607bbdfe59b2","passed","","1573","","","","","","","","","","","","","","j","yesOrNo","","","","8","","","gt","3000","","","101","510.8711431702997","369.03"
"","","","","","html-keyboard-response","285","1734069","0.0-24.0-0.5","61bb392e40db417c1a138dcb","6790928bebf0b969fc839b02","679827d73167607bbdfe59b2","passed","","","","","","","","","","","","","","","","","ballFalling","322.3","296.07114317029976","371.46","3","fallScene","false","","","","","102","",""
"","","","","","html-keyboard-response","286","1737075","0.0-24.0-1.5","61bb392e40db417c1a138dcb","6790928bebf0b969fc839b02","679827d73167607bbdfe59b2","passed","","1564","","","","","","","","","","","","","","j","yesOrNo","","","","3","","","gt","3000","","","102","296.07114317029976","371.46"
"","","","","","html-keyboard-response","287","1738616","0.0-24.0-0.6","61bb392e40db417c1a138dcb","6790928bebf0b969fc839b02","679827d73167607bbdfe59b2","passed","","","","","","","","","","","","","","","","","ballFalling","604.4000000000001","575.4211431702997","266.76","12","fallScene","false","","","","","103","",""
"","","","","","html-keyboard-response","288","1741622","0.0-24.0-1.6","61bb392e40db417c1a138dcb","6790928bebf0b969fc839b02","679827d73167607bbdfe59b2","passed","","849","","","","","","","","","","","","","","j","yesOrNo","","","","12","","","lp","3000","","","103","603.4000000000001","151"
"","","","","","html-keyboard-response","289","1743180","0.0-24.0-0.7","61bb392e40db417c1a138dcb","6790928bebf0b969fc839b02","679827d73167607bbdfe59b2","passed","","","","","","","","","","","","","","","","","ballFalling","604.4000000000001","650.0211431702996","404.58000000000004","11","fallScene","true","","","","","104","",""
"","","","","","html-keyboard-response","290","1746184","0.0-24.0-1.7","61bb392e40db417c1a138dcb","6790928bebf0b969fc839b02","679827d73167607bbdfe59b2","passed","","636","","","","","","","","","","","","","","j","yesOrNo","","","","11","","","mid","3000","","","104","605.4000000000001","300"
"","","","","","html-keyboard-response","291","1747760","0.0-24.0-0.8","61bb392e40db417c1a138dcb","6790928bebf0b969fc839b02","679827d73167607bbdfe59b2","passed","","","","","","","","","","","","","","","","","ballFalling","322.3","356.42114317029973","357.87","4","fallScene","false","","","","","105","",""
"","","","","","html-keyboard-response","292","1750765","0.0-24.0-1.8","61bb392e40db417c1a138dcb","6790928bebf0b969fc839b02","679827d73167607bbdfe59b2","passed","","686","","","","","","","","","","","","","","j","yesOrNo","","","","4","","","gt","3000","","","105","356.42114317029973","357.87"
"","","","","","html-keyboard-response","293","1752317","0.0-24.0-0.9","61bb392e40db417c1a138dcb","6790928bebf0b969fc839b02","679827d73167607bbdfe59b2","passed","","","","","","","","","","","","","","","","","ballFalling","322.3","379.3711431702997","245.25","1","fallScene","false","","","","","106","",""
"","","","","","html-keyboard-response","294","1755323","0.0-24.0-1.9","61bb392e40db417c1a138dcb","6790928bebf0b969fc839b02","679827d73167607bbdfe59b2","passed","","1152","","","","","","","","","","","","","","f","yesOrNo","","","","1","","","mid","3000","","","106","390.27114317029975","300"
"","","","","","html-keyboard-response","295","1756879","0.0-24.0-0.10","61bb392e40db417c1a138dcb","6790928bebf0b969fc839b02","679827d73167607bbdfe59b2","passed","","","","","","","","","","","","","","","","","ballFalling","322.3","379.3711431702997","245.25","1","fallScene","true","","","","","107","",""
"","","","","","html-keyboard-response","296","1759885","0.0-24.0-1.10","61bb392e40db417c1a138dcb","6790928bebf0b969fc839b02","679827d73167607bbdfe59b2","passed","","1051","","","","","","","","","","","","","","j","yesOrNo","","","","1","","","lp","3000","","","107","323.3","217.74551669457017"
"","","","","","html-keyboard-response","297","1761541","0.0-24.0-0.11","61bb392e40db417c1a138dcb","6790928bebf0b969fc839b02","679827d73167607bbdfe59b2","passed","","","","","","","","","","","","","","","","","ballFalling","500","479.92114317029973","330.87","6","fallScene","true","","","","","108","",""
"","","","","","html-keyboard-response","298","1764547","0.0-24.0-1.11","61bb392e40db417c1a138dcb","6790928bebf0b969fc839b02","679827d73167607bbdfe59b2","passed","","744","","","","","","","","","","","","","","j","yesOrNo","","","","6","","","lp","3000","","","108","499","189.92909825697632"
"","","","","","html-keyboard-response","299","1766204","0.0-24.0-0.12","61bb392e40db417c1a138dcb","6790928bebf0b969fc839b02","679827d73167607bbdfe59b2","passed","","","","","","","","","","","","","","","","","ballFalling","500","479.92114317029973","330.87","6","fallScene","true","","","","","109","",""
