"success","timeout","failed_images","failed_audio","failed_video","trial_type","trial_index","time_elapsed","internal_node_id","subject_id","study_id","session_id","practiceTestResult","view_history","rt","width","height","webaudio","browser","browser_version","mobile","os","fullscreen","vsync_rate","webcam","microphone","url","stimulus","response","task","ball_X","obstacle_groundTruth_x","obstacle_groundTruth_y","stimulus_idx","trial_name","flipped","choice","timeLimit","question_order","comprehensionCheck","currentTrial","obstacle_choice_x","obstacle_choice_y"
"true","false","[]","[]","[]","preload","0","152","0.0-0.0","65b929230cff388d15dd5c4c","6790928bebf0b969fc839b02","6792bc7bd8cdd9caa5103fc3","passed","","","","","","","","","","","","","","","","","","","","","","","","","","","","","",""
"","","","","","instructions","1","641600","0.0-1.0","65b929230cff388d15dd5c4c","6790928bebf0b969fc839b02","6792bc7bd8cdd9caa5103fc3","passed","[{""page_index"":0,""viewing_time"":641436}]","641437","","","","","","","","","","","","","","","","","","","","","","","","","","","",""
"","","","","","browser-check","2","642608","0.0-2.0","65b929230cff388d15dd5c4c","6790928bebf0b969fc839b02","6792bc7bd8cdd9caa5103fc3","passed","","","1792","1008","true","chrome","132.0.0","false","Mac OS","true","60.02","true","true","","","","","","","","","","","","","","","","",""
"","","","","","external-html","3","647934","0.0-3.0","65b929230cff388d15dd5c4c","6790928bebf0b969fc839b02","6792bc7bd8cdd9caa5103fc3","passed","","5108","","","","","","","","","","","","consent.html","","","","","","","","","","","","","","","",""
"true","","","","","fullscreen","4","659341","0.0-4.0","65b929230cff388d15dd5c4c","6790928bebf0b969fc839b02","6792bc7bd8cdd9caa5103fc3","passed","","11104","","","","","","","","","","","","","","","","","","","","","","","","","","","",""
"","","","","","browser-check","5","660436","0.0-5.0","65b929230cff388d15dd5c4c","6790928bebf0b969fc839b02","6792bc7bd8cdd9caa5103fc3","passed","","","1792","1095","true","chrome","132.0.0","false","Mac OS","true","60.16","true","true","","","","","","","","","","","","","","","","",""
"","","","","","html-keyboard-response","6","669488","0.0-6.0","65b929230cff388d15dd5c4c","6790928bebf0b969fc839b02","6792bc7bd8cdd9caa5103fc3","passed","","9051","","","","","","","","","","","","","<p><b>This experiment requires keyboard input.</b></p> 
        <p><b>To ensure your response will be recorded successfully, please press 'Space' to continue.</b></p>
        <p>If you can't proceed, you won't be able to complete this study.</p>
        <p></p> <!-- Blank line -->
        <p id=""blinking-text"" style=""font-weight; animation: blink 2s infinite;"">Press Space to continue</p>
        <style>
            @keyframes blink {
                50% {
                    opacity: 0;
                }
            }
        </style>"," ","","","","","","","","","","","","","",""
"","","","","","html-keyboard-response","7","671624","0.0-7.0","65b929230cff388d15dd5c4c","6790928bebf0b969fc839b02","6792bc7bd8cdd9caa5103fc3","passed","","2135","","","","","","","","","","","","","<p><b>This experiment requires keyboard input.</b></p> 
        <p><b>To ensure your response will be recorded successfully, please press the 'f' key to continue.</b></p>
        <p>If you can't proceed, you won't be able to complete this study.</p>
        <p></p> <!-- Blank line -->
        <p id=""blinking-text"" style=""font-weight; animation: blink 2s infinite;"">Press f to continue</p>
        <style>
            @keyframes blink {
                50% {
                    opacity: 0;
                }
            }
        </style>","f","","","","","","","","","","","","","",""
"","","","","","html-keyboard-response","8","673042","0.0-8.0","65b929230cff388d15dd5c4c","6790928bebf0b969fc839b02","6792bc7bd8cdd9caa5103fc3","passed","","1416","","","","","","","","","","","","","<p><b>This experiment requires keyboard input.</b></p> 
        <p><b>To ensure your response will be recorded successfully, please press the 'j' key to continue.</b></p>
        <p>If you can't proceed, you won't be able to complete this study.</p>
        <p></p> <!-- Blank line -->
        <p id=""blinking-text"" style=""font-weight; animation: blink 2s infinite;"">Press j to continue</p>
        <style>
            @keyframes blink {
                50% {
                    opacity: 0;
                }
            }
        </style>","j","","","","","","","","","","","","","",""
"","","","","","browser-check","9","674057","0.0-9.0","65b929230cff388d15dd5c4c","6790928bebf0b969fc839b02","6792bc7bd8cdd9caa5103fc3","passed","","","1792","1120","true","chrome","132.0.0","false","Mac OS","true","60","true","true","","","","","","","","","","","","","","","","",""
"","","","","","survey-text","10","677137","0.0-10.0","65b929230cff388d15dd5c4c","6790928bebf0b969fc839b02","6792bc7bd8cdd9caa5103fc3","passed","","3077","","","","","","","","","","","","","","{""prolificID"":""65b929230cff388d15dd5c4c""}","","","","","","","","","","","","","",""
"","","","","","instructions","11","874015","0.0-11.0-0.0-0.0","65b929230cff388d15dd5c4c","6790928bebf0b969fc839b02","6792bc7bd8cdd9caa5103fc3","passed","[{""page_index"":0,""viewing_time"":155723},{""page_index"":1,""viewing_time"":19271},{""page_index"":2,""viewing_time"":11079},{""page_index"":3,""viewing_time"":10800}]","196874","","","","","","","","","","","","","","","","","","","","","","","","","","","",""
"","","","","","html-keyboard-response","12","887049","0.0-11.0-0.0-1.0","65b929230cff388d15dd5c4c","6790928bebf0b969fc839b02","6792bc7bd8cdd9caa5103fc3","passed","","12659","","","","","","","","","","","","","<br>Remember! After a ball falls, the screen will disappear, and you'll decide if the proposed position is where the hidden triangle was. <br>You will now practice this by watching a few videos and making decisions.<p>To respond:<br style=""margin-bottom: 5px; text-indent: -20px; padding-left: 20px;"">- Press <b style=""color: #12AD2B;"">J for Yes</b>, if you think the triangle is in the correct position.<br style=""margin-top: 0; text-indent: -20px; padding-left: 20px;"">- Press <b style=""color: orange;"">F for No</b>, if you think the triangle is not in the correct position.</p><p>In this practice round, there is no time limit. Focus on getting comfortable with the task first.<br>Press either J or F to begin your practice trials.</p><img src = ""YesOrNo_instruction.png"" style=""width: 65%;""></img>","j","","","","","","","","","","","","","",""
"","","","","","html-keyboard-response","13","889151","0.0-11.0-0.0-2.0-0.0","65b929230cff388d15dd5c4c","6790928bebf0b969fc839b02","6792bc7bd8cdd9caa5103fc3","passed","","","","","","","","","","","","","","","","","ballFalling_prac","660","666","350","3","fallScene","false","","","","","","",""
"","","","","","html-keyboard-response","14","893821","0.0-11.0-0.0-2.0-1.0","65b929230cff388d15dd5c4c","6790928bebf0b969fc839b02","6792bc7bd8cdd9caa5103fc3","passed","","4668","","","","","","","","","","","","","","j","yesOrNo_prac_noTimed","","","","3","","","wrong direction","NA","","","","",""
"","","","","","html-keyboard-response","15","895399","0.0-11.0-0.0-2.0-0.1","65b929230cff388d15dd5c4c","6790928bebf0b969fc839b02","6792bc7bd8cdd9caa5103fc3","passed","","","","","","","","","","","","","","","","","ballFalling_prac","441","414","302","5","fallScene","true","","","","","","",""
"","","","","","html-keyboard-response","16","897668","0.0-11.0-0.0-2.0-1.1","65b929230cff388d15dd5c4c","6790928bebf0b969fc839b02","6792bc7bd8cdd9caa5103fc3","passed","","2268","","","","","","","","","","","","","","j","yesOrNo_prac_noTimed","","","","5","","","close gt","NA","","","","",""
"","","","","","html-keyboard-response","17","899232","0.0-11.0-0.0-2.0-0.2","65b929230cff388d15dd5c4c","6790928bebf0b969fc839b02","6792bc7bd8cdd9caa5103fc3","passed","","","","","","","","","","","","","","","","","ballFalling_prac","416","464","296","1","fallScene","false","","","","","","",""
"","","","","","html-keyboard-response","18","901809","0.0-11.0-0.0-2.0-1.2","65b929230cff388d15dd5c4c","6790928bebf0b969fc839b02","6792bc7bd8cdd9caa5103fc3","passed","","2576","","","","","","","","","","","","","","j","yesOrNo_prac_noTimed","","","","1","","","gt","NA","","","","",""
"","","","","","instructions","19","928438","0.0-11.0-0.0-3.0","65b929230cff388d15dd5c4c","6790928bebf0b969fc839b02","6792bc7bd8cdd9caa5103fc3","passed","[{""page_index"":0,""viewing_time"":12667},{""page_index"":1,""viewing_time"":13960}]","26628","","","","","","","","","","","","","","","","","","","","","","","","","","","",""
"","","","","","html-button-response","20","933615","0.0-11.0-0.0-4.0","65b929230cff388d15dd5c4c","6790928bebf0b969fc839b02","6792bc7bd8cdd9caa5103fc3","passed","","4675","","","","","","","","","","","","","<p>To make sure you understood the task, we just have a <b>brief quiz</b> here.</p><p>If you need to review the instructions, click 'Previous'.</p><p>It's important to understand the task to do the study, so you have to pass the quiz to move to the study.</p>","1","","","","","","","","","","","","","",""
"","","","","","survey-multi-choice","21","962608","0.0-11.0-1.0-0.0","65b929230cff388d15dd5c4c","6790928bebf0b969fc839b02","6792bc7bd8cdd9caa5103fc3","passed","","28991","","","","","","","","","","","","","","{""generalProcedure"":""Watch a video of a ball falling, some of it behind a gray screen. After each video, decide if the triangle is at the spot where the ball hit the triangle behind the screen. There is time limit for the response.""}","","","","","","","","","","[0]","","","",""
"","","","","","survey-multi-choice","22","967165","0.0-11.0-1.0-1.0","65b929230cff388d15dd5c4c","6790928bebf0b969fc839b02","6792bc7bd8cdd9caa5103fc3","passed","","4556","","","","","","","","","","","","","","{""checkBallHitObstacle"":""No.""}","","","","","","","","","","[0]","","","",""
"","","","","","survey-multi-choice","23","972833","0.0-11.0-1.0-2.0","65b929230cff388d15dd5c4c","6790928bebf0b969fc839b02","6792bc7bd8cdd9caa5103fc3","passed","","5667","","","","","","","","","","","","","","{""checkTriangleVisibility"":""No, the triangle is hidden behind the gray screen.""}","","","","","","","","","","[0]","","","",""
"","","","","","survey-multi-choice","24","985748","0.0-11.0-1.0-3.0","65b929230cff388d15dd5c4c","6790928bebf0b969fc839b02","6792bc7bd8cdd9caa5103fc3","passed","","12915","","","","","","","","","","","","","","{""checkTimedResponse"":""Your response will not be recorded, and the trial will move to the next one.""}","","","","","","","","","","[0]","","","",""
"","","","","","survey-multi-choice","25","1002401","0.0-11.0-1.0-4.0","65b929230cff388d15dd5c4c","6790928bebf0b969fc839b02","6792bc7bd8cdd9caa5103fc3","passed","","16652","","","","","","","","","","","","","","{""checkTimeBlockNotice"":""Before every individual trial.""}","","","","","","","","","","[0]","","","",""
"","","","","","survey-multi-choice","26","1012615","0.0-11.0-1.0-5.0","65b929230cff388d15dd5c4c","6790928bebf0b969fc839b02","6792bc7bd8cdd9caa5103fc3","passed","","10213","","","","","","","","","","","","","","{""checkTimeBlockSameness"":""Yes, the time limit is the same for all trials within a block.""}","","","","","","","","","","[0]","","","",""
"","","","","","survey-multi-choice","27","1028051","0.0-11.0-1.0-6.0","65b929230cff388d15dd5c4c","6790928bebf0b969fc839b02","6792bc7bd8cdd9caa5103fc3","passed","","15435","","","","","","","","","","","","","","{""checkTrianglePrecision"":""Yes. The proposed purple triangle is very close to the correct position, so I should choose 'Yes.'""}","","","","","","","","","","[0]","","","",""
"","","","","","html-button-response","28","1030794","0.0-11.0-2.0-0.0","65b929230cff388d15dd5c4c","6790928bebf0b969fc839b02","6792bc7bd8cdd9caa5103fc3","passed","","2742","","","","","","","","","","","","","<p>Oops! You did not pass the quiz.</p><p>You will now repeat the instructions and practice.</p>","0","","","","","","","","","","","failed","","",""
"","","","","","instructions","29","1093471","0.0-11.1-0.1-0.1","65b929230cff388d15dd5c4c","6790928bebf0b969fc839b02","6792bc7bd8cdd9caa5103fc3","passed","[{""page_index"":0,""viewing_time"":29521},{""page_index"":1,""viewing_time"":18959},{""page_index"":2,""viewing_time"":7985},{""page_index"":3,""viewing_time"":6210}]","62675","","","","","","","","","","","","","","","","","","","","","","","","","","","",""
"","","","","","html-keyboard-response","30","1110750","0.0-11.1-0.1-1.1","65b929230cff388d15dd5c4c","6790928bebf0b969fc839b02","6792bc7bd8cdd9caa5103fc3","passed","","16777","","","","","","","","","","","","","<br>Remember! After a ball falls, the screen will disappear, and you'll decide if the proposed position is where the hidden triangle was. <br>You will now practice this by watching a few videos and making decisions.<p>To respond:<br style=""margin-bottom: 5px; text-indent: -20px; padding-left: 20px;"">- Press <b style=""color: #12AD2B;"">J for Yes</b>, if you think the triangle is in the correct position.<br style=""margin-top: 0; text-indent: -20px; padding-left: 20px;"">- Press <b style=""color: orange;"">F for No</b>, if you think the triangle is not in the correct position.</p><p>In this practice round, there is no time limit. Focus on getting comfortable with the task first.<br>Press either J or F to begin your practice trials.</p><img src = ""YesOrNo_instruction.png"" style=""width: 65%;""></img>","f","","","","","","","","","","","","","",""
"","","","","","html-keyboard-response","31","1112307","0.0-11.1-0.1-2.1-0.3","65b929230cff388d15dd5c4c","6790928bebf0b969fc839b02","6792bc7bd8cdd9caa5103fc3","passed","","","","","","","","","","","","","","","","","ballFalling_prac","441","414","302","5","fallScene","true","","","","","","",""
"","","","","","html-keyboard-response","32","1115115","0.0-11.1-0.1-2.1-1.3","65b929230cff388d15dd5c4c","6790928bebf0b969fc839b02","6792bc7bd8cdd9caa5103fc3","passed","","2807","","","","","","","","","","","","","","j","yesOrNo_prac_noTimed","","","","5","","","close gt","NA","","","","",""
"","","","","","html-keyboard-response","33","1116673","0.0-11.1-0.1-2.1-0.4","65b929230cff388d15dd5c4c","6790928bebf0b969fc839b02","6792bc7bd8cdd9caa5103fc3","passed","","","","","","","","","","","","","","","","","ballFalling_prac","416","464","296","1","fallScene","false","","","","","","",""
"","","","","","html-keyboard-response","34","1119591","0.0-11.1-0.1-2.1-1.4","65b929230cff388d15dd5c4c","6790928bebf0b969fc839b02","6792bc7bd8cdd9caa5103fc3","passed","","2916","","","","","","","","","","","","","","j","yesOrNo_prac_noTimed","","","","1","","","gt","NA","","","","",""
"","","","","","html-keyboard-response","35","1121707","0.0-11.1-0.1-2.1-0.5","65b929230cff388d15dd5c4c","6790928bebf0b969fc839b02","6792bc7bd8cdd9caa5103fc3","passed","","","","","","","","","","","","","","","","","ballFalling_prac","660","666","350","3","fallScene","false","","","","","","",""
"","","","","","html-keyboard-response","36","1124744","0.0-11.1-0.1-2.1-1.5","65b929230cff388d15dd5c4c","6790928bebf0b969fc839b02","6792bc7bd8cdd9caa5103fc3","passed","","3035","","","","","","","","","","","","","","f","yesOrNo_prac_noTimed","","","","3","","","wrong direction","NA","","","","",""
"","","","","","instructions","37","1157664","0.0-11.1-0.1-3.1","65b929230cff388d15dd5c4c","6790928bebf0b969fc839b02","6792bc7bd8cdd9caa5103fc3","passed","[{""page_index"":0,""viewing_time"":18632},{""page_index"":1,""viewing_time"":14287}]","32919","","","","","","","","","","","","","","","","","","","","","","","","","","","",""
"","","","","","html-button-response","38","1160748","0.0-11.1-0.1-4.1","65b929230cff388d15dd5c4c","6790928bebf0b969fc839b02","6792bc7bd8cdd9caa5103fc3","passed","","2581","","","","","","","","","","","","","<p>To make sure you understood the task, we just have a <b>brief quiz</b> here.</p><p>If you need to review the instructions, click 'Previous'.</p><p>It's important to understand the task to do the study, so you have to pass the quiz to move to the study.</p>","1","","","","","","","","","","","","","",""
"","","","","","survey-multi-choice","39","1180672","0.0-11.1-1.1-0.1","65b929230cff388d15dd5c4c","6790928bebf0b969fc839b02","6792bc7bd8cdd9caa5103fc3","passed","","19923","","","","","","","","","","","","","","{""generalProcedure"":""Watch a video of a ball falling, some of it behind a gray screen. After each video, decide if the triangle is at the spot where the ball hit the triangle behind the screen. There is time limit for the response.""}","","","","","","","","","","[0]","","","",""
"","","","","","survey-multi-choice","40","1188290","0.0-11.1-1.1-1.1","65b929230cff388d15dd5c4c","6790928bebf0b969fc839b02","6792bc7bd8cdd9caa5103fc3","passed","","7617","","","","","","","","","","","","","","{""checkBallHitObstacle"":""No.""}","","","","","","","","","","[0]","","","",""
"","","","","","survey-multi-choice","41","1197582","0.0-11.1-1.1-2.1","65b929230cff388d15dd5c4c","6790928bebf0b969fc839b02","6792bc7bd8cdd9caa5103fc3","passed","","9291","","","","","","","","","","","","","","{""checkTriangleVisibility"":""No, the triangle is hidden behind the gray screen.""}","","","","","","","","","","[0]","","","",""
"","","","","","survey-multi-choice","42","1201811","0.0-11.1-1.1-3.1","65b929230cff388d15dd5c4c","6790928bebf0b969fc839b02","6792bc7bd8cdd9caa5103fc3","passed","","4229","","","","","","","","","","","","","","{""checkTimedResponse"":""Your response will not be recorded, and the trial will move to the next one.""}","","","","","","","","","","[0]","","","",""
"","","","","","survey-multi-choice","43","1205985","0.0-11.1-1.1-4.1","65b929230cff388d15dd5c4c","6790928bebf0b969fc839b02","6792bc7bd8cdd9caa5103fc3","passed","","4173","","","","","","","","","","","","","","{""checkTimeBlockNotice"":""At the beginning of each block.""}","","","","","","","","","","[0]","","","",""
"","","","","","survey-multi-choice","44","1217718","0.0-11.1-1.1-5.1","65b929230cff388d15dd5c4c","6790928bebf0b969fc839b02","6792bc7bd8cdd9caa5103fc3","passed","","11732","","","","","","","","","","","","","","{""checkTimeBlockSameness"":""Yes, the time limit is the same for all trials within a block.""}","","","","","","","","","","[0]","","","",""
"","","","","","survey-multi-choice","45","1238004","0.0-11.1-1.1-6.1","65b929230cff388d15dd5c4c","6790928bebf0b969fc839b02","6792bc7bd8cdd9caa5103fc3","passed","","20286","","","","","","","","","","","","","","{""checkTrianglePrecision"":""No. The proposed purple triangle is not in the correct position because it doesn't match the location of the white triangle exactly.""}","","","","","","","","","","[0]","","","",""
"","","","","","html-button-response","46","1239973","0.0-11.1-2.1-0.1","65b929230cff388d15dd5c4c","6790928bebf0b969fc839b02","6792bc7bd8cdd9caa5103fc3","passed","","1967","","","","","","","","","","","","","<p>Oops! You did not pass the quiz.</p><p>You will now repeat the instructions and practice.</p>","0","","","","","","","","","","","failed","","",""
"","","","","","instructions","47","1255801","0.0-11.2-0.2-0.2","65b929230cff388d15dd5c4c","6790928bebf0b969fc839b02","6792bc7bd8cdd9caa5103fc3","passed","[{""page_index"":0,""viewing_time"":4522},{""page_index"":1,""viewing_time"":2127},{""page_index"":2,""viewing_time"":3498},{""page_index"":3,""viewing_time"":5682}]","15828","","","","","","","","","","","","","","","","","","","","","","","","","","","",""
"","","","","","html-keyboard-response","48","1260795","0.0-11.2-0.2-1.2","65b929230cff388d15dd5c4c","6790928bebf0b969fc839b02","6792bc7bd8cdd9caa5103fc3","passed","","4492","","","","","","","","","","","","","<br>Remember! After a ball falls, the screen will disappear, and you'll decide if the proposed position is where the hidden triangle was. <br>You will now practice this by watching a few videos and making decisions.<p>To respond:<br style=""margin-bottom: 5px; text-indent: -20px; padding-left: 20px;"">- Press <b style=""color: #12AD2B;"">J for Yes</b>, if you think the triangle is in the correct position.<br style=""margin-top: 0; text-indent: -20px; padding-left: 20px;"">- Press <b style=""color: orange;"">F for No</b>, if you think the triangle is not in the correct position.</p><p>In this practice round, there is no time limit. Focus on getting comfortable with the task first.<br>Press either J or F to begin your practice trials.</p><img src = ""YesOrNo_instruction.png"" style=""width: 65%;""></img>","f","","","","","","","","","","","","","",""
"","","","","","html-keyboard-response","49","1262361","0.0-11.2-0.2-2.2-0.6","65b929230cff388d15dd5c4c","6790928bebf0b969fc839b02","6792bc7bd8cdd9caa5103fc3","passed","","","","","","","","","","","","","","","","","ballFalling_prac","441","414","302","5","fallScene","true","","","","","","",""
"","","","","","html-keyboard-response","50","1265260","0.0-11.2-0.2-2.2-1.6","65b929230cff388d15dd5c4c","6790928bebf0b969fc839b02","6792bc7bd8cdd9caa5103fc3","passed","","2897","","","","","","","","","","","","","","j","yesOrNo_prac_noTimed","","","","5","","","close gt","NA","","","","",""
"","","","","","html-keyboard-response","51","1267377","0.0-11.2-0.2-2.2-0.7","65b929230cff388d15dd5c4c","6790928bebf0b969fc839b02","6792bc7bd8cdd9caa5103fc3","passed","","","","","","","","","","","","","","","","","ballFalling_prac","660","666","350","3","fallScene","false","","","","","","",""
"","","","","","html-keyboard-response","52","1269896","0.0-11.2-0.2-2.2-1.7","65b929230cff388d15dd5c4c","6790928bebf0b969fc839b02","6792bc7bd8cdd9caa5103fc3","passed","","2518","","","","","","","","","","","","","","f","yesOrNo_prac_noTimed","","","","3","","","wrong direction","NA","","","","",""
"","","","","","html-keyboard-response","53","1271460","0.0-11.2-0.2-2.2-0.8","65b929230cff388d15dd5c4c","6790928bebf0b969fc839b02","6792bc7bd8cdd9caa5103fc3","passed","","","","","","","","","","","","","","","","","ballFalling_prac","416","464","296","1","fallScene","false","","","","","","",""
"","","","","","html-keyboard-response","54","1272957","0.0-11.2-0.2-2.2-1.8","65b929230cff388d15dd5c4c","6790928bebf0b969fc839b02","6792bc7bd8cdd9caa5103fc3","passed","","1495","","","","","","","","","","","","","","j","yesOrNo_prac_noTimed","","","","1","","","gt","NA","","","","",""
"","","","","","instructions","55","1279596","0.0-11.2-0.2-3.2","65b929230cff388d15dd5c4c","6790928bebf0b969fc839b02","6792bc7bd8cdd9caa5103fc3","passed","[{""page_index"":0,""viewing_time"":4657},{""page_index"":1,""viewing_time"":1982}]","6639","","","","","","","","","","","","","","","","","","","","","","","","","","","",""
"","","","","","html-button-response","56","1281486","0.0-11.2-0.2-4.2","65b929230cff388d15dd5c4c","6790928bebf0b969fc839b02","6792bc7bd8cdd9caa5103fc3","passed","","1388","","","","","","","","","","","","","<p>To make sure you understood the task, we just have a <b>brief quiz</b> here.</p><p>If you need to review the instructions, click 'Previous'.</p><p>It's important to understand the task to do the study, so you have to pass the quiz to move to the study.</p>","0","","","","","","","","","","","","","",""
"","","","","","instructions","57","1286719","0.0-11.2-0.3-0.3","65b929230cff388d15dd5c4c","6790928bebf0b969fc839b02","6792bc7bd8cdd9caa5103fc3","passed","[{""page_index"":0,""viewing_time"":1642},{""page_index"":1,""viewing_time"":436},{""page_index"":2,""viewing_time"":1168},{""page_index"":3,""viewing_time"":1986}]","5232","","","","","","","","","","","","","","","","","","","","","","","","","","","",""
"","","","","","html-keyboard-response","58","1290439","0.0-11.2-0.3-1.3","65b929230cff388d15dd5c4c","6790928bebf0b969fc839b02","6792bc7bd8cdd9caa5103fc3","passed","","3218","","","","","","","","","","","","","<br>Remember! After a ball falls, the screen will disappear, and you'll decide if the proposed position is where the hidden triangle was. <br>You will now practice this by watching a few videos and making decisions.<p>To respond:<br style=""margin-bottom: 5px; text-indent: -20px; padding-left: 20px;"">- Press <b style=""color: #12AD2B;"">J for Yes</b>, if you think the triangle is in the correct position.<br style=""margin-top: 0; text-indent: -20px; padding-left: 20px;"">- Press <b style=""color: orange;"">F for No</b>, if you think the triangle is not in the correct position.</p><p>In this practice round, there is no time limit. Focus on getting comfortable with the task first.<br>Press either J or F to begin your practice trials.</p><img src = ""YesOrNo_instruction.png"" style=""width: 65%;""></img>","f","","","","","","","","","","","","","",""
"","","","","","html-keyboard-response","59","1292528","0.0-11.2-0.3-2.3-0.9","65b929230cff388d15dd5c4c","6790928bebf0b969fc839b02","6792bc7bd8cdd9caa5103fc3","passed","","","","","","","","","","","","","","","","","ballFalling_prac","660","666","350","3","fallScene","false","","","","","","",""
"","","","","","html-keyboard-response","60","1294378","0.0-11.2-0.3-2.3-1.9","65b929230cff388d15dd5c4c","6790928bebf0b969fc839b02","6792bc7bd8cdd9caa5103fc3","passed","","1849","","","","","","","","","","","","","","f","yesOrNo_prac_noTimed","","","","3","","","wrong direction","NA","","","","",""
"","","","","","html-keyboard-response","61","1295962","0.0-11.2-0.3-2.3-0.10","65b929230cff388d15dd5c4c","6790928bebf0b969fc839b02","6792bc7bd8cdd9caa5103fc3","passed","","","","","","","","","","","","","","","","","ballFalling_prac","441","414","302","5","fallScene","true","","","","","","",""
"","","","","","html-keyboard-response","62","1297886","0.0-11.2-0.3-2.3-1.10","65b929230cff388d15dd5c4c","6790928bebf0b969fc839b02","6792bc7bd8cdd9caa5103fc3","passed","","1923","","","","","","","","","","","","","","j","yesOrNo_prac_noTimed","","","","5","","","close gt","NA","","","","",""
"","","","","","html-keyboard-response","63","1299445","0.0-11.2-0.3-2.3-0.11","65b929230cff388d15dd5c4c","6790928bebf0b969fc839b02","6792bc7bd8cdd9caa5103fc3","passed","","","","","","","","","","","","","","","","","ballFalling_prac","416","464","296","1","fallScene","false","","","","","","",""
"","","","","","html-keyboard-response","64","1301351","0.0-11.2-0.3-2.3-1.11","65b929230cff388d15dd5c4c","6790928bebf0b969fc839b02","6792bc7bd8cdd9caa5103fc3","passed","","1905","","","","","","","","","","","","","","j","yesOrNo_prac_noTimed","","","","1","","","gt","NA","","","","",""
"","","","","","instructions","65","1325521","0.0-11.2-0.3-3.3","65b929230cff388d15dd5c4c","6790928bebf0b969fc839b02","6792bc7bd8cdd9caa5103fc3","passed","[{""page_index"":0,""viewing_time"":2230},{""page_index"":1,""viewing_time"":21939}]","24169","","","","","","","","","","","","","","","","","","","","","","","","","","","",""
"","","","","","html-button-response","66","1327624","0.0-11.2-0.3-4.3","65b929230cff388d15dd5c4c","6790928bebf0b969fc839b02","6792bc7bd8cdd9caa5103fc3","passed","","1601","","","","","","","","","","","","","<p>To make sure you understood the task, we just have a <b>brief quiz</b> here.</p><p>If you need to review the instructions, click 'Previous'.</p><p>It's important to understand the task to do the study, so you have to pass the quiz to move to the study.</p>","1","","","","","","","","","","","","","",""
"","","","","","survey-multi-choice","67","1366021","0.0-11.2-1.2-0.2","65b929230cff388d15dd5c4c","6790928bebf0b969fc839b02","6792bc7bd8cdd9caa5103fc3","passed","","38396","","","","","","","","","","","","","","{""generalProcedure"":""Watch a video of a ball falling, some of it behind a gray screen. After each video, decide if the triangle is at the spot where the ball hit the triangle behind the screen. There is time limit for the response.""}","","","","","","","","","","[0]","","","",""
"","","","","","survey-multi-choice","68","1373388","0.0-11.2-1.2-1.2","65b929230cff388d15dd5c4c","6790928bebf0b969fc839b02","6792bc7bd8cdd9caa5103fc3","passed","","7365","","","","","","","","","","","","","","{""checkBallHitObstacle"":""No.""}","","","","","","","","","","[0]","","","",""
"","","","","","survey-multi-choice","69","1378666","0.0-11.2-1.2-2.2","65b929230cff388d15dd5c4c","6790928bebf0b969fc839b02","6792bc7bd8cdd9caa5103fc3","passed","","5278","","","","","","","","","","","","","","{""checkTriangleVisibility"":""No, the triangle is hidden behind the gray screen.""}","","","","","","","","","","[0]","","","",""
"","","","","","survey-multi-choice","70","1382525","0.0-11.2-1.2-3.2","65b929230cff388d15dd5c4c","6790928bebf0b969fc839b02","6792bc7bd8cdd9caa5103fc3","passed","","3858","","","","","","","","","","","","","","{""checkTimedResponse"":""Your response will not be recorded, and the trial will move to the next one.""}","","","","","","","","","","[0]","","","",""
"","","","","","survey-multi-choice","71","1396283","0.0-11.2-1.2-4.2","65b929230cff388d15dd5c4c","6790928bebf0b969fc839b02","6792bc7bd8cdd9caa5103fc3","passed","","13757","","","","","","","","","","","","","","{""checkTimeBlockNotice"":""At the beginning of each block.""}","","","","","","","","","","[0]","","","",""
"","","","","","survey-multi-choice","72","1408221","0.0-11.2-1.2-5.2","65b929230cff388d15dd5c4c","6790928bebf0b969fc839b02","6792bc7bd8cdd9caa5103fc3","passed","","11937","","","","","","","","","","","","","","{""checkTimeBlockSameness"":""Yes, the time limit is the same for all trials within a block.""}","","","","","","","","","","[0]","","","",""
"","","","","","survey-multi-choice","73","1414601","0.0-11.2-1.2-6.2","65b929230cff388d15dd5c4c","6790928bebf0b969fc839b02","6792bc7bd8cdd9caa5103fc3","passed","","6379","","","","","","","","","","","","","","{""checkTrianglePrecision"":""Yes. The proposed purple triangle is very close to the correct position, so I should choose 'Yes.'""}","","","","","","","","","","[0]","","","",""
"","","","","","html-button-response","74","1416387","0.0-11.2-2.2-0.2","65b929230cff388d15dd5c4c","6790928bebf0b969fc839b02","6792bc7bd8cdd9caa5103fc3","passed","","1785","","","","","","","","","","","","","<p>Oops! You did not pass the quiz.</p><p>You will now repeat the instructions and practice.</p>","0","","","","","","","","","","","failed","","",""
"","","","","","instructions","75","1423689","0.0-11.3-0.4-0.4","65b929230cff388d15dd5c4c","6790928bebf0b969fc839b02","6792bc7bd8cdd9caa5103fc3","passed","[{""page_index"":0,""viewing_time"":1654},{""page_index"":1,""viewing_time"":2880},{""page_index"":2,""viewing_time"":1463},{""page_index"":3,""viewing_time"":1305}]","7302","","","","","","","","","","","","","","","","","","","","","","","","","","","",""
"","","","","","html-keyboard-response","76","1427771","0.0-11.3-0.4-1.4","65b929230cff388d15dd5c4c","6790928bebf0b969fc839b02","6792bc7bd8cdd9caa5103fc3","passed","","3579","","","","","","","","","","","","","<br>Remember! After a ball falls, the screen will disappear, and you'll decide if the proposed position is where the hidden triangle was. <br>You will now practice this by watching a few videos and making decisions.<p>To respond:<br style=""margin-bottom: 5px; text-indent: -20px; padding-left: 20px;"">- Press <b style=""color: #12AD2B;"">J for Yes</b>, if you think the triangle is in the correct position.<br style=""margin-top: 0; text-indent: -20px; padding-left: 20px;"">- Press <b style=""color: orange;"">F for No</b>, if you think the triangle is not in the correct position.</p><p>In this practice round, there is no time limit. Focus on getting comfortable with the task first.<br>Press either J or F to begin your practice trials.</p><img src = ""YesOrNo_instruction.png"" style=""width: 65%;""></img>","f","","","","","","","","","","","","","",""
"","","","","","html-keyboard-response","77","1429315","0.0-11.3-0.4-2.4-0.12","65b929230cff388d15dd5c4c","6790928bebf0b969fc839b02","6792bc7bd8cdd9caa5103fc3","passed","","","","","","","","","","","","","","","","","ballFalling_prac","416","464","296","1","fallScene","false","","","","","","",""
"","","","","","html-keyboard-response","78","1430741","0.0-11.3-0.4-2.4-1.12","65b929230cff388d15dd5c4c","6790928bebf0b969fc839b02","6792bc7bd8cdd9caa5103fc3","passed","","1425","","","","","","","","","","","","","","j","yesOrNo_prac_noTimed","","","","1","","","gt","NA","","","","",""
"","","","","","html-keyboard-response","79","1432316","0.0-11.3-0.4-2.4-0.13","65b929230cff388d15dd5c4c","6790928bebf0b969fc839b02","6792bc7bd8cdd9caa5103fc3","passed","","","","","","","","","","","","","","","","","ballFalling_prac","441","414","302","5","fallScene","true","","","","","","",""
"","","","","","html-keyboard-response","80","1433452","0.0-11.3-0.4-2.4-1.13","65b929230cff388d15dd5c4c","6790928bebf0b969fc839b02","6792bc7bd8cdd9caa5103fc3","passed","","1135","","","","","","","","","","","","","","j","yesOrNo_prac_noTimed","","","","5","","","close gt","NA","","","","",""
"","","","","","html-keyboard-response","81","1435565","0.0-11.3-0.4-2.4-0.14","65b929230cff388d15dd5c4c","6790928bebf0b969fc839b02","6792bc7bd8cdd9caa5103fc3","passed","","","","","","","","","","","","","","","","","ballFalling_prac","660","666","350","3","fallScene","false","","","","","","",""
"","","","","","html-keyboard-response","82","1437300","0.0-11.3-0.4-2.4-1.14","65b929230cff388d15dd5c4c","6790928bebf0b969fc839b02","6792bc7bd8cdd9caa5103fc3","passed","","1734","","","","","","","","","","","","","","f","yesOrNo_prac_noTimed","","","","3","","","wrong direction","NA","","","","",""
"","","","","","instructions","83","1440947","0.0-11.3-0.4-3.4","65b929230cff388d15dd5c4c","6790928bebf0b969fc839b02","6792bc7bd8cdd9caa5103fc3","passed","[{""page_index"":0,""viewing_time"":2286},{""page_index"":1,""viewing_time"":1361}]","3647","","","","","","","","","","","","","","","","","","","","","","","","","","","",""
"","","","","","html-button-response","84","1442970","0.0-11.3-0.4-4.4","65b929230cff388d15dd5c4c","6790928bebf0b969fc839b02","6792bc7bd8cdd9caa5103fc3","passed","","1520","","","","","","","","","","","","","<p>To make sure you understood the task, we just have a <b>brief quiz</b> here.</p><p>If you need to review the instructions, click 'Previous'.</p><p>It's important to understand the task to do the study, so you have to pass the quiz to move to the study.</p>","1","","","","","","","","","","","","","",""
"","","","","","survey-multi-choice","85","1474980","0.0-11.3-1.3-0.3","65b929230cff388d15dd5c4c","6790928bebf0b969fc839b02","6792bc7bd8cdd9caa5103fc3","passed","","32008","","","","","","","","","","","","","","{""generalProcedure"":""Watch a video of a ball falling, some of it behind a gray screen. After each video, decide if the triangle is at the spot where the ball hit the triangle behind the screen. There is time limit for the response.""}","","","","","","","","","","[0]","","","",""
"","","","","","survey-multi-choice","86","1487985","0.0-11.3-1.3-1.3","65b929230cff388d15dd5c4c","6790928bebf0b969fc839b02","6792bc7bd8cdd9caa5103fc3","passed","","13004","","","","","","","","","","","","","","{""checkBallHitObstacle"":""Yes.""}","","","","","","","","","","[0]","","","",""
"","","","","","survey-multi-choice","87","1492069","0.0-11.3-1.3-2.3","65b929230cff388d15dd5c4c","6790928bebf0b969fc839b02","6792bc7bd8cdd9caa5103fc3","passed","","4083","","","","","","","","","","","","","","{""checkTriangleVisibility"":""No, the triangle is hidden behind the gray screen.""}","","","","","","","","","","[0]","","","",""
"","","","","","survey-multi-choice","88","1500192","0.0-11.3-1.3-3.3","65b929230cff388d15dd5c4c","6790928bebf0b969fc839b02","6792bc7bd8cdd9caa5103fc3","passed","","8122","","","","","","","","","","","","","","{""checkTimedResponse"":""Your response will not be recorded, and the trial will move to the next one.""}","","","","","","","","","","[0]","","","",""
"","","","","","survey-multi-choice","89","1507921","0.0-11.3-1.3-4.3","65b929230cff388d15dd5c4c","6790928bebf0b969fc839b02","6792bc7bd8cdd9caa5103fc3","passed","","7728","","","","","","","","","","","","","","{""checkTimeBlockNotice"":""Before every individual trial.""}","","","","","","","","","","[0]","","","",""
"","","","","","survey-multi-choice","90","1513187","0.0-11.3-1.3-5.3","65b929230cff388d15dd5c4c","6790928bebf0b969fc839b02","6792bc7bd8cdd9caa5103fc3","passed","","5266","","","","","","","","","","","","","","{""checkTimeBlockSameness"":""Yes, the time limit is the same for all trials within a block.""}","","","","","","","","","","[0]","","","",""
"","","","","","survey-multi-choice","91","1517753","0.0-11.3-1.3-6.3","65b929230cff388d15dd5c4c","6790928bebf0b969fc839b02","6792bc7bd8cdd9caa5103fc3","passed","","4565","","","","","","","","","","","","","","{""checkTrianglePrecision"":""No. The proposed purple triangle is not in the correct position because it doesn't match the location of the white triangle exactly.""}","","","","","","","","","","[0]","","","",""
"","","","","","html-button-response","92","1519498","0.0-11.3-2.3-0.3","65b929230cff388d15dd5c4c","6790928bebf0b969fc839b02","6792bc7bd8cdd9caa5103fc3","passed","","1743","","","","","","","","","","","","","<p>Oops! You did not pass the quiz.</p><p>You will now repeat the instructions and practice.</p>","0","","","","","","","","","","","failed","","",""
"","","","","","instructions","93","1524844","0.0-11.4-0.5-0.5","65b929230cff388d15dd5c4c","6790928bebf0b969fc839b02","6792bc7bd8cdd9caa5103fc3","passed","[{""page_index"":0,""viewing_time"":1641},{""page_index"":1,""viewing_time"":1080},{""page_index"":2,""viewing_time"":1733},{""page_index"":3,""viewing_time"":892}]","5346","","","","","","","","","","","","","","","","","","","","","","","","","","","",""
"","","","","","html-keyboard-response","94","1530723","0.0-11.4-0.5-1.5","65b929230cff388d15dd5c4c","6790928bebf0b969fc839b02","6792bc7bd8cdd9caa5103fc3","passed","","5376","","","","","","","","","","","","","<br>Remember! After a ball falls, the screen will disappear, and you'll decide if the proposed position is where the hidden triangle was. <br>You will now practice this by watching a few videos and making decisions.<p>To respond:<br style=""margin-bottom: 5px; text-indent: -20px; padding-left: 20px;"">- Press <b style=""color: #12AD2B;"">J for Yes</b>, if you think the triangle is in the correct position.<br style=""margin-top: 0; text-indent: -20px; padding-left: 20px;"">- Press <b style=""color: orange;"">F for No</b>, if you think the triangle is not in the correct position.</p><p>In this practice round, there is no time limit. Focus on getting comfortable with the task first.<br>Press either J or F to begin your practice trials.</p><img src = ""YesOrNo_instruction.png"" style=""width: 65%;""></img>","f","","","","","","","","","","","","","",""
"","","","","","html-keyboard-response","95","1532268","0.0-11.4-0.5-2.5-0.15","65b929230cff388d15dd5c4c","6790928bebf0b969fc839b02","6792bc7bd8cdd9caa5103fc3","passed","","","","","","","","","","","","","","","","","ballFalling_prac","416","464","296","1","fallScene","false","","","","","","",""
"","","","","","html-keyboard-response","96","1534153","0.0-11.4-0.5-2.5-1.15","65b929230cff388d15dd5c4c","6790928bebf0b969fc839b02","6792bc7bd8cdd9caa5103fc3","passed","","1883","","","","","","","","","","","","","","j","yesOrNo_prac_noTimed","","","","1","","","gt","NA","","","","",""
"","","","","","html-keyboard-response","97","1536269","0.0-11.4-0.5-2.5-0.16","65b929230cff388d15dd5c4c","6790928bebf0b969fc839b02","6792bc7bd8cdd9caa5103fc3","passed","","","","","","","","","","","","","","","","","ballFalling_prac","660","666","350","3","fallScene","false","","","","","","",""
"","","","","","html-keyboard-response","98","1538023","0.0-11.4-0.5-2.5-1.16","65b929230cff388d15dd5c4c","6790928bebf0b969fc839b02","6792bc7bd8cdd9caa5103fc3","passed","","1753","","","","","","","","","","","","","","f","yesOrNo_prac_noTimed","","","","3","","","wrong direction","NA","","","","",""
"","","","","","html-keyboard-response","99","1539601","0.0-11.4-0.5-2.5-0.17","65b929230cff388d15dd5c4c","6790928bebf0b969fc839b02","6792bc7bd8cdd9caa5103fc3","passed","","","","","","","","","","","","","","","","","ballFalling_prac","441","414","302","5","fallScene","true","","","","","","",""
"","","","","","html-keyboard-response","100","1541061","0.0-11.4-0.5-2.5-1.17","65b929230cff388d15dd5c4c","6790928bebf0b969fc839b02","6792bc7bd8cdd9caa5103fc3","passed","","1458","","","","","","","","","","","","","","j","yesOrNo_prac_noTimed","","","","5","","","close gt","NA","","","","",""
"","","","","","instructions","101","1546599","0.0-11.4-0.5-3.5","65b929230cff388d15dd5c4c","6790928bebf0b969fc839b02","6792bc7bd8cdd9caa5103fc3","passed","[{""page_index"":0,""viewing_time"":2420},{""page_index"":1,""viewing_time"":3117}]","5538","","","","","","","","","","","","","","","","","","","","","","","","","","","",""
"","","","","","html-button-response","102","1548715","0.0-11.4-0.5-4.5","65b929230cff388d15dd5c4c","6790928bebf0b969fc839b02","6792bc7bd8cdd9caa5103fc3","passed","","1614","","","","","","","","","","","","","<p>To make sure you understood the task, we just have a <b>brief quiz</b> here.</p><p>If you need to review the instructions, click 'Previous'.</p><p>It's important to understand the task to do the study, so you have to pass the quiz to move to the study.</p>","1","","","","","","","","","","","","","",""
"","","","","","survey-multi-choice","103","1555229","0.0-11.4-1.4-0.4","65b929230cff388d15dd5c4c","6790928bebf0b969fc839b02","6792bc7bd8cdd9caa5103fc3","passed","","6514","","","","","","","","","","","","","","{""generalProcedure"":""Watch a video of a ball falling, some of it behind a gray screen. After each video, decide if the triangle is at the spot where the ball hit the triangle behind the screen. There is time limit for the response.""}","","","","","","","","","","[0]","","","",""
"","","","","","survey-multi-choice","104","1560143","0.0-11.4-1.4-1.4","65b929230cff388d15dd5c4c","6790928bebf0b969fc839b02","6792bc7bd8cdd9caa5103fc3","passed","","4913","","","","","","","","","","","","","","{""checkBallHitObstacle"":""No.""}","","","","","","","","","","[0]","","","",""
"","","","","","survey-multi-choice","105","1564905","0.0-11.4-1.4-2.4","65b929230cff388d15dd5c4c","6790928bebf0b969fc839b02","6792bc7bd8cdd9caa5103fc3","passed","","4761","","","","","","","","","","","","","","{""checkTriangleVisibility"":""No, the triangle is hidden behind the gray screen.""}","","","","","","","","","","[0]","","","",""
"","","","","","survey-multi-choice","106","1568291","0.0-11.4-1.4-3.4","65b929230cff388d15dd5c4c","6790928bebf0b969fc839b02","6792bc7bd8cdd9caa5103fc3","passed","","3385","","","","","","","","","","","","","","{""checkTimedResponse"":""Your response will not be recorded, and the trial will move to the next one.""}","","","","","","","","","","[0]","","","",""
"","","","","","survey-multi-choice","107","1582352","0.0-11.4-1.4-4.4","65b929230cff388d15dd5c4c","6790928bebf0b969fc839b02","6792bc7bd8cdd9caa5103fc3","passed","","14060","","","","","","","","","","","","","","{""checkTimeBlockNotice"":""Before every individual trial.""}","","","","","","","","","","[0]","","","",""
"","","","","","survey-multi-choice","108","1587168","0.0-11.4-1.4-5.4","65b929230cff388d15dd5c4c","6790928bebf0b969fc839b02","6792bc7bd8cdd9caa5103fc3","passed","","4815","","","","","","","","","","","","","","{""checkTimeBlockSameness"":""Yes, the time limit is the same for all trials within a block.""}","","","","","","","","","","[0]","","","",""
"","","","","","survey-multi-choice","109","1590081","0.0-11.4-1.4-6.4","65b929230cff388d15dd5c4c","6790928bebf0b969fc839b02","6792bc7bd8cdd9caa5103fc3","passed","","2913","","","","","","","","","","","","","","{""checkTrianglePrecision"":""No. The proposed purple triangle is not in the correct position because it doesn't match the location of the white triangle exactly.""}","","","","","","","","","","[0]","","","",""
"","","","","","html-button-response","110","1591950","0.0-11.4-2.4-0.4","65b929230cff388d15dd5c4c","6790928bebf0b969fc839b02","6792bc7bd8cdd9caa5103fc3","passed","","1868","","","","","","","","","","","","","<p>Oops! You did not pass the quiz.</p><p>You will now repeat the instructions and practice.</p>","0","","","","","","","","","","","failed","","",""
"","","","","","instructions","111","1597264","0.0-11.5-0.6-0.6","65b929230cff388d15dd5c4c","6790928bebf0b969fc839b02","6792bc7bd8cdd9caa5103fc3","passed","[{""page_index"":0,""viewing_time"":1507},{""page_index"":1,""viewing_time"":1011},{""page_index"":2,""viewing_time"":1598},{""page_index"":3,""viewing_time"":1198}]","5314","","","","","","","","","","","","","","","","","","","","","","","","","","","",""
"","","","","","html-keyboard-response","112","1601554","0.0-11.5-0.6-1.6","65b929230cff388d15dd5c4c","6790928bebf0b969fc839b02","6792bc7bd8cdd9caa5103fc3","passed","","3788","","","","","","","","","","","","","<br>Remember! After a ball falls, the screen will disappear, and you'll decide if the proposed position is where the hidden triangle was. <br>You will now practice this by watching a few videos and making decisions.<p>To respond:<br style=""margin-bottom: 5px; text-indent: -20px; padding-left: 20px;"">- Press <b style=""color: #12AD2B;"">J for Yes</b>, if you think the triangle is in the correct position.<br style=""margin-top: 0; text-indent: -20px; padding-left: 20px;"">- Press <b style=""color: orange;"">F for No</b>, if you think the triangle is not in the correct position.</p><p>In this practice round, there is no time limit. Focus on getting comfortable with the task first.<br>Press either J or F to begin your practice trials.</p><img src = ""YesOrNo_instruction.png"" style=""width: 65%;""></img>","j","","","","","","","","","","","","","",""
"","","","","","html-keyboard-response","113","1603654","0.0-11.5-0.6-2.6-0.18","65b929230cff388d15dd5c4c","6790928bebf0b969fc839b02","6792bc7bd8cdd9caa5103fc3","passed","","","","","","","","","","","","","","","","","ballFalling_prac","660","666","350","3","fallScene","false","","","","","","",""
"","","","","","html-keyboard-response","114","1605097","0.0-11.5-0.6-2.6-1.18","65b929230cff388d15dd5c4c","6790928bebf0b969fc839b02","6792bc7bd8cdd9caa5103fc3","passed","","1441","","","","","","","","","","","","","","f","yesOrNo_prac_noTimed","","","","3","","","wrong direction","NA","","","","",""
"","","","","","html-keyboard-response","115","1606670","0.0-11.5-0.6-2.6-0.19","65b929230cff388d15dd5c4c","6790928bebf0b969fc839b02","6792bc7bd8cdd9caa5103fc3","passed","","","","","","","","","","","","","","","","","ballFalling_prac","441","414","302","5","fallScene","true","","","","","","",""
"","","","","","html-keyboard-response","116","1608799","0.0-11.5-0.6-2.6-1.19","65b929230cff388d15dd5c4c","6790928bebf0b969fc839b02","6792bc7bd8cdd9caa5103fc3","passed","","2127","","","","","","","","","","","","","","j","yesOrNo_prac_noTimed","","","","5","","","close gt","NA","","","","",""
"","","","","","html-keyboard-response","117","1610354","0.0-11.5-0.6-2.6-0.20","65b929230cff388d15dd5c4c","6790928bebf0b969fc839b02","6792bc7bd8cdd9caa5103fc3","passed","","","","","","","","","","","","","","","","","ballFalling_prac","416","464","296","1","fallScene","false","","","","","","",""
"","","","","","html-keyboard-response","118","1611599","0.0-11.5-0.6-2.6-1.20","65b929230cff388d15dd5c4c","6790928bebf0b969fc839b02","6792bc7bd8cdd9caa5103fc3","passed","","1244","","","","","","","","","","","","","","j","yesOrNo_prac_noTimed","","","","1","","","gt","NA","","","","",""
"","","","","","instructions","119","1615650","0.0-11.5-0.6-3.6","65b929230cff388d15dd5c4c","6790928bebf0b969fc839b02","6792bc7bd8cdd9caa5103fc3","passed","[{""page_index"":0,""viewing_time"":2094},{""page_index"":1,""viewing_time"":1956}]","4051","","","","","","","","","","","","","","","","","","","","","","","","","","","",""
"","","","","","html-button-response","120","1617767","0.0-11.5-0.6-4.6","65b929230cff388d15dd5c4c","6790928bebf0b969fc839b02","6792bc7bd8cdd9caa5103fc3","passed","","1615","","","","","","","","","","","","","<p>To make sure you understood the task, we just have a <b>brief quiz</b> here.</p><p>If you need to review the instructions, click 'Previous'.</p><p>It's important to understand the task to do the study, so you have to pass the quiz to move to the study.</p>","1","","","","","","","","","","","","","",""
"","","","","","survey-multi-choice","121","1621008","0.0-11.5-1.5-0.5","65b929230cff388d15dd5c4c","6790928bebf0b969fc839b02","6792bc7bd8cdd9caa5103fc3","passed","","3240","","","","","","","","","","","","","","{""generalProcedure"":""Watch a video of a ball falling, some of it behind a gray screen. After each video, decide if the triangle is at the spot where the ball hit the triangle behind the screen. There is time limit for the response.""}","","","","","","","","","","[0]","","","",""
"","","","","","survey-multi-choice","122","1625755","0.0-11.5-1.5-1.5","65b929230cff388d15dd5c4c","6790928bebf0b969fc839b02","6792bc7bd8cdd9caa5103fc3","passed","","4747","","","","","","","","","","","","","","{""checkBallHitObstacle"":""Yes.""}","","","","","","","","","","[0]","","","",""
"","","","","","survey-multi-choice","123","1628850","0.0-11.5-1.5-2.5","65b929230cff388d15dd5c4c","6790928bebf0b969fc839b02","6792bc7bd8cdd9caa5103fc3","passed","","3094","","","","","","","","","","","","","","{""checkTriangleVisibility"":""No, the triangle is hidden behind the gray screen.""}","","","","","","","","","","[0]","","","",""
"","","","","","survey-multi-choice","124","1631165","0.0-11.5-1.5-3.5","65b929230cff388d15dd5c4c","6790928bebf0b969fc839b02","6792bc7bd8cdd9caa5103fc3","passed","","2314","","","","","","","","","","","","","","{""checkTimedResponse"":""Your response will not be recorded, and the trial will move to the next one.""}","","","","","","","","","","[0]","","","",""
"","","","","","survey-multi-choice","125","1635599","0.0-11.5-1.5-4.5","65b929230cff388d15dd5c4c","6790928bebf0b969fc839b02","6792bc7bd8cdd9caa5103fc3","passed","","4433","","","","","","","","","","","","","","{""checkTimeBlockNotice"":""At the beginning of each block.""}","","","","","","","","","","[0]","","","",""
"","","","","","survey-multi-choice","126","1639235","0.0-11.5-1.5-5.5","65b929230cff388d15dd5c4c","6790928bebf0b969fc839b02","6792bc7bd8cdd9caa5103fc3","passed","","3636","","","","","","","","","","","","","","{""checkTimeBlockSameness"":""Yes, the time limit is the same for all trials within a block.""}","","","","","","","","","","[0]","","","",""
"","","","","","survey-multi-choice","127","1643641","0.0-11.5-1.5-6.5","65b929230cff388d15dd5c4c","6790928bebf0b969fc839b02","6792bc7bd8cdd9caa5103fc3","passed","","4405","","","","","","","","","","","","","","{""checkTrianglePrecision"":""No. The proposed purple triangle is not in the correct position because it doesn't match the location of the white triangle exactly.""}","","","","","","","","","","[0]","","","",""
"","","","","","instructions","128","1675536","0.0-12.0","65b929230cff388d15dd5c4c","6790928bebf0b969fc839b02","6792bc7bd8cdd9caa5103fc3","passed","[{""page_index"":0,""viewing_time"":12466},{""page_index"":1,""viewing_time"":7436},{""page_index"":2,""viewing_time"":6626},{""page_index"":3,""viewing_time"":5365}]","31894","","","","","","","","","","","","","","","","","","","","","","","","","","","",""
"","","","","","instructions","129","1684898","0.0-13.0-0.0","65b929230cff388d15dd5c4c","6790928bebf0b969fc839b02","6792bc7bd8cdd9caa5103fc3","passed","[{""page_index"":0,""viewing_time"":9361}]","9361","","","","","","","","","","","","","","","","","","","","","","","","","","","",""
"","","","","","html-keyboard-response","130","1689824","0.0-13.0-1.0","65b929230cff388d15dd5c4c","6790928bebf0b969fc839b02","6792bc7bd8cdd9caa5103fc3","passed","","4925","","","","","","","","","","","","","<p><span style=""font-size:40px;"">Practice BLOCK 1</span></p><p><span style=""font-size:25px;"">You have <b style=""color: #FF644F;""><strong>3 second(s)</strong></b> to respond to the following trials.</span><br></p><p id=""blinking-text"" style=""font-weight; animation: blink 2s infinite;"">Press Space to continue</p><style>
                    @keyframes blink {
                        50% {
                            opacity: 0;
                        }
                    }
                </style>"," ","","","","","","","","","","","","","",""
"","","","","","html-keyboard-response","131","1691407","0.0-13.0-2.0-0.0","65b929230cff388d15dd5c4c","6790928bebf0b969fc839b02","6792bc7bd8cdd9caa5103fc3","passed","","","","","","","","","","","","","","","","","ballFalling_prac","660","610","263","4","fallScene","false","","","","","","",""
"","","","","","html-keyboard-response","132","1694410","0.0-13.0-2.0-1.0","65b929230cff388d15dd5c4c","6790928bebf0b969fc839b02","6792bc7bd8cdd9caa5103fc3","passed","","2474","","","","","","","","","","","","","","j","yesOrNo_prac","","","","4","","","gt","3000","","","","",""
"","","","","","html-keyboard-response","133","1695974","0.0-13.0-2.0-0.1","65b929230cff388d15dd5c4c","6790928bebf0b969fc839b02","6792bc7bd8cdd9caa5103fc3","passed","","","","","","","","","","","","","","","","","ballFalling_prac","584","536","296","1","fallScene","true","","","","","","",""
"","","","","","html-keyboard-response","134","1698976","0.0-13.0-2.0-1.1","65b929230cff388d15dd5c4c","6790928bebf0b969fc839b02","6792bc7bd8cdd9caa5103fc3","passed","","947","","","","","","","","","","","","","","f","yesOrNo_prac","","","","1","","","close gt","3000","","","","",""
"","","","","","html-keyboard-response","135","1700540","0.0-13.0-2.0-0.2","65b929230cff388d15dd5c4c","6790928bebf0b969fc839b02","6792bc7bd8cdd9caa5103fc3","passed","","","","","","","","","","","","","","","","","ballFalling_prac","416","464","296","1","fallScene","false","","","","","","",""
"","","","","","html-keyboard-response","136","1703542","0.0-13.0-2.0-1.2","65b929230cff388d15dd5c4c","6790928bebf0b969fc839b02","6792bc7bd8cdd9caa5103fc3","passed","","1154","","","","","","","","","","","","","","j","yesOrNo_prac","","","","1","","","far gt","3000","","","","",""
"","","","","","html-keyboard-response","137","1705596","0.0-13.0-3.0","65b929230cff388d15dd5c4c","6790928bebf0b969fc839b02","6792bc7bd8cdd9caa5103fc3","passed","","2053","","","","","","","","","","","","","<p><span style=""font-size:40px;"">Practice BLOCK 2</span></p><p><span style=""font-size:25px;"">You have <b style=""color: #FF644F;""><strong>1 second(s)</strong></b> to respond to the following trials.</span><br></p><p id=""blinking-text"" style=""font-weight; animation: blink 2s infinite;"">Press Space to continue</p><style>
                    @keyframes blink {
                        50% {
                            opacity: 0;
                        }
                    }
                </style>"," ","","","","","","","","","","","","","",""
"","","","","","html-keyboard-response","138","1707174","0.0-13.0-4.0-0.0","65b929230cff388d15dd5c4c","6790928bebf0b969fc839b02","6792bc7bd8cdd9caa5103fc3","passed","","","","","","","","","","","","","","","","","ballFalling_prac","660","610","263","4","fallScene","false","","","","","","",""
"","","","","","html-keyboard-response","139","1708177","0.0-13.0-4.0-1.0","65b929230cff388d15dd5c4c","6790928bebf0b969fc839b02","6792bc7bd8cdd9caa5103fc3","passed","","null","","","","","","","","","","","","","","null","yesOrNo_prac","","","","4","","","far gt","1000","","","","",""
"","","","","","html-keyboard-response","140","1709740","0.0-13.0-4.0-0.1","65b929230cff388d15dd5c4c","6790928bebf0b969fc839b02","6792bc7bd8cdd9caa5103fc3","passed","","","","","","","","","","","","","","","","","ballFalling_prac","441","500","317","6","fallScene","true","","","","","","",""
"","","","","","html-keyboard-response","141","1710742","0.0-13.0-4.0-1.1","65b929230cff388d15dd5c4c","6790928bebf0b969fc839b02","6792bc7bd8cdd9caa5103fc3","passed","","828","","","","","","","","","","","","","","j","yesOrNo_prac","","","","6","","","gt","1000","","","","",""
"","","","","","html-keyboard-response","142","1712857","0.0-13.0-4.0-0.2","65b929230cff388d15dd5c4c","6790928bebf0b969fc839b02","6792bc7bd8cdd9caa5103fc3","passed","","","","","","","","","","","","","","","","","ballFalling_prac","340","334","350","3","fallScene","true","","","","","","",""
"","","","","","html-keyboard-response","143","1713859","0.0-13.0-4.0-1.2","65b929230cff388d15dd5c4c","6790928bebf0b969fc839b02","6792bc7bd8cdd9caa5103fc3","passed","","771","","","","","","","","","","","","","","j","yesOrNo_prac","","","","3","","","close gt","1000","","","","",""
"","","","","","instructions","144","1720854","0.0-13.0-5.0","65b929230cff388d15dd5c4c","6790928bebf0b969fc839b02","6792bc7bd8cdd9caa5103fc3","passed","[{""page_index"":0,""viewing_time"":6994}]","6995","","","","","","","","","","","","","","","","","","","","","","","","","","","",""
"","","","","","html-keyboard-response","145","1723619","0.0-13.0-6.0","65b929230cff388d15dd5c4c","6790928bebf0b969fc839b02","6792bc7bd8cdd9caa5103fc3","passed","","2764","","","","","","","","","","","","","<p><span style=""font-size:40px;"">Practice Test BLOCK 1</span></p><p><span style=""font-size:25px;"">You have <b style=""color: #FF644F;""><strong>1 second(s)</strong></b> to respond to the following trials.</span><br></p><p id=""blinking-text"" style=""font-weight; animation: blink 2s infinite;"">Press Space to continue</p><style>
                    @keyframes blink {
                        50% {
                            opacity: 0;
                        }
                    }
                </style>"," ","","","","","","","","","","","","","",""
"","","","","","html-keyboard-response","146","1725190","0.0-13.0-7.0-0.0","65b929230cff388d15dd5c4c","6790928bebf0b969fc839b02","6792bc7bd8cdd9caa5103fc3","passed","","","","","","","","","","","","","","","","","ballFalling_prac","340","390","263","4","fallScene","true","","","","","","",""
"","","","","","html-keyboard-response","147","1726193","0.0-13.0-7.0-1.0","65b929230cff388d15dd5c4c","6790928bebf0b969fc839b02","6792bc7bd8cdd9caa5103fc3","passed","","688","","","","","","","","","","","","","","j","yesOrNo_prac","","","","4","","","far gt","1000","","","","",""
"","","","","","html-keyboard-response","148","1727773","0.0-13.0-7.0-0.1","65b929230cff388d15dd5c4c","6790928bebf0b969fc839b02","6792bc7bd8cdd9caa5103fc3","passed","","","","","","","","","","","","","","","","","ballFalling_prac","559","586","302","5","fallScene","false","","","","","","",""
"","","","","","html-keyboard-response","149","1728776","0.0-13.0-7.0-1.1","65b929230cff388d15dd5c4c","6790928bebf0b969fc839b02","6792bc7bd8cdd9caa5103fc3","passed","","855","","","","","","","","","","","","","","j","yesOrNo_prac","","","","5","","","gt","1000","","","","",""
"","","","","","html-keyboard-response","150","1730340","0.0-13.0-7.0-0.2","65b929230cff388d15dd5c4c","6790928bebf0b969fc839b02","6792bc7bd8cdd9caa5103fc3","passed","","","","","","","","","","","","","","","","","ballFalling_prac","441","500","317","6","fallScene","true","","","","","","",""
"","","","","","html-keyboard-response","151","1731343","0.0-13.0-7.0-1.2","65b929230cff388d15dd5c4c","6790928bebf0b969fc839b02","6792bc7bd8cdd9caa5103fc3","passed","","538","","","","","","","","","","","","","","j","yesOrNo_prac","","","","6","","","close gt","1000","","","","",""
"","","","","","html-keyboard-response","152","1733644","0.0-13.0-8.0","65b929230cff388d15dd5c4c","6790928bebf0b969fc839b02","6792bc7bd8cdd9caa5103fc3","passed","","2300","","","","","","","","","","","","","<p><span style=""font-size:40px;"">Practice Test BLOCK 2</span></p><p><span style=""font-size:25px;"">You have <b style=""color: #FF644F;""><strong>3 second(s)</strong></b> to respond to the following trials.</span><br></p><p id=""blinking-text"" style=""font-weight; animation: blink 2s infinite;"">Press Space to continue</p><style>
                    @keyframes blink {
                        50% {
                            opacity: 0;
                        }
                    }
                </style>"," ","","","","","","","","","","","","","",""
"","","","","","html-keyboard-response","153","1735224","0.0-13.0-9.0-0.0","65b929230cff388d15dd5c4c","6790928bebf0b969fc839b02","6792bc7bd8cdd9caa5103fc3","passed","","","","","","","","","","","","","","","","","ballFalling_prac","340","390","263","4","fallScene","true","","","","","","",""
"","","","","","html-keyboard-response","154","1738227","0.0-13.0-9.0-1.0","65b929230cff388d15dd5c4c","6790928bebf0b969fc839b02","6792bc7bd8cdd9caa5103fc3","passed","","847","","","","","","","","","","","","","","j","yesOrNo_prac","","","","4","","","close gt","3000","","","","",""
"","","","","","html-keyboard-response","155","1739808","0.0-13.0-9.0-0.1","65b929230cff388d15dd5c4c","6790928bebf0b969fc839b02","6792bc7bd8cdd9caa5103fc3","passed","","","","","","","","","","","","","","","","","ballFalling_prac","559","586","302","5","fallScene","false","","","","","","",""
"","","","","","html-keyboard-response","156","1742810","0.0-13.0-9.0-1.1","65b929230cff388d15dd5c4c","6790928bebf0b969fc839b02","6792bc7bd8cdd9caa5103fc3","passed","","1360","","","","","","","","","","","","","","f","yesOrNo_prac","","","","5","","","far gt","3000","","","","",""
"","","","","","html-keyboard-response","157","1744392","0.0-13.0-9.0-0.2","65b929230cff388d15dd5c4c","6790928bebf0b969fc839b02","6792bc7bd8cdd9caa5103fc3","passed","","","","","","","","","","","","","","","","","ballFalling_prac","416","365","249","2","fallScene","false","","","","","","",""
"","","","","","html-keyboard-response","158","1747394","0.0-13.0-9.0-1.2","65b929230cff388d15dd5c4c","6790928bebf0b969fc839b02","6792bc7bd8cdd9caa5103fc3","passed","","1749","","","","","","","","","","","","","","f","yesOrNo_prac","","","","2","","","gt","3000","","","","",""
"","","","","","instructions","159","1751421","0.0-14.0","65b929230cff388d15dd5c4c","6790928bebf0b969fc839b02","6792bc7bd8cdd9caa5103fc3","passed","[{""page_index"":0,""viewing_time"":4026}]","4027","","","","","","","","","","","","","","","","","","","","","","","","","","","",""
"","","","","","html-keyboard-response","160","1753781","0.0-15.0","65b929230cff388d15dd5c4c","6790928bebf0b969fc839b02","6792bc7bd8cdd9caa5103fc3","passed","","2359","","","","","","","","","","","","","<p><span style=""font-size:40px;"">BLOCK 1</span></p><p><span style=""font-size:25px;"">You have <b style=""color: #FF644F;""><strong>3 second(s)</strong></b> to respond to the following trials.</span><br></p><p></p> <!-- Blank line -->
                <p id=""blinking-text"" style=""font-weight; animation: blink 2s infinite;"">Press Space to continue</p>
                <style>
                    @keyframes blink {
                        50% {
                            opacity: 0;
                        }
                    }
                </style></p>"," ","","","","","","","","","","","","","",""
"","","","","","html-keyboard-response","161","1755792","0.0-16.0-0.0","65b929230cff388d15dd5c4c","6790928bebf0b969fc839b02","6792bc7bd8cdd9caa5103fc3","passed","","","","","","","","","","","","","","","","","ballFalling","500","510.8711431702997","369.03","8","fallScene","false","","","","","1","",""
"","","","","","html-keyboard-response","162","1758794","0.0-16.0-1.0","65b929230cff388d15dd5c4c","6790928bebf0b969fc839b02","6792bc7bd8cdd9caa5103fc3","passed","","1633","","","","","","","","","","","","","","f","yesOrNo","","","","8","","","mid","3000","","","1","501","300"
"","","","","","html-keyboard-response","163","1760458","0.0-16.0-0.1","65b929230cff388d15dd5c4c","6790928bebf0b969fc839b02","6792bc7bd8cdd9caa5103fc3","passed","","","","","","","","","","","","","","","","","ballFalling","500","479.92114317029973","330.87","6","fallScene","false","","","","","2","",""
"","","","","","html-keyboard-response","164","1763460","0.0-16.0-1.1","65b929230cff388d15dd5c4c","6790928bebf0b969fc839b02","6792bc7bd8cdd9caa5103fc3","passed","","825","","","","","","","","","","","","","","j","yesOrNo","","","","6","","","gt","3000","","","2","479.9211431702998","330.87"
"","","","","","html-keyboard-response","165","1765025","0.0-16.0-0.2","65b929230cff388d15dd5c4c","6790928bebf0b969fc839b02","6792bc7bd8cdd9caa5103fc3","passed","","","","","","","","","","","","","","","","","ballFalling","322.3","356.42114317029973","357.87","4","fallScene","true","","","","","3","",""
"","","","","","html-keyboard-response","166","1768027","0.0-16.0-1.2","65b929230cff388d15dd5c4c","6790928bebf0b969fc839b02","6792bc7bd8cdd9caa5103fc3","passed","","1749","","","","","","","","","","","","","","j","yesOrNo","","","","4","","","gt","3000","","","3","356.42114317029973","357.87"
"","","","","","html-keyboard-response","167","1769609","0.0-16.0-0.3","65b929230cff388d15dd5c4c","6790928bebf0b969fc839b02","6792bc7bd8cdd9caa5103fc3","passed","","","","","","","","","","","","","","","","","ballFalling","500","553.4711431702997","282.51","7","fallScene","true","","","","","4","",""
"","","","","","html-keyboard-response","168","1772611","0.0-16.0-1.3","65b929230cff388d15dd5c4c","6790928bebf0b969fc839b02","6792bc7bd8cdd9caa5103fc3","passed","","1148","","","","","","","","","","","","","","f","yesOrNo","","","","7","","","mid","3000","","","4","501","300"
"","","","","","html-keyboard-response","169","1774275","0.0-16.0-0.4","65b929230cff388d15dd5c4c","6790928bebf0b969fc839b02","6792bc7bd8cdd9caa5103fc3","passed","","","","","","","","","","","","","","","","","ballFalling","500","479.92114317029973","330.87","6","fallScene","true","","","","","5","",""
"","","","","","html-keyboard-response","170","1777277","0.0-16.0-1.4","65b929230cff388d15dd5c4c","6790928bebf0b969fc839b02","6792bc7bd8cdd9caa5103fc3","passed","","1322","","","","","","","","","","","","","","f","yesOrNo","","","","6","","","mid","3000","","","5","499","300"
"","","","","","html-keyboard-response","171","1778843","0.0-16.0-0.5","65b929230cff388d15dd5c4c","6790928bebf0b969fc839b02","6792bc7bd8cdd9caa5103fc3","passed","","","","","","","","","","","","","","","","","ballFalling","322.3","356.42114317029973","357.87","4","fallScene","true","","","","","6","",""
"","","","","","html-keyboard-response","172","1781846","0.0-16.0-1.5","65b929230cff388d15dd5c4c","6790928bebf0b969fc839b02","6792bc7bd8cdd9caa5103fc3","passed","","1229","","","","","","","","","","","","","","f","yesOrNo","","","","4","","","mid","3000","","","6","390.27114317029975","300"
"","","","","","html-keyboard-response","173","1783859","0.0-16.0-0.6","65b929230cff388d15dd5c4c","6790928bebf0b969fc839b02","6792bc7bd8cdd9caa5103fc3","passed","","","","","","","","","","","","","","","","","ballFalling","604.4000000000001","596.8711431702998","394.5","10","fallScene","false","","","","","7","",""
"","","","","","html-keyboard-response","174","1786861","0.0-16.0-1.6","65b929230cff388d15dd5c4c","6790928bebf0b969fc839b02","6792bc7bd8cdd9caa5103fc3","passed","","1297","","","","","","","","","","","","","","j","yesOrNo","","","","10","","","gt","3000","","","7","596.8711431702998","394.5"
"","","","","","html-keyboard-response","175","1788442","0.0-16.0-0.7","65b929230cff388d15dd5c4c","6790928bebf0b969fc839b02","6792bc7bd8cdd9caa5103fc3","passed","","","","","","","","","","","","","","","","","ballFalling","500","553.4711431702997","282.51","7","fallScene","false","","","","","8","",""
"","","","","","html-keyboard-response","176","1791445","0.0-16.0-1.7","65b929230cff388d15dd5c4c","6790928bebf0b969fc839b02","6792bc7bd8cdd9caa5103fc3","passed","","1428","","","","","","","","","","","","","","f","yesOrNo","","","","7","","","lp","3000","","","8","501","227.2843295913261"
"","","","","","html-keyboard-response","177","1792942","0.0-16.0-0.8","65b929230cff388d15dd5c4c","6790928bebf0b969fc839b02","6792bc7bd8cdd9caa5103fc3","passed","","","","","","","","","","","","","","","","","ballFalling","604.4000000000001","667.6211431702998","201.78","9","fallScene","true","","","","","9","",""
"","","","","","html-keyboard-response","178","1795944","0.0-16.0-1.8","65b929230cff388d15dd5c4c","6790928bebf0b969fc839b02","6792bc7bd8cdd9caa5103fc3","passed","","1608","","","","","","","","","","","","","","j","yesOrNo","","","","9","","","gt","3000","","","9","667.6211431702998","201.78"
"","","","","","html-keyboard-response","179","1797443","0.0-16.0-0.9","65b929230cff388d15dd5c4c","6790928bebf0b969fc839b02","6792bc7bd8cdd9caa5103fc3","passed","","","","","","","","","","","","","","","","","ballFalling","604.4000000000001","667.6211431702998","201.78","9","fallScene","false","","","","","10","",""
"","","","","","html-keyboard-response","180","1800445","0.0-16.0-1.9","65b929230cff388d15dd5c4c","6790928bebf0b969fc839b02","6792bc7bd8cdd9caa5103fc3","passed","","1224","","","","","","","","","","","","","","f","yesOrNo","","","","9","","","lp","3000","","","10","605.4000000000001","151"
"","","","","","html-keyboard-response","181","1802010","0.0-16.0-0.10","65b929230cff388d15dd5c4c","6790928bebf0b969fc839b02","6792bc7bd8cdd9caa5103fc3","passed","","","","","","","","","","","","","","","","","ballFalling","604.4000000000001","650.0211431702996","404.58000000000004","11","fallScene","false","","","","","11","",""
"","","","","","html-keyboard-response","182","1805012","0.0-16.0-1.10","65b929230cff388d15dd5c4c","6790928bebf0b969fc839b02","6792bc7bd8cdd9caa5103fc3","passed","","1383","","","","","","","","","","","","","","j","yesOrNo","","","","11","","","gt","3000","","","11","650.0211431702996","404.58"
"","","","","","html-keyboard-response","183","1806676","0.0-16.0-0.11","65b929230cff388d15dd5c4c","6790928bebf0b969fc839b02","6792bc7bd8cdd9caa5103fc3","passed","","","","","","","","","","","","","","","","","ballFalling","500","479.92114317029973","330.87","6","fallScene","false","","","","","12","",""
"","","","","","html-keyboard-response","184","1809760","0.0-16.0-1.11","65b929230cff388d15dd5c4c","6790928bebf0b969fc839b02","6792bc7bd8cdd9caa5103fc3","passed","","812","","","","","","","","","","","","","","j","yesOrNo","","","","6","","","gt","3000","","","12","479.9211431702998","330.87"
"","","","","","html-keyboard-response","185","1811324","0.0-16.0-0.12","65b929230cff388d15dd5c4c","6790928bebf0b969fc839b02","6792bc7bd8cdd9caa5103fc3","passed","","","","","","","","","","","","","","","","","ballFalling","500","453.67114317029973","210.33","5","fallScene","true","","","","","13","",""
"","","","","","html-keyboard-response","186","1814326","0.0-16.0-1.12","65b929230cff388d15dd5c4c","6790928bebf0b969fc839b02","6792bc7bd8cdd9caa5103fc3","passed","","1240","","","","","","","","","","","","","","f","yesOrNo","","","","5","","","mid","3000","","","13","499","300"
"","","","","","html-keyboard-response","187","1815891","0.0-16.0-0.13","65b929230cff388d15dd5c4c","6790928bebf0b969fc839b02","6792bc7bd8cdd9caa5103fc3","passed","","","","","","","","","","","","","","","","","ballFalling","604.4000000000001","650.0211431702996","404.58000000000004","11","fallScene","true","","","","","14","",""
"","","","","","html-keyboard-response","188","1818892","0.0-16.0-1.13","65b929230cff388d15dd5c4c","6790928bebf0b969fc839b02","6792bc7bd8cdd9caa5103fc3","passed","","1400","","","","","","","","","","","","","","f","yesOrNo","","","","11","","","lp","3000","","","14","605.4000000000001","372.6340973215488"
"","","","","","html-keyboard-response","189","1820457","0.0-16.0-0.14","65b929230cff388d15dd5c4c","6790928bebf0b969fc839b02","6792bc7bd8cdd9caa5103fc3","passed","","","","","","","","","","","","","","","","","ballFalling","604.4000000000001","650.0211431702996","404.58000000000004","11","fallScene","true","","","","","15","",""
"","","","","","html-keyboard-response","190","1823460","0.0-16.0-1.14","65b929230cff388d15dd5c4c","6790928bebf0b969fc839b02","6792bc7bd8cdd9caa5103fc3","passed","","1401","","","","","","","","","","","","","","f","yesOrNo","","","","11","","","mid","3000","","","15","605.4000000000001","300"
"","","","","","html-keyboard-response","191","1825041","0.0-16.0-0.15","65b929230cff388d15dd5c4c","6790928bebf0b969fc839b02","6792bc7bd8cdd9caa5103fc3","passed","","","","","","","","","","","","","","","","","ballFalling","500","553.4711431702997","282.51","7","fallScene","true","","","","","16","",""
"","","","","","html-keyboard-response","192","1828043","0.0-16.0-1.15","65b929230cff388d15dd5c4c","6790928bebf0b969fc839b02","6792bc7bd8cdd9caa5103fc3","passed","","956","","","","","","","","","","","","","","f","yesOrNo","","","","7","","","mid","3000","","","16","501","300"
"","","","","","html-keyboard-response","193","1829608","0.0-16.0-0.16","65b929230cff388d15dd5c4c","6790928bebf0b969fc839b02","6792bc7bd8cdd9caa5103fc3","passed","","","","","","","","","","","","","","","","","ballFalling","322.3","296.07114317029976","371.46","3","fallScene","false","","","","","17","",""
"","","","","","html-keyboard-response","194","1832611","0.0-16.0-1.16","65b929230cff388d15dd5c4c","6790928bebf0b969fc839b02","6792bc7bd8cdd9caa5103fc3","passed","","776","","","","","","","","","","","","","","j","yesOrNo","","","","3","","","gt","3000","","","17","296.07114317029976","371.46"
"","","","","","html-keyboard-response","195","1834625","0.0-16.0-0.17","65b929230cff388d15dd5c4c","6790928bebf0b969fc839b02","6792bc7bd8cdd9caa5103fc3","passed","","","","","","","","","","","","","","","","","ballFalling","604.4000000000001","596.8711431702998","394.5","10","fallScene","true","","","","","18","",""
"","","","","","html-keyboard-response","196","1837627","0.0-16.0-1.17","65b929230cff388d15dd5c4c","6790928bebf0b969fc839b02","6792bc7bd8cdd9caa5103fc3","passed","","1006","","","","","","","","","","","","","","f","yesOrNo","","","","10","","","lp","3000","","","18","603.4000000000001","215.50214355555383"
"","","","","","html-keyboard-response","197","1839125","0.0-16.0-0.18","65b929230cff388d15dd5c4c","6790928bebf0b969fc839b02","6792bc7bd8cdd9caa5103fc3","passed","","","","","","","","","","","","","","","","","ballFalling","604.4000000000001","667.6211431702998","201.78","9","fallScene","false","","","","","19","",""
"","","","","","html-keyboard-response","198","1842126","0.0-16.0-1.18","65b929230cff388d15dd5c4c","6790928bebf0b969fc839b02","6792bc7bd8cdd9caa5103fc3","passed","","992","","","","","","","","","","","","","","f","yesOrNo","","","","9","","","lp","3000","","","19","605.4000000000001","151"
"","","","","","html-keyboard-response","199","1843926","0.0-16.0-0.19","65b929230cff388d15dd5c4c","6790928bebf0b969fc839b02","6792bc7bd8cdd9caa5103fc3","passed","","","","","","","","","","","","","","","","","ballFalling","322.3","308.07114317029976","253.89","2","fallScene","false","","","","","20","",""
"","","","","","html-keyboard-response","200","1846928","0.0-16.0-1.19","65b929230cff388d15dd5c4c","6790928bebf0b969fc839b02","6792bc7bd8cdd9caa5103fc3","passed","","1056","","","","","","","","","","","","","","f","yesOrNo","","","","2","","","lp","3000","","","20","321.3","151"
"","","","","","html-keyboard-response","201","1848493","0.0-16.0-0.20","65b929230cff388d15dd5c4c","6790928bebf0b969fc839b02","6792bc7bd8cdd9caa5103fc3","passed","","","","","","","","","","","","","","","","","ballFalling","322.3","379.3711431702997","245.25","1","fallScene","false","","","","","21","",""
"","","","","","html-keyboard-response","202","1851496","0.0-16.0-1.20","65b929230cff388d15dd5c4c","6790928bebf0b969fc839b02","6792bc7bd8cdd9caa5103fc3","passed","","871","","","","","","","","","","","","","","f","yesOrNo","","","","1","","","lp","3000","","","21","323.3","217.74551669457017"
"","","","","","html-keyboard-response","203","1853059","0.0-16.0-0.21","65b929230cff388d15dd5c4c","6790928bebf0b969fc839b02","6792bc7bd8cdd9caa5103fc3","passed","","","","","","","","","","","","","","","","","ballFalling","604.4000000000001","575.4211431702997","266.76","12","fallScene","true","","","","","22","",""
"","","","","","html-keyboard-response","204","1856062","0.0-16.0-1.21","65b929230cff388d15dd5c4c","6790928bebf0b969fc839b02","6792bc7bd8cdd9caa5103fc3","passed","","1089","","","","","","","","","","","","","","j","yesOrNo","","","","12","","","gt","3000","","","22","575.4211431702997","266.76"
"","","","","","html-keyboard-response","205","1858076","0.0-16.0-0.22","65b929230cff388d15dd5c4c","6790928bebf0b969fc839b02","6792bc7bd8cdd9caa5103fc3","passed","","","","","","","","","","","","","","","","","ballFalling","604.4000000000001","596.8711431702998","394.5","10","fallScene","true","","","","","23","",""
"","","","","","html-keyboard-response","206","1861078","0.0-16.0-1.22","65b929230cff388d15dd5c4c","6790928bebf0b969fc839b02","6792bc7bd8cdd9caa5103fc3","passed","","863","","","","","","","","","","","","","","f","yesOrNo","","","","10","","","lp","3000","","","23","603.4000000000001","215.50214355555383"
"","","","","","html-keyboard-response","207","1862643","0.0-16.0-0.23","65b929230cff388d15dd5c4c","6790928bebf0b969fc839b02","6792bc7bd8cdd9caa5103fc3","passed","","","","","","","","","","","","","","","","","ballFalling","322.3","296.07114317029976","371.46","3","fallScene","true","","","","","24","",""
"","","","","","html-keyboard-response","208","1865645","0.0-16.0-1.23","65b929230cff388d15dd5c4c","6790928bebf0b969fc839b02","6792bc7bd8cdd9caa5103fc3","passed","","955","","","","","","","","","","","","","","f","yesOrNo","","","","3","","","mid","3000","","","24","321.3","300"
"","","","","","html-keyboard-response","209","1866984","0.0-17.0","65b929230cff388d15dd5c4c","6790928bebf0b969fc839b02","6792bc7bd8cdd9caa5103fc3","passed","","1338","","","","","","","","","","","","","<p><span style=""font-size:40px;"">BLOCK 2</span></p><p><span style=""font-size:25px;"">You have <b style=""color: #FF644F;""><strong>3 second(s)</strong></b> to respond to the following trials.</span><br></p><p></p> <!-- Blank line -->
                <p id=""blinking-text"" style=""font-weight; animation: blink 2s infinite;"">Press Space to continue</p>
                <style>
                    @keyframes blink {
                        50% {
                            opacity: 0;
                        }
                    }
                </style></p>"," ","","","","","","","","","","","","","",""
"","","","","","html-keyboard-response","210","1868992","0.0-18.0-0.0","65b929230cff388d15dd5c4c","6790928bebf0b969fc839b02","6792bc7bd8cdd9caa5103fc3","passed","","","","","","","","","","","","","","","","","ballFalling","604.4000000000001","596.8711431702998","394.5","10","fallScene","true","","","","","25","",""
"","","","","","html-keyboard-response","211","1871994","0.0-18.0-1.0","65b929230cff388d15dd5c4c","6790928bebf0b969fc839b02","6792bc7bd8cdd9caa5103fc3","passed","","2197","","","","","","","","","","","","","","j","yesOrNo","","","","10","","","mid","3000","","","25","536.4288568297004","300"
"","","","","","html-keyboard-response","212","1873560","0.0-18.0-0.1","65b929230cff388d15dd5c4c","6790928bebf0b969fc839b02","6792bc7bd8cdd9caa5103fc3","passed","","","","","","","","","","","","","","","","","ballFalling","322.3","356.42114317029973","357.87","4","fallScene","false","","","","","26","",""
"","","","","","html-keyboard-response","213","1876562","0.0-18.0-1.1","65b929230cff388d15dd5c4c","6790928bebf0b969fc839b02","6792bc7bd8cdd9caa5103fc3","passed","","1276","","","","","","","","","","","","","","j","yesOrNo","","","","4","","","mid","3000","","","26","390.27114317029975","300"
"","","","","","html-keyboard-response","214","1878126","0.0-18.0-0.2","65b929230cff388d15dd5c4c","6790928bebf0b969fc839b02","6792bc7bd8cdd9caa5103fc3","passed","","","","","","","","","","","","","","","","","ballFalling","322.3","356.42114317029973","357.87","4","fallScene","true","","","","","27","",""
"","","","","","html-keyboard-response","215","1881128","0.0-18.0-1.2","65b929230cff388d15dd5c4c","6790928bebf0b969fc839b02","6792bc7bd8cdd9caa5103fc3","passed","","1357","","","","","","","","","","","","","","j","yesOrNo","","","","4","","","gt","3000","","","27","356.42114317029973","357.87"
"","","","","","html-keyboard-response","216","1882694","0.0-18.0-0.3","65b929230cff388d15dd5c4c","6790928bebf0b969fc839b02","6792bc7bd8cdd9caa5103fc3","passed","","","","","","","","","","","","","","","","","ballFalling","322.3","379.3711431702997","245.25","1","fallScene","false","","","","","28","",""
"","","","","","html-keyboard-response","217","1885695","0.0-18.0-1.3","65b929230cff388d15dd5c4c","6790928bebf0b969fc839b02","6792bc7bd8cdd9caa5103fc3","passed","","1089","","","","","","","","","","","","","","j","yesOrNo","","","","1","","","gt","3000","","","28","379.3711431702997","245.25"
"","","","","","html-keyboard-response","218","1887493","0.0-18.0-0.4","65b929230cff388d15dd5c4c","6790928bebf0b969fc839b02","6792bc7bd8cdd9caa5103fc3","passed","","","","","","","","","","","","","","","","","ballFalling","322.3","308.07114317029976","253.89","2","fallScene","false","","","","","29","",""
"","","","","","html-keyboard-response","219","1890495","0.0-18.0-1.4","65b929230cff388d15dd5c4c","6790928bebf0b969fc839b02","6792bc7bd8cdd9caa5103fc3","passed","","877","","","","","","","","","","","","","","f","yesOrNo","","","","2","","","lp","3000","","","29","321.3","151"
"","","","","","html-keyboard-response","220","1892077","0.0-18.0-0.5","65b929230cff388d15dd5c4c","6790928bebf0b969fc839b02","6792bc7bd8cdd9caa5103fc3","passed","","","","","","","","","","","","","","","","","ballFalling","500","553.4711431702997","282.51","7","fallScene","false","","","","","30","",""
"","","","","","html-keyboard-response","221","1895078","0.0-18.0-1.5","65b929230cff388d15dd5c4c","6790928bebf0b969fc839b02","6792bc7bd8cdd9caa5103fc3","passed","","984","","","","","","","","","","","","","","f","yesOrNo","","","","7","","","lp","3000","","","30","501","227.2843295913261"
"","","","","","html-keyboard-response","222","1896643","0.0-18.0-0.6","65b929230cff388d15dd5c4c","6790928bebf0b969fc839b02","6792bc7bd8cdd9caa5103fc3","passed","","","","","","","","","","","","","","","","","ballFalling","322.3","296.07114317029976","371.46","3","fallScene","false","","","","","31","",""
"","","","","","html-keyboard-response","223","1899645","0.0-18.0-1.6","65b929230cff388d15dd5c4c","6790928bebf0b969fc839b02","6792bc7bd8cdd9caa5103fc3","passed","","1727","","","","","","","","","","","","","","j","yesOrNo","","","","3","","","lp","3000","","","31","321.3","287.3327096511259"
"","","","","","html-keyboard-response","224","1901211","0.0-18.0-0.7","65b929230cff388d15dd5c4c","6790928bebf0b969fc839b02","6792bc7bd8cdd9caa5103fc3","passed","","","","","","","","","","","","","","","","","ballFalling","322.3","379.3711431702997","245.25","1","fallScene","true","","","","","32","",""
"","","","","","html-keyboard-response","225","1904213","0.0-18.0-1.7","65b929230cff388d15dd5c4c","6790928bebf0b969fc839b02","6792bc7bd8cdd9caa5103fc3","passed","","2784","","","","","","","","","","","","","","f","yesOrNo","","","","1","","","mid","3000","","","32","390.27114317029975","300"
"","","","","","html-keyboard-response","226","1905795","0.0-18.0-0.8","65b929230cff388d15dd5c4c","6790928bebf0b969fc839b02","6792bc7bd8cdd9caa5103fc3","passed","","","","","","","","","","","","","","","","","ballFalling","500","553.4711431702997","282.51","7","fallScene","true","","","","","33","",""
"","","","","","html-keyboard-response","227","1908797","0.0-18.0-1.8","65b929230cff388d15dd5c4c","6790928bebf0b969fc839b02","6792bc7bd8cdd9caa5103fc3","passed","","2239","","","","","","","","","","","","","","j","yesOrNo","","","","7","","","gt","3000","","","33","553.4711431702997","282.51"
"","","","","","html-keyboard-response","228","1910295","0.0-18.0-0.9","65b929230cff388d15dd5c4c","6790928bebf0b969fc839b02","6792bc7bd8cdd9caa5103fc3","passed","","","","","","","","","","","","","","","","","ballFalling","604.4000000000001","667.6211431702998","201.78","9","fallScene","true","","","","","34","",""
"","","","","","html-keyboard-response","229","1913297","0.0-18.0-1.9","65b929230cff388d15dd5c4c","6790928bebf0b969fc839b02","6792bc7bd8cdd9caa5103fc3","passed","","1959","","","","","","","","","","","","","","f","yesOrNo","","","","9","","","mid","3000","","","34","605.4000000000001","300"
"","","","","","html-keyboard-response","230","1914861","0.0-18.0-0.10","65b929230cff388d15dd5c4c","6790928bebf0b969fc839b02","6792bc7bd8cdd9caa5103fc3","passed","","","","","","","","","","","","","","","","","ballFalling","322.3","379.3711431702997","245.25","1","fallScene","true","","","","","35","",""
"","","","","","html-keyboard-response","231","1917863","0.0-18.0-1.10","65b929230cff388d15dd5c4c","6790928bebf0b969fc839b02","6792bc7bd8cdd9caa5103fc3","passed","","812","","","","","","","","","","","","","","j","yesOrNo","","","","1","","","mid","3000","","","35","390.27114317029975","300"
"","","","","","html-keyboard-response","232","1919428","0.0-18.0-0.11","65b929230cff388d15dd5c4c","6790928bebf0b969fc839b02","6792bc7bd8cdd9caa5103fc3","passed","","","","","","","","","","","","","","","","","ballFalling","322.3","379.3711431702997","245.25","1","fallScene","true","","","","","36","",""
"","","","","","html-keyboard-response","233","1922430","0.0-18.0-1.11","65b929230cff388d15dd5c4c","6790928bebf0b969fc839b02","6792bc7bd8cdd9caa5103fc3","passed","","690","","","","","","","","","","","","","","j","yesOrNo","","","","1","","","gt","3000","","","36","379.3711431702997","245.25"
"","","","","","html-keyboard-response","234","1923996","0.0-18.0-0.12","65b929230cff388d15dd5c4c","6790928bebf0b969fc839b02","6792bc7bd8cdd9caa5103fc3","passed","","","","","","","","","","","","","","","","","ballFalling","500","453.67114317029973","210.33","5","fallScene","true","","","","","37","",""
"","","","","","html-keyboard-response","235","1926998","0.0-18.0-1.12","65b929230cff388d15dd5c4c","6790928bebf0b969fc839b02","6792bc7bd8cdd9caa5103fc3","passed","","1007","","","","","","","","","","","","","","f","yesOrNo","","","","5","","","lp","3000","","","37","499","151"
"","","","","","html-keyboard-response","236","1929013","0.0-18.0-0.13","65b929230cff388d15dd5c4c","6790928bebf0b969fc839b02","6792bc7bd8cdd9caa5103fc3","passed","","","","","","","","","","","","","","","","","ballFalling","604.4000000000001","596.8711431702998","394.5","10","fallScene","false","","","","","38","",""
"","","","","","html-keyboard-response","237","1932015","0.0-18.0-1.13","65b929230cff388d15dd5c4c","6790928bebf0b969fc839b02","6792bc7bd8cdd9caa5103fc3","passed","","2265","","","","","","","","","","","","","","j","yesOrNo","","","","10","","","mid","3000","","","38","536.4288568297004","300"
"","","","","","html-keyboard-response","238","1933816","0.0-18.0-0.14","65b929230cff388d15dd5c4c","6790928bebf0b969fc839b02","6792bc7bd8cdd9caa5103fc3","passed","","","","","","","","","","","","","","","","","ballFalling","322.3","308.07114317029976","253.89","2","fallScene","false","","","","","39","",""
"","","","","","html-keyboard-response","239","1936817","0.0-18.0-1.14","65b929230cff388d15dd5c4c","6790928bebf0b969fc839b02","6792bc7bd8cdd9caa5103fc3","passed","","1738","","","","","","","","","","","","","","j","yesOrNo","","","","2","","","gt","3000","","","39","308.07114317029976","253.89"
"","","","","","html-keyboard-response","240","1938613","0.0-18.0-0.15","65b929230cff388d15dd5c4c","6790928bebf0b969fc839b02","6792bc7bd8cdd9caa5103fc3","passed","","","","","","","","","","","","","","","","","ballFalling","322.3","308.07114317029976","253.89","2","fallScene","false","","","","","40","",""
"","","","","","html-keyboard-response","241","1941615","0.0-18.0-1.15","65b929230cff388d15dd5c4c","6790928bebf0b969fc839b02","6792bc7bd8cdd9caa5103fc3","passed","","2206","","","","","","","","","","","","","","j","yesOrNo","","","","2","","","mid","3000","","","40","321.3","300"
"","","","","","html-keyboard-response","242","1943178","0.0-18.0-0.16","65b929230cff388d15dd5c4c","6790928bebf0b969fc839b02","6792bc7bd8cdd9caa5103fc3","passed","","","","","","","","","","","","","","","","","ballFalling","500","453.67114317029973","210.33","5","fallScene","false","","","","","41","",""
"","","","","","html-keyboard-response","243","1946180","0.0-18.0-1.16","65b929230cff388d15dd5c4c","6790928bebf0b969fc839b02","6792bc7bd8cdd9caa5103fc3","passed","","2692","","","","","","","","","","","","","","j","yesOrNo","","","","5","","","mid","3000","","","41","499","300"
"","","","","","html-keyboard-response","244","1947745","0.0-18.0-0.17","65b929230cff388d15dd5c4c","6790928bebf0b969fc839b02","6792bc7bd8cdd9caa5103fc3","passed","","","","","","","","","","","","","","","","","ballFalling","500","453.67114317029973","210.33","5","fallScene","true","","","","","42","",""
"","","","","","html-keyboard-response","245","1950748","0.0-18.0-1.17","65b929230cff388d15dd5c4c","6790928bebf0b969fc839b02","6792bc7bd8cdd9caa5103fc3","passed","","1140","","","","","","","","","","","","","","j","yesOrNo","","","","5","","","gt","3000","","","42","453.6711431702998","210.33"
"","","","","","html-keyboard-response","246","1952246","0.0-18.0-0.18","65b929230cff388d15dd5c4c","6790928bebf0b969fc839b02","6792bc7bd8cdd9caa5103fc3","passed","","","","","","","","","","","","","","","","","ballFalling","604.4000000000001","667.6211431702998","201.78","9","fallScene","true","","","","","43","",""
"","","","","","html-keyboard-response","247","1955249","0.0-18.0-1.18","65b929230cff388d15dd5c4c","6790928bebf0b969fc839b02","6792bc7bd8cdd9caa5103fc3","passed","","1150","","","","","","","","","","","","","","j","yesOrNo","","","","9","","","gt","3000","","","43","667.6211431702998","201.78"
"","","","","","html-keyboard-response","248","1956813","0.0-18.0-0.19","65b929230cff388d15dd5c4c","6790928bebf0b969fc839b02","6792bc7bd8cdd9caa5103fc3","passed","","","","","","","","","","","","","","","","","ballFalling","604.4000000000001","575.4211431702997","266.76","12","fallScene","true","","","","","44","",""
"","","","","","html-keyboard-response","249","1959815","0.0-18.0-1.19","65b929230cff388d15dd5c4c","6790928bebf0b969fc839b02","6792bc7bd8cdd9caa5103fc3","passed","","780","","","","","","","","","","","","","","j","yesOrNo","","","","12","","","mid","3000","","","44","536.4288568297004","300"
"","","","","","html-keyboard-response","250","1961379","0.0-18.0-0.20","65b929230cff388d15dd5c4c","6790928bebf0b969fc839b02","6792bc7bd8cdd9caa5103fc3","passed","","","","","","","","","","","","","","","","","ballFalling","604.4000000000001","575.4211431702997","266.76","12","fallScene","false","","","","","45","",""
"","","","","","html-keyboard-response","251","1964381","0.0-18.0-1.20","65b929230cff388d15dd5c4c","6790928bebf0b969fc839b02","6792bc7bd8cdd9caa5103fc3","passed","","740","","","","","","","","","","","","","","j","yesOrNo","","","","12","","","gt","3000","","","45","575.4211431702997","266.76"
"","","","","","html-keyboard-response","252","1965947","0.0-18.0-0.21","65b929230cff388d15dd5c4c","6790928bebf0b969fc839b02","6792bc7bd8cdd9caa5103fc3","passed","","","","","","","","","","","","","","","","","ballFalling","322.3","296.07114317029976","371.46","3","fallScene","false","","","","","46","",""
"","","","","","html-keyboard-response","253","1968948","0.0-18.0-1.21","65b929230cff388d15dd5c4c","6790928bebf0b969fc839b02","6792bc7bd8cdd9caa5103fc3","passed","","1119","","","","","","","","","","","","","","f","yesOrNo","","","","3","","","lp","3000","","","46","321.3","287.3327096511259"
"","","","","","html-keyboard-response","254","1970963","0.0-18.0-0.22","65b929230cff388d15dd5c4c","6790928bebf0b969fc839b02","6792bc7bd8cdd9caa5103fc3","passed","","","","","","","","","","","","","","","","","ballFalling","604.4000000000001","596.8711431702998","394.5","10","fallScene","true","","","","","47","",""
"","","","","","html-keyboard-response","255","1973965","0.0-18.0-1.22","65b929230cff388d15dd5c4c","6790928bebf0b969fc839b02","6792bc7bd8cdd9caa5103fc3","passed","","1166","","","","","","","","","","","","","","f","yesOrNo","","","","10","","","gt","3000","","","47","596.8711431702998","394.5"
"","","","","","html-keyboard-response","256","1975629","0.0-18.0-0.23","65b929230cff388d15dd5c4c","6790928bebf0b969fc839b02","6792bc7bd8cdd9caa5103fc3","passed","","","","","","","","","","","","","","","","","ballFalling","500","479.92114317029973","330.87","6","fallScene","false","","","","","48","",""
"","","","","","html-keyboard-response","257","1978632","0.0-18.0-1.23","65b929230cff388d15dd5c4c","6790928bebf0b969fc839b02","6792bc7bd8cdd9caa5103fc3","passed","","841","","","","","","","","","","","","","","f","yesOrNo","","","","6","","","lp","3000","","","48","499","189.92909825697632"
"","","","","","html-keyboard-response","258","1979960","0.0-19.0","65b929230cff388d15dd5c4c","6790928bebf0b969fc839b02","6792bc7bd8cdd9caa5103fc3","passed","","1328","","","","","","","","","","","","","<p><span style=""font-size:40px;"">BLOCK 3</span></p><p><span style=""font-size:25px;"">You have <b style=""color: #FF644F;""><strong>3 second(s)</strong></b> to respond to the following trials.</span><br></p><p></p> <!-- Blank line -->
                <p id=""blinking-text"" style=""font-weight; animation: blink 2s infinite;"">Press Space to continue</p>
                <style>
                    @keyframes blink {
                        50% {
                            opacity: 0;
                        }
                    }
                </style></p>"," ","","","","","","","","","","","","","",""
"","","","","","html-keyboard-response","259","1981963","0.0-20.0-0.0","65b929230cff388d15dd5c4c","6790928bebf0b969fc839b02","6792bc7bd8cdd9caa5103fc3","passed","","","","","","","","","","","","","","","","","ballFalling","500","510.8711431702997","369.03","8","fallScene","false","","","","","49","",""
"","","","","","html-keyboard-response","260","1984965","0.0-20.0-1.0","65b929230cff388d15dd5c4c","6790928bebf0b969fc839b02","6792bc7bd8cdd9caa5103fc3","passed","","1011","","","","","","","","","","","","","","f","yesOrNo","","","","8","","","gt","3000","","","49","510.8711431702997","369.03"
"","","","","","html-keyboard-response","261","1986530","0.0-20.0-0.1","65b929230cff388d15dd5c4c","6790928bebf0b969fc839b02","6792bc7bd8cdd9caa5103fc3","passed","","","","","","","","","","","","","","","","","ballFalling","604.4000000000001","650.0211431702996","404.58000000000004","11","fallScene","false","","","","","50","",""
"","","","","","html-keyboard-response","262","1989533","0.0-20.0-1.1","65b929230cff388d15dd5c4c","6790928bebf0b969fc839b02","6792bc7bd8cdd9caa5103fc3","passed","","1057","","","","","","","","","","","","","","f","yesOrNo","","","","11","","","mid","3000","","","50","605.4000000000001","300"
"","","","","","html-keyboard-response","263","1991098","0.0-20.0-0.2","65b929230cff388d15dd5c4c","6790928bebf0b969fc839b02","6792bc7bd8cdd9caa5103fc3","passed","","","","","","","","","","","","","","","","","ballFalling","322.3","296.07114317029976","371.46","3","fallScene","true","","","","","51","",""
"","","","","","html-keyboard-response","264","1994100","0.0-20.0-1.2","65b929230cff388d15dd5c4c","6790928bebf0b969fc839b02","6792bc7bd8cdd9caa5103fc3","passed","","1056","","","","","","","","","","","","","","f","yesOrNo","","","","3","","","mid","3000","","","51","321.3","300"
"","","","","","html-keyboard-response","265","1995664","0.0-20.0-0.3","65b929230cff388d15dd5c4c","6790928bebf0b969fc839b02","6792bc7bd8cdd9caa5103fc3","passed","","","","","","","","","","","","","","","","","ballFalling","322.3","356.42114317029973","357.87","4","fallScene","false","","","","","52","",""
"","","","","","html-keyboard-response","266","1998666","0.0-20.0-1.3","65b929230cff388d15dd5c4c","6790928bebf0b969fc839b02","6792bc7bd8cdd9caa5103fc3","passed","","1227","","","","","","","","","","","","","","f","yesOrNo","","","","4","","","lp","3000","","","52","323.3","297.4070551689986"
"","","","","","html-keyboard-response","267","2000230","0.0-20.0-0.4","65b929230cff388d15dd5c4c","6790928bebf0b969fc839b02","6792bc7bd8cdd9caa5103fc3","passed","","","","","","","","","","","","","","","","","ballFalling","500","453.67114317029973","210.33","5","fallScene","true","","","","","53","",""
"","","","","","html-keyboard-response","268","2003233","0.0-20.0-1.4","65b929230cff388d15dd5c4c","6790928bebf0b969fc839b02","6792bc7bd8cdd9caa5103fc3","passed","","811","","","","","","","","","","","","","","j","yesOrNo","","","","5","","","gt","3000","","","53","453.6711431702998","210.33"
"","","","","","html-keyboard-response","269","2004797","0.0-20.0-0.5","65b929230cff388d15dd5c4c","6790928bebf0b969fc839b02","6792bc7bd8cdd9caa5103fc3","passed","","","","","","","","","","","","","","","","","ballFalling","322.3","356.42114317029973","357.87","4","fallScene","false","","","","","54","",""
"","","","","","html-keyboard-response","270","2007799","0.0-20.0-1.5","65b929230cff388d15dd5c4c","6790928bebf0b969fc839b02","6792bc7bd8cdd9caa5103fc3","passed","","1059","","","","","","","","","","","","","","f","yesOrNo","","","","4","","","lp","3000","","","54","323.3","297.4070551689986"
"","","","","","html-keyboard-response","271","2009298","0.0-20.0-0.6","65b929230cff388d15dd5c4c","6790928bebf0b969fc839b02","6792bc7bd8cdd9caa5103fc3","passed","","","","","","","","","","","","","","","","","ballFalling","604.4000000000001","667.6211431702998","201.78","9","fallScene","false","","","","","55","",""
"","","","","","html-keyboard-response","272","2012300","0.0-20.0-1.6","65b929230cff388d15dd5c4c","6790928bebf0b969fc839b02","6792bc7bd8cdd9caa5103fc3","passed","","1940","","","","","","","","","","","","","","f","yesOrNo","","","","9","","","mid","3000","","","55","605.4000000000001","300"
"","","","","","html-keyboard-response","273","2013864","0.0-20.0-0.7","65b929230cff388d15dd5c4c","6790928bebf0b969fc839b02","6792bc7bd8cdd9caa5103fc3","passed","","","","","","","","","","","","","","","","","ballFalling","500","453.67114317029973","210.33","5","fallScene","false","","","","","56","",""
"","","","","","html-keyboard-response","274","2016866","0.0-20.0-1.7","65b929230cff388d15dd5c4c","6790928bebf0b969fc839b02","6792bc7bd8cdd9caa5103fc3","passed","","1041","","","","","","","","","","","","","","f","yesOrNo","","","","5","","","lp","3000","","","56","499","151"
"","","","","","html-keyboard-response","275","2018432","0.0-20.0-0.8","65b929230cff388d15dd5c4c","6790928bebf0b969fc839b02","6792bc7bd8cdd9caa5103fc3","passed","","","","","","","","","","","","","","","","","ballFalling","604.4000000000001","575.4211431702997","266.76","12","fallScene","true","","","","","57","",""
"","","","","","html-keyboard-response","276","2021434","0.0-20.0-1.8","65b929230cff388d15dd5c4c","6790928bebf0b969fc839b02","6792bc7bd8cdd9caa5103fc3","passed","","1040","","","","","","","","","","","","","","j","yesOrNo","","","","12","","","mid","3000","","","57","536.4288568297004","300"
"","","","","","html-keyboard-response","277","2022998","0.0-20.0-0.9","65b929230cff388d15dd5c4c","6790928bebf0b969fc839b02","6792bc7bd8cdd9caa5103fc3","passed","","","","","","","","","","","","","","","","","ballFalling","604.4000000000001","650.0211431702996","404.58000000000004","11","fallScene","false","","","","","58","",""
