"success","timeout","failed_images","failed_audio","failed_video","trial_type","trial_index","time_elapsed","internal_node_id","subject_id","study_id","session_id","practiceTestResult","view_history","rt","width","height","webaudio","browser","browser_version","mobile","os","fullscreen","vsync_rate","webcam","microphone","url","stimulus","response","task","ball_X","obstacle_groundTruth_x","obstacle_groundTruth_y","stimulus_idx","trial_name","flipped","choice","timeLimit","question_order","comprehensionCheck","currentTrial","obstacle_choice_x","obstacle_choice_y"
"true","false","[]","[]","[]","preload","0","159","0.0-0.0","662692c1abc4830626fccb23","6790928bebf0b969fc839b02","67982724adfe1ea64ac8b315","passed","","","","","","","","","","","","","","","","","","","","","","","","","","","","","",""
"","","","","","instructions","1","28151","0.0-1.0","662692c1abc4830626fccb23","6790928bebf0b969fc839b02","67982724adfe1ea64ac8b315","passed","[{""page_index"":0,""viewing_time"":27992}]","27993","","","","","","","","","","","","","","","","","","","","","","","","","","","",""
"","","","","","browser-check","2","29146","0.0-2.0","662692c1abc4830626fccb23","6790928bebf0b969fc839b02","67982724adfe1ea64ac8b315","passed","","","1439","644","true","chrome","128.0.0","false","Mac OS","true","60.81","true","true","","","","","","","","","","","","","","","","",""
"","","","","","external-html","3","31629","0.0-3.0","662692c1abc4830626fccb23","6790928bebf0b969fc839b02","67982724adfe1ea64ac8b315","passed","","2417","","","","","","","","","","","","consent.html","","","","","","","","","","","","","","","",""
"true","","","","","fullscreen","4","35022","0.0-4.0","662692c1abc4830626fccb23","6790928bebf0b969fc839b02","67982724adfe1ea64ac8b315","passed","","3090","","","","","","","","","","","","","","","","","","","","","","","","","","","",""
"","","","","","browser-check","5","36017","0.0-5.0","662692c1abc4830626fccb23","6790928bebf0b969fc839b02","67982724adfe1ea64ac8b315","passed","","","1440","900","true","chrome","128.0.0","false","Mac OS","true","60.44","true","true","","","","","","","","","","","","","","","","",""
"","","","","","html-keyboard-response","6","38894","0.0-6.0","662692c1abc4830626fccb23","6790928bebf0b969fc839b02","67982724adfe1ea64ac8b315","passed","","2876","","","","","","","","","","","","","<p><b>This experiment requires keyboard input.</b></p> 
        <p><b>To ensure your response will be recorded successfully, please press 'Space' to continue.</b></p>
        <p>If you can't proceed, you won't be able to complete this study.</p>
        <p></p> <!-- Blank line -->
        <p id=""blinking-text"" style=""font-weight; animation: blink 2s infinite;"">Press Space to continue</p>
        <style>
            @keyframes blink {
                50% {
                    opacity: 0;
                }
            }
        </style>"," ","","","","","","","","","","","","","",""
"","","","","","html-keyboard-response","7","41778","0.0-7.0","662692c1abc4830626fccb23","6790928bebf0b969fc839b02","67982724adfe1ea64ac8b315","passed","","2879","","","","","","","","","","","","","<p><b>This experiment requires keyboard input.</b></p> 
        <p><b>To ensure your response will be recorded successfully, please press the 'f' key to continue.</b></p>
        <p>If you can't proceed, you won't be able to complete this study.</p>
        <p></p> <!-- Blank line -->
        <p id=""blinking-text"" style=""font-weight; animation: blink 2s infinite;"">Press f to continue</p>
        <style>
            @keyframes blink {
                50% {
                    opacity: 0;
                }
            }
        </style>","f","","","","","","","","","","","","","",""
"","","","","","html-keyboard-response","8","43252","0.0-8.0","662692c1abc4830626fccb23","6790928bebf0b969fc839b02","67982724adfe1ea64ac8b315","passed","","1467","","","","","","","","","","","","","<p><b>This experiment requires keyboard input.</b></p> 
        <p><b>To ensure your response will be recorded successfully, please press the 'j' key to continue.</b></p>
        <p>If you can't proceed, you won't be able to complete this study.</p>
        <p></p> <!-- Blank line -->
        <p id=""blinking-text"" style=""font-weight; animation: blink 2s infinite;"">Press j to continue</p>
        <style>
            @keyframes blink {
                50% {
                    opacity: 0;
                }
            }
        </style>","j","","","","","","","","","","","","","",""
"","","","","","browser-check","9","44257","0.0-9.0","662692c1abc4830626fccb23","6790928bebf0b969fc839b02","67982724adfe1ea64ac8b315","passed","","","1440","900","true","chrome","128.0.0","false","Mac OS","true","60.09","true","true","","","","","","","","","","","","","","","","",""
"","","","","","survey-text","10","47555","0.0-10.0","662692c1abc4830626fccb23","6790928bebf0b969fc839b02","67982724adfe1ea64ac8b315","passed","","3293","","","","","","","","","","","","","","{""prolificID"":""662692c1abc4830626fccb23""}","","","","","","","","","","","","","",""
"","","","","","instructions","11","123594","0.0-11.0-0.0-0.0","662692c1abc4830626fccb23","6790928bebf0b969fc839b02","67982724adfe1ea64ac8b315","passed","[{""page_index"":0,""viewing_time"":27602},{""page_index"":1,""viewing_time"":31001},{""page_index"":2,""viewing_time"":9373},{""page_index"":3,""viewing_time"":8064}]","76041","","","","","","","","","","","","","","","","","","","","","","","","","","","",""
"","","","","","html-keyboard-response","12","142487","0.0-11.0-0.0-1.0","662692c1abc4830626fccb23","6790928bebf0b969fc839b02","67982724adfe1ea64ac8b315","passed","","18390","","","","","","","","","","","","","<br>Remember! After a ball falls, the screen will disappear, and you'll decide if the proposed position is where the hidden triangle was. <br>You will now practice this by watching a few videos and making decisions.<p>To respond:<br style=""margin-bottom: 5px; text-indent: -20px; padding-left: 20px;"">- Press <b style=""color: #12AD2B;"">J for Yes</b>, if you think the triangle is in the correct position.<br style=""margin-top: 0; text-indent: -20px; padding-left: 20px;"">- Press <b style=""color: orange;"">F for No</b>, if you think the triangle is not in the correct position.</p><p>In this practice round, there is no time limit. Focus on getting comfortable with the task first.<br>Press either J or F to begin your practice trials.</p><img src = ""YesOrNo_instruction.png"" style=""width: 65%;""></img>","f","","","","","","","","","","","","","",""
"","","","","","html-keyboard-response","13","144071","0.0-11.0-0.0-2.0-0.0","662692c1abc4830626fccb23","6790928bebf0b969fc839b02","67982724adfe1ea64ac8b315","passed","","","","","","","","","","","","","","","","","ballFalling_prac","441","414","302","5","fallScene","true","","","","","","",""
"","","","","","html-keyboard-response","14","145960","0.0-11.0-0.0-2.0-1.0","662692c1abc4830626fccb23","6790928bebf0b969fc839b02","67982724adfe1ea64ac8b315","passed","","1881","","","","","","","","","","","","","","j","yesOrNo_prac_noTimed","","","","5","","","close gt","NA","","","","",""
"","","","","","html-keyboard-response","15","147519","0.0-11.0-0.0-2.0-0.1","662692c1abc4830626fccb23","6790928bebf0b969fc839b02","67982724adfe1ea64ac8b315","passed","","","","","","","","","","","","","","","","","ballFalling_prac","416","464","296","1","fallScene","false","","","","","","",""
"","","","","","html-keyboard-response","16","149440","0.0-11.0-0.0-2.0-1.1","662692c1abc4830626fccb23","6790928bebf0b969fc839b02","67982724adfe1ea64ac8b315","passed","","1918","","","","","","","","","","","","","","f","yesOrNo_prac_noTimed","","","","1","","","gt","NA","","","","",""
"","","","","","html-keyboard-response","17","151546","0.0-11.0-0.0-2.0-0.2","662692c1abc4830626fccb23","6790928bebf0b969fc839b02","67982724adfe1ea64ac8b315","passed","","","","","","","","","","","","","","","","","ballFalling_prac","660","666","350","3","fallScene","false","","","","","","",""
"","","","","","html-keyboard-response","18","153408","0.0-11.0-0.0-2.0-1.2","662692c1abc4830626fccb23","6790928bebf0b969fc839b02","67982724adfe1ea64ac8b315","passed","","1858","","","","","","","","","","","","","","f","yesOrNo_prac_noTimed","","","","3","","","wrong direction","NA","","","","",""
"","","","","","instructions","19","195027","0.0-11.0-0.0-3.0","662692c1abc4830626fccb23","6790928bebf0b969fc839b02","67982724adfe1ea64ac8b315","passed","[{""page_index"":0,""viewing_time"":24768},{""page_index"":1,""viewing_time"":16851}]","41620","","","","","","","","","","","","","","","","","","","","","","","","","","","",""
"","","","","","html-button-response","20","204119","0.0-11.0-0.0-4.0","662692c1abc4830626fccb23","6790928bebf0b969fc839b02","67982724adfe1ea64ac8b315","passed","","8590","","","","","","","","","","","","","<p>To make sure you understood the task, we just have a <b>brief quiz</b> here.</p><p>If you need to review the instructions, click 'Previous'.</p><p>It's important to understand the task to do the study, so you have to pass the quiz to move to the study.</p>","1","","","","","","","","","","","","","",""
"","","","","","survey-multi-choice","21","219405","0.0-11.0-1.0-0.0","662692c1abc4830626fccb23","6790928bebf0b969fc839b02","67982724adfe1ea64ac8b315","passed","","15282","","","","","","","","","","","","","","{""generalProcedure"":""Watch a video of a ball falling, some of it behind a gray screen. After each video, decide if the triangle is at the spot where the ball hit the triangle behind the screen. There is time limit for the response.""}","","","","","","","","","","[0]","","","",""
"","","","","","survey-multi-choice","22","223648","0.0-11.0-1.0-1.0","662692c1abc4830626fccb23","6790928bebf0b969fc839b02","67982724adfe1ea64ac8b315","passed","","4239","","","","","","","","","","","","","","{""checkBallHitObstacle"":""No.""}","","","","","","","","","","[0]","","","",""
"","","","","","survey-multi-choice","23","227676","0.0-11.0-1.0-2.0","662692c1abc4830626fccb23","6790928bebf0b969fc839b02","67982724adfe1ea64ac8b315","passed","","4020","","","","","","","","","","","","","","{""checkTriangleVisibility"":""No, the triangle is hidden behind the gray screen.""}","","","","","","","","","","[0]","","","",""
"","","","","","survey-multi-choice","24","249159","0.0-11.0-1.0-3.0","662692c1abc4830626fccb23","6790928bebf0b969fc839b02","67982724adfe1ea64ac8b315","passed","","21477","","","","","","","","","","","","","","{""checkTimedResponse"":""Your response will not be recorded, and the trial will move to the next one.""}","","","","","","","","","","[0]","","","",""
"","","","","","survey-multi-choice","25","279758","0.0-11.0-1.0-4.0","662692c1abc4830626fccb23","6790928bebf0b969fc839b02","67982724adfe1ea64ac8b315","passed","","30593","","","","","","","","","","","","","","{""checkTimeBlockNotice"":""At the beginning of each block.""}","","","","","","","","","","[0]","","","",""
"","","","","","survey-multi-choice","26","286059","0.0-11.0-1.0-5.0","662692c1abc4830626fccb23","6790928bebf0b969fc839b02","67982724adfe1ea64ac8b315","passed","","6298","","","","","","","","","","","","","","{""checkTimeBlockSameness"":""Yes, the time limit is the same for all trials within a block.""}","","","","","","","","","","[0]","","","",""
"","","","","","survey-multi-choice","27","309583","0.0-11.0-1.0-6.0","662692c1abc4830626fccb23","6790928bebf0b969fc839b02","67982724adfe1ea64ac8b315","passed","","23518","","","","","","","","","","","","","","{""checkTrianglePrecision"":""No. The proposed purple triangle is not in the correct position because it doesn't match the location of the white triangle exactly.""}","","","","","","","","","","[0]","","","",""
"","","","","","html-button-response","28","312051","0.0-11.0-2.0-0.0","662692c1abc4830626fccb23","6790928bebf0b969fc839b02","67982724adfe1ea64ac8b315","passed","","2458","","","","","","","","","","","","","<p>Oops! You did not pass the quiz.</p><p>You will now repeat the instructions and practice.</p>","0","","","","","","","","","","","failed","","",""
"","","","","","instructions","29","321575","0.0-11.1-0.1-0.1","662692c1abc4830626fccb23","6790928bebf0b969fc839b02","67982724adfe1ea64ac8b315","passed","[{""page_index"":0,""viewing_time"":4313},{""page_index"":1,""viewing_time"":960},{""page_index"":2,""viewing_time"":2828},{""page_index"":3,""viewing_time"":1422}]","9522","","","","","","","","","","","","","","","","","","","","","","","","","","","",""
"","","","","","html-keyboard-response","30","379487","0.0-11.1-0.1-1.1","662692c1abc4830626fccb23","6790928bebf0b969fc839b02","67982724adfe1ea64ac8b315","passed","","57411","","","","","","","","","","","","","<br>Remember! After a ball falls, the screen will disappear, and you'll decide if the proposed position is where the hidden triangle was. <br>You will now practice this by watching a few videos and making decisions.<p>To respond:<br style=""margin-bottom: 5px; text-indent: -20px; padding-left: 20px;"">- Press <b style=""color: #12AD2B;"">J for Yes</b>, if you think the triangle is in the correct position.<br style=""margin-top: 0; text-indent: -20px; padding-left: 20px;"">- Press <b style=""color: orange;"">F for No</b>, if you think the triangle is not in the correct position.</p><p>In this practice round, there is no time limit. Focus on getting comfortable with the task first.<br>Press either J or F to begin your practice trials.</p><img src = ""YesOrNo_instruction.png"" style=""width: 65%;""></img>","f","","","","","","","","","","","","","",""
"","","","","","html-keyboard-response","31","381583","0.0-11.1-0.1-2.1-0.3","662692c1abc4830626fccb23","6790928bebf0b969fc839b02","67982724adfe1ea64ac8b315","passed","","","","","","","","","","","","","","","","","ballFalling_prac","660","666","350","3","fallScene","false","","","","","","",""
"","","","","","html-keyboard-response","32","383511","0.0-11.1-0.1-2.1-1.3","662692c1abc4830626fccb23","6790928bebf0b969fc839b02","67982724adfe1ea64ac8b315","passed","","1923","","","","","","","","","","","","","","f","yesOrNo_prac_noTimed","","","","3","","","wrong direction","NA","","","","",""
"","","","","","html-keyboard-response","33","385058","0.0-11.1-0.1-2.1-0.4","662692c1abc4830626fccb23","6790928bebf0b969fc839b02","67982724adfe1ea64ac8b315","passed","","","","","","","","","","","","","","","","","ballFalling_prac","416","464","296","1","fallScene","false","","","","","","",""
"","","","","","html-keyboard-response","34","388446","0.0-11.1-0.1-2.1-1.4","662692c1abc4830626fccb23","6790928bebf0b969fc839b02","67982724adfe1ea64ac8b315","passed","","3385","","","","","","","","","","","","","","j","yesOrNo_prac_noTimed","","","","1","","","gt","NA","","","","",""
"","","","","","html-keyboard-response","35","390019","0.0-11.1-0.1-2.1-0.5","662692c1abc4830626fccb23","6790928bebf0b969fc839b02","67982724adfe1ea64ac8b315","passed","","","","","","","","","","","","","","","","","ballFalling_prac","441","414","302","5","fallScene","true","","","","","","",""
"","","","","","html-keyboard-response","36","391324","0.0-11.1-0.1-2.1-1.5","662692c1abc4830626fccb23","6790928bebf0b969fc839b02","67982724adfe1ea64ac8b315","passed","","1302","","","","","","","","","","","","","","j","yesOrNo_prac_noTimed","","","","5","","","close gt","NA","","","","",""
"","","","","","instructions","37","440603","0.0-11.1-0.1-3.1","662692c1abc4830626fccb23","6790928bebf0b969fc839b02","67982724adfe1ea64ac8b315","passed","[{""page_index"":0,""viewing_time"":15087},{""page_index"":1,""viewing_time"":34192}]","49279","","","","","","","","","","","","","","","","","","","","","","","","","","","",""
"","","","","","html-button-response","38","442645","0.0-11.1-0.1-4.1","662692c1abc4830626fccb23","6790928bebf0b969fc839b02","67982724adfe1ea64ac8b315","passed","","1539","","","","","","","","","","","","","<p>To make sure you understood the task, we just have a <b>brief quiz</b> here.</p><p>If you need to review the instructions, click 'Previous'.</p><p>It's important to understand the task to do the study, so you have to pass the quiz to move to the study.</p>","1","","","","","","","","","","","","","",""
"","","","","","survey-multi-choice","39","448319","0.0-11.1-1.1-0.1","662692c1abc4830626fccb23","6790928bebf0b969fc839b02","67982724adfe1ea64ac8b315","passed","","5670","","","","","","","","","","","","","","{""generalProcedure"":""Watch a video of a ball falling, some of it behind a gray screen. After each video, decide if the triangle is at the spot where the ball hit the triangle behind the screen. There is time limit for the response.""}","","","","","","","","","","[0]","","","",""
"","","","","","survey-multi-choice","40","456834","0.0-11.1-1.1-1.1","662692c1abc4830626fccb23","6790928bebf0b969fc839b02","67982724adfe1ea64ac8b315","passed","","8508","","","","","","","","","","","","","","{""checkBallHitObstacle"":""No.""}","","","","","","","","","","[0]","","","",""
"","","","","","survey-multi-choice","41","471764","0.0-11.1-1.1-2.1","662692c1abc4830626fccb23","6790928bebf0b969fc839b02","67982724adfe1ea64ac8b315","passed","","14924","","","","","","","","","","","","","","{""checkTriangleVisibility"":""No, the triangle is hidden behind the gray screen.""}","","","","","","","","","","[0]","","","",""
"","","","","","survey-multi-choice","42","477625","0.0-11.1-1.1-3.1","662692c1abc4830626fccb23","6790928bebf0b969fc839b02","67982724adfe1ea64ac8b315","passed","","5855","","","","","","","","","","","","","","{""checkTimedResponse"":""Your response will not be recorded, and the trial will move to the next one.""}","","","","","","","","","","[0]","","","",""
"","","","","","survey-multi-choice","43","487542","0.0-11.1-1.1-4.1","662692c1abc4830626fccb23","6790928bebf0b969fc839b02","67982724adfe1ea64ac8b315","passed","","9910","","","","","","","","","","","","","","{""checkTimeBlockNotice"":""At the beginning of each block.""}","","","","","","","","","","[0]","","","",""
"","","","","","survey-multi-choice","44","498608","0.0-11.1-1.1-5.1","662692c1abc4830626fccb23","6790928bebf0b969fc839b02","67982724adfe1ea64ac8b315","passed","","11059","","","","","","","","","","","","","","{""checkTimeBlockSameness"":""Yes, the time limit is the same for all trials within a block.""}","","","","","","","","","","[0]","","","",""
"","","","","","survey-multi-choice","45","506628","0.0-11.1-1.1-6.1","662692c1abc4830626fccb23","6790928bebf0b969fc839b02","67982724adfe1ea64ac8b315","passed","","8013","","","","","","","","","","","","","","{""checkTrianglePrecision"":""No. The proposed purple triangle is not in the correct position because it doesn't match the location of the white triangle exactly.""}","","","","","","","","","","[0]","","","",""
"","","","","","html-button-response","46","509556","0.0-11.1-2.1-0.1","662692c1abc4830626fccb23","6790928bebf0b969fc839b02","67982724adfe1ea64ac8b315","passed","","2919","","","","","","","","","","","","","<p>Oops! You did not pass the quiz.</p><p>You will now repeat the instructions and practice.</p>","0","","","","","","","","","","","failed","","",""
"","","","","","instructions","47","520237","0.0-11.2-0.2-0.2","662692c1abc4830626fccb23","6790928bebf0b969fc839b02","67982724adfe1ea64ac8b315","passed","[{""page_index"":0,""viewing_time"":7742},{""page_index"":1,""viewing_time"":631},{""page_index"":2,""viewing_time"":994},{""page_index"":3,""viewing_time"":1313}]","10680","","","","","","","","","","","","","","","","","","","","","","","","","","","",""
"","","","","","html-keyboard-response","48","522471","0.0-11.2-0.2-1.2","662692c1abc4830626fccb23","6790928bebf0b969fc839b02","67982724adfe1ea64ac8b315","passed","","1731","","","","","","","","","","","","","<br>Remember! After a ball falls, the screen will disappear, and you'll decide if the proposed position is where the hidden triangle was. <br>You will now practice this by watching a few videos and making decisions.<p>To respond:<br style=""margin-bottom: 5px; text-indent: -20px; padding-left: 20px;"">- Press <b style=""color: #12AD2B;"">J for Yes</b>, if you think the triangle is in the correct position.<br style=""margin-top: 0; text-indent: -20px; padding-left: 20px;"">- Press <b style=""color: orange;"">F for No</b>, if you think the triangle is not in the correct position.</p><p>In this practice round, there is no time limit. Focus on getting comfortable with the task first.<br>Press either J or F to begin your practice trials.</p><img src = ""YesOrNo_instruction.png"" style=""width: 65%;""></img>","f","","","","","","","","","","","","","",""
"","","","","","html-keyboard-response","49","524019","0.0-11.2-0.2-2.2-0.6","662692c1abc4830626fccb23","6790928bebf0b969fc839b02","67982724adfe1ea64ac8b315","passed","","","","","","","","","","","","","","","","","ballFalling_prac","416","464","296","1","fallScene","false","","","","","","",""
"","","","","","html-keyboard-response","50","525808","0.0-11.2-0.2-2.2-1.6","662692c1abc4830626fccb23","6790928bebf0b969fc839b02","67982724adfe1ea64ac8b315","passed","","1786","","","","","","","","","","","","","","f","yesOrNo_prac_noTimed","","","","1","","","gt","NA","","","","",""
"","","","","","html-keyboard-response","51","527385","0.0-11.2-0.2-2.2-0.7","662692c1abc4830626fccb23","6790928bebf0b969fc839b02","67982724adfe1ea64ac8b315","passed","","","","","","","","","","","","","","","","","ballFalling_prac","441","414","302","5","fallScene","true","","","","","","",""
"","","","","","html-keyboard-response","52","527879","0.0-11.2-0.2-2.2-1.7","662692c1abc4830626fccb23","6790928bebf0b969fc839b02","67982724adfe1ea64ac8b315","passed","","490","","","","","","","","","","","","","","j","yesOrNo_prac_noTimed","","","","5","","","close gt","NA","","","","",""
"","","","","","html-keyboard-response","53","529996","0.0-11.2-0.2-2.2-0.8","662692c1abc4830626fccb23","6790928bebf0b969fc839b02","67982724adfe1ea64ac8b315","passed","","","","","","","","","","","","","","","","","ballFalling_prac","660","666","350","3","fallScene","false","","","","","","",""
"","","","","","html-keyboard-response","54","531809","0.0-11.2-0.2-2.2-1.8","662692c1abc4830626fccb23","6790928bebf0b969fc839b02","67982724adfe1ea64ac8b315","passed","","1809","","","","","","","","","","","","","","f","yesOrNo_prac_noTimed","","","","3","","","wrong direction","NA","","","","",""
"","","","","","instructions","55","535462","0.0-11.2-0.2-3.2","662692c1abc4830626fccb23","6790928bebf0b969fc839b02","67982724adfe1ea64ac8b315","passed","[{""page_index"":0,""viewing_time"":2405},{""page_index"":1,""viewing_time"":1246}]","3652","","","","","","","","","","","","","","","","","","","","","","","","","","","",""
"","","","","","html-button-response","56","539104","0.0-11.2-0.2-4.2","662692c1abc4830626fccb23","6790928bebf0b969fc839b02","67982724adfe1ea64ac8b315","passed","","3139","","","","","","","","","","","","","<p>To make sure you understood the task, we just have a <b>brief quiz</b> here.</p><p>If you need to review the instructions, click 'Previous'.</p><p>It's important to understand the task to do the study, so you have to pass the quiz to move to the study.</p>","1","","","","","","","","","","","","","",""
"","","","","","survey-multi-choice","57","543541","0.0-11.2-1.2-0.2","662692c1abc4830626fccb23","6790928bebf0b969fc839b02","67982724adfe1ea64ac8b315","passed","","4433","","","","","","","","","","","","","","{""generalProcedure"":""Watch a video of a ball falling, some of it behind a gray screen. After each video, decide if the triangle is at the spot where the ball hit the triangle behind the screen. There is time limit for the response.""}","","","","","","","","","","[0]","","","",""
"","","","","","survey-multi-choice","58","562242","0.0-11.2-1.2-1.2","662692c1abc4830626fccb23","6790928bebf0b969fc839b02","67982724adfe1ea64ac8b315","passed","","18694","","","","","","","","","","","","","","{""checkBallHitObstacle"":""No.""}","","","","","","","","","","[0]","","","",""
"","","","","","survey-multi-choice","59","567501","0.0-11.2-1.2-2.2","662692c1abc4830626fccb23","6790928bebf0b969fc839b02","67982724adfe1ea64ac8b315","passed","","5252","","","","","","","","","","","","","","{""checkTriangleVisibility"":""Yes, you can see everything in the video.""}","","","","","","","","","","[0]","","","",""
"","","","","","survey-multi-choice","60","573253","0.0-11.2-1.2-3.2","662692c1abc4830626fccb23","6790928bebf0b969fc839b02","67982724adfe1ea64ac8b315","passed","","5745","","","","","","","","","","","","","","{""checkTimedResponse"":""Your response will not be recorded, and the trial will move to the next one.""}","","","","","","","","","","[0]","","","",""
"","","","","","survey-multi-choice","61","576140","0.0-11.2-1.2-4.2","662692c1abc4830626fccb23","6790928bebf0b969fc839b02","67982724adfe1ea64ac8b315","passed","","2880","","","","","","","","","","","","","","{""checkTimeBlockNotice"":""At the beginning of each block.""}","","","","","","","","","","[0]","","","",""
"","","","","","survey-multi-choice","62","578792","0.0-11.2-1.2-5.2","662692c1abc4830626fccb23","6790928bebf0b969fc839b02","67982724adfe1ea64ac8b315","passed","","2645","","","","","","","","","","","","","","{""checkTimeBlockSameness"":""Yes, the time limit is the same for all trials within a block.""}","","","","","","","","","","[0]","","","",""
"","","","","","survey-multi-choice","63","587148","0.0-11.2-1.2-6.2","662692c1abc4830626fccb23","6790928bebf0b969fc839b02","67982724adfe1ea64ac8b315","passed","","8353","","","","","","","","","","","","","","{""checkTrianglePrecision"":""No. The proposed purple triangle is not in the correct position because it doesn't match the location of the white triangle exactly.""}","","","","","","","","","","[0]","","","",""
"","","","","","html-button-response","64","588351","0.0-11.2-2.2-0.2","662692c1abc4830626fccb23","6790928bebf0b969fc839b02","67982724adfe1ea64ac8b315","passed","","1195","","","","","","","","","","","","","<p>Oops! You did not pass the quiz.</p><p>You will now repeat the instructions and practice.</p>","0","","","","","","","","","","","failed","","",""
"","","","","","instructions","65","592645","0.0-11.3-0.3-0.3","662692c1abc4830626fccb23","6790928bebf0b969fc839b02","67982724adfe1ea64ac8b315","passed","[{""page_index"":0,""viewing_time"":1556},{""page_index"":1,""viewing_time"":831},{""page_index"":2,""viewing_time"":1332},{""page_index"":3,""viewing_time"":575}]","4293","","","","","","","","","","","","","","","","","","","","","","","","","","","",""
"","","","","","html-keyboard-response","66","599826","0.0-11.3-0.3-1.3","662692c1abc4830626fccb23","6790928bebf0b969fc839b02","67982724adfe1ea64ac8b315","passed","","6675","","","","","","","","","","","","","<br>Remember! After a ball falls, the screen will disappear, and you'll decide if the proposed position is where the hidden triangle was. <br>You will now practice this by watching a few videos and making decisions.<p>To respond:<br style=""margin-bottom: 5px; text-indent: -20px; padding-left: 20px;"">- Press <b style=""color: #12AD2B;"">J for Yes</b>, if you think the triangle is in the correct position.<br style=""margin-top: 0; text-indent: -20px; padding-left: 20px;"">- Press <b style=""color: orange;"">F for No</b>, if you think the triangle is not in the correct position.</p><p>In this practice round, there is no time limit. Focus on getting comfortable with the task first.<br>Press either J or F to begin your practice trials.</p><img src = ""YesOrNo_instruction.png"" style=""width: 65%;""></img>","f","","","","","","","","","","","","","",""
"","","","","","html-keyboard-response","67","601365","0.0-11.3-0.3-2.3-0.9","662692c1abc4830626fccb23","6790928bebf0b969fc839b02","67982724adfe1ea64ac8b315","passed","","","","","","","","","","","","","","","","","ballFalling_prac","416","464","296","1","fallScene","false","","","","","","",""
"","","","","","html-keyboard-response","68","602605","0.0-11.3-0.3-2.3-1.9","662692c1abc4830626fccb23","6790928bebf0b969fc839b02","67982724adfe1ea64ac8b315","passed","","1235","","","","","","","","","","","","","","f","yesOrNo_prac_noTimed","","","","1","","","gt","NA","","","","",""
"","","","","","html-keyboard-response","69","604182","0.0-11.3-0.3-2.3-0.10","662692c1abc4830626fccb23","6790928bebf0b969fc839b02","67982724adfe1ea64ac8b315","passed","","","","","","","","","","","","","","","","","ballFalling_prac","441","414","302","5","fallScene","true","","","","","","",""
"","","","","","html-keyboard-response","70","605547","0.0-11.3-0.3-2.3-1.10","662692c1abc4830626fccb23","6790928bebf0b969fc839b02","67982724adfe1ea64ac8b315","passed","","1361","","","","","","","","","","","","","","j","yesOrNo_prac_noTimed","","","","5","","","close gt","NA","","","","",""
"","","","","","html-keyboard-response","71","607660","0.0-11.3-0.3-2.3-0.11","662692c1abc4830626fccb23","6790928bebf0b969fc839b02","67982724adfe1ea64ac8b315","passed","","","","","","","","","","","","","","","","","ballFalling_prac","660","666","350","3","fallScene","false","","","","","","",""
"","","","","","html-keyboard-response","72","609263","0.0-11.3-0.3-2.3-1.11","662692c1abc4830626fccb23","6790928bebf0b969fc839b02","67982724adfe1ea64ac8b315","passed","","1600","","","","","","","","","","","","","","f","yesOrNo_prac_noTimed","","","","3","","","wrong direction","NA","","","","",""
"","","","","","instructions","73","636775","0.0-11.3-0.3-3.3","662692c1abc4830626fccb23","6790928bebf0b969fc839b02","67982724adfe1ea64ac8b315","passed","[{""page_index"":0,""viewing_time"":23600},{""page_index"":1,""viewing_time"":3912}]","27512","","","","","","","","","","","","","","","","","","","","","","","","","","","",""
"","","","","","html-button-response","74","640380","0.0-11.3-0.3-4.3","662692c1abc4830626fccb23","6790928bebf0b969fc839b02","67982724adfe1ea64ac8b315","passed","","3103","","","","","","","","","","","","","<p>To make sure you understood the task, we just have a <b>brief quiz</b> here.</p><p>If you need to review the instructions, click 'Previous'.</p><p>It's important to understand the task to do the study, so you have to pass the quiz to move to the study.</p>","1","","","","","","","","","","","","","",""
"","","","","","survey-multi-choice","75","646674","0.0-11.3-1.3-0.3","662692c1abc4830626fccb23","6790928bebf0b969fc839b02","67982724adfe1ea64ac8b315","passed","","6292","","","","","","","","","","","","","","{""generalProcedure"":""Watch a video of a ball falling, some of it behind a gray screen. After each video, decide if the triangle is at the spot where the ball hit the triangle behind the screen. There is time limit for the response.""}","","","","","","","","","","[0]","","","",""
"","","","","","survey-multi-choice","76","658386","0.0-11.3-1.3-1.3","662692c1abc4830626fccb23","6790928bebf0b969fc839b02","67982724adfe1ea64ac8b315","passed","","11706","","","","","","","","","","","","","","{""checkBallHitObstacle"":""Yes.""}","","","","","","","","","","[0]","","","",""
"","","","","","survey-multi-choice","77","661380","0.0-11.3-1.3-2.3","662692c1abc4830626fccb23","6790928bebf0b969fc839b02","67982724adfe1ea64ac8b315","passed","","2987","","","","","","","","","","","","","","{""checkTriangleVisibility"":""No, the triangle is hidden behind the gray screen.""}","","","","","","","","","","[0]","","","",""
"","","","","","survey-multi-choice","78","664661","0.0-11.3-1.3-3.3","662692c1abc4830626fccb23","6790928bebf0b969fc839b02","67982724adfe1ea64ac8b315","passed","","3273","","","","","","","","","","","","","","{""checkTimedResponse"":""Your response will not be recorded, and the trial will move to the next one.""}","","","","","","","","","","[0]","","","",""
"","","","","","survey-multi-choice","79","667991","0.0-11.3-1.3-4.3","662692c1abc4830626fccb23","6790928bebf0b969fc839b02","67982724adfe1ea64ac8b315","passed","","3323","","","","","","","","","","","","","","{""checkTimeBlockNotice"":""At the beginning of each block.""}","","","","","","","","","","[0]","","","",""
"","","","","","survey-multi-choice","80","670706","0.0-11.3-1.3-5.3","662692c1abc4830626fccb23","6790928bebf0b969fc839b02","67982724adfe1ea64ac8b315","passed","","2708","","","","","","","","","","","","","","{""checkTimeBlockSameness"":""Yes, the time limit is the same for all trials within a block.""}","","","","","","","","","","[0]","","","",""
"","","","","","survey-multi-choice","81","674552","0.0-11.3-1.3-6.3","662692c1abc4830626fccb23","6790928bebf0b969fc839b02","67982724adfe1ea64ac8b315","passed","","3839","","","","","","","","","","","","","","{""checkTrianglePrecision"":""No. The proposed purple triangle is not in the correct position because it doesn't match the location of the white triangle exactly.""}","","","","","","","","","","[0]","","","",""
"","","","","","instructions","82","692546","0.0-12.0","662692c1abc4830626fccb23","6790928bebf0b969fc839b02","67982724adfe1ea64ac8b315","passed","[{""page_index"":0,""viewing_time"":5519},{""page_index"":1,""viewing_time"":4060},{""page_index"":2,""viewing_time"":3855},{""page_index"":3,""viewing_time"":4553}]","17987","","","","","","","","","","","","","","","","","","","","","","","","","","","",""
"","","","","","instructions","83","698999","0.0-13.0-0.0","662692c1abc4830626fccb23","6790928bebf0b969fc839b02","67982724adfe1ea64ac8b315","passed","[{""page_index"":0,""viewing_time"":6452}]","6453","","","","","","","","","","","","","","","","","","","","","","","","","","","",""
"","","","","","html-keyboard-response","84","705965","0.0-13.0-1.0","662692c1abc4830626fccb23","6790928bebf0b969fc839b02","67982724adfe1ea64ac8b315","passed","","6965","","","","","","","","","","","","","<p><span style=""font-size:40px;"">Practice BLOCK 1</span></p><p><span style=""font-size:25px;"">You have <b style=""color: #FF644F;""><strong>3 second(s)</strong></b> to respond to the following trials.</span><br></p><p id=""blinking-text"" style=""font-weight; animation: blink 2s infinite;"">Press Space to continue</p><style>
                    @keyframes blink {
                        50% {
                            opacity: 0;
                        }
                    }
                </style>"," ","","","","","","","","","","","","","",""
"","","","","","html-keyboard-response","85","707545","0.0-13.0-2.0-0.0","662692c1abc4830626fccb23","6790928bebf0b969fc839b02","67982724adfe1ea64ac8b315","passed","","","","","","","","","","","","","","","","","ballFalling_prac","660","610","263","4","fallScene","false","","","","","","",""
"","","","","","html-keyboard-response","86","710552","0.0-13.0-2.0-1.0","662692c1abc4830626fccb23","6790928bebf0b969fc839b02","67982724adfe1ea64ac8b315","passed","","697","","","","","","","","","","","","","","j","yesOrNo_prac","","","","4","","","gt","3000","","","","",""
"","","","","","html-keyboard-response","87","712106","0.0-13.0-2.0-0.1","662692c1abc4830626fccb23","6790928bebf0b969fc839b02","67982724adfe1ea64ac8b315","passed","","","","","","","","","","","","","","","","","ballFalling_prac","584","536","296","1","fallScene","true","","","","","","",""
"","","","","","html-keyboard-response","88","715112","0.0-13.0-2.0-1.1","662692c1abc4830626fccb23","6790928bebf0b969fc839b02","67982724adfe1ea64ac8b315","passed","","1019","","","","","","","","","","","","","","f","yesOrNo_prac","","","","1","","","close gt","3000","","","","",""
"","","","","","html-keyboard-response","89","716670","0.0-13.0-2.0-0.2","662692c1abc4830626fccb23","6790928bebf0b969fc839b02","67982724adfe1ea64ac8b315","passed","","","","","","","","","","","","","","","","","ballFalling_prac","416","464","296","1","fallScene","false","","","","","","",""
"","","","","","html-keyboard-response","90","719675","0.0-13.0-2.0-1.2","662692c1abc4830626fccb23","6790928bebf0b969fc839b02","67982724adfe1ea64ac8b315","passed","","1447","","","","","","","","","","","","","","j","yesOrNo_prac","","","","1","","","far gt","3000","","","","",""
"","","","","","html-keyboard-response","91","722820","0.0-13.0-3.0","662692c1abc4830626fccb23","6790928bebf0b969fc839b02","67982724adfe1ea64ac8b315","passed","","3144","","","","","","","","","","","","","<p><span style=""font-size:40px;"">Practice BLOCK 2</span></p><p><span style=""font-size:25px;"">You have <b style=""color: #FF644F;""><strong>1 second(s)</strong></b> to respond to the following trials.</span><br></p><p id=""blinking-text"" style=""font-weight; animation: blink 2s infinite;"">Press Space to continue</p><style>
                    @keyframes blink {
                        50% {
                            opacity: 0;
                        }
                    }
                </style>"," ","","","","","","","","","","","","","",""
"","","","","","html-keyboard-response","92","724933","0.0-13.0-4.0-0.0","662692c1abc4830626fccb23","6790928bebf0b969fc839b02","67982724adfe1ea64ac8b315","passed","","","","","","","","","","","","","","","","","ballFalling_prac","340","334","350","3","fallScene","true","","","","","","",""
"","","","","","html-keyboard-response","93","725939","0.0-13.0-4.0-1.0","662692c1abc4830626fccb23","6790928bebf0b969fc839b02","67982724adfe1ea64ac8b315","passed","","546","","","","","","","","","","","","","","j","yesOrNo_prac","","","","3","","","close gt","1000","","","","",""
"","","","","","html-keyboard-response","94","727520","0.0-13.0-4.0-0.1","662692c1abc4830626fccb23","6790928bebf0b969fc839b02","67982724adfe1ea64ac8b315","passed","","","","","","","","","","","","","","","","","ballFalling_prac","660","610","263","4","fallScene","false","","","","","","",""
"","","","","","html-keyboard-response","95","728526","0.0-13.0-4.0-1.1","662692c1abc4830626fccb23","6790928bebf0b969fc839b02","67982724adfe1ea64ac8b315","passed","","724","","","","","","","","","","","","","","j","yesOrNo_prac","","","","4","","","far gt","1000","","","","",""
"","","","","","html-keyboard-response","96","730087","0.0-13.0-4.0-0.2","662692c1abc4830626fccb23","6790928bebf0b969fc839b02","67982724adfe1ea64ac8b315","passed","","","","","","","","","","","","","","","","","ballFalling_prac","441","500","317","6","fallScene","true","","","","","","",""
"","","","","","html-keyboard-response","97","731091","0.0-13.0-4.0-1.2","662692c1abc4830626fccb23","6790928bebf0b969fc839b02","67982724adfe1ea64ac8b315","passed","","666","","","","","","","","","","","","","","f","yesOrNo_prac","","","","6","","","gt","1000","","","","",""
"","","","","","instructions","98","745483","0.0-13.0-5.0","662692c1abc4830626fccb23","6790928bebf0b969fc839b02","67982724adfe1ea64ac8b315","passed","[{""page_index"":0,""viewing_time"":14391}]","14391","","","","","","","","","","","","","","","","","","","","","","","","","","","",""
"","","","","","html-keyboard-response","99","747582","0.0-13.0-6.0","662692c1abc4830626fccb23","6790928bebf0b969fc839b02","67982724adfe1ea64ac8b315","passed","","2098","","","","","","","","","","","","","<p><span style=""font-size:40px;"">Practice Test BLOCK 1</span></p><p><span style=""font-size:25px;"">You have <b style=""color: #FF644F;""><strong>1 second(s)</strong></b> to respond to the following trials.</span><br></p><p id=""blinking-text"" style=""font-weight; animation: blink 2s infinite;"">Press Space to continue</p><style>
                    @keyframes blink {
                        50% {
                            opacity: 0;
                        }
                    }
                </style>"," ","","","","","","","","","","","","","",""
"","","","","","html-keyboard-response","100","749139","0.0-13.0-7.0-0.0","662692c1abc4830626fccb23","6790928bebf0b969fc839b02","67982724adfe1ea64ac8b315","passed","","","","","","","","","","","","","","","","","ballFalling_prac","441","500","317","6","fallScene","true","","","","","","",""
"","","","","","html-keyboard-response","101","750143","0.0-13.0-7.0-1.0","662692c1abc4830626fccb23","6790928bebf0b969fc839b02","67982724adfe1ea64ac8b315","passed","","855","","","","","","","","","","","","","","f","yesOrNo_prac","","","","6","","","close gt","1000","","","","",""
"","","","","","html-keyboard-response","102","751716","0.0-13.0-7.0-0.1","662692c1abc4830626fccb23","6790928bebf0b969fc839b02","67982724adfe1ea64ac8b315","passed","","","","","","","","","","","","","","","","","ballFalling_prac","559","586","302","5","fallScene","false","","","","","","",""
"","","","","","html-keyboard-response","103","752720","0.0-13.0-7.0-1.1","662692c1abc4830626fccb23","6790928bebf0b969fc839b02","67982724adfe1ea64ac8b315","passed","","935","","","","","","","","","","","","","","f","yesOrNo_prac","","","","5","","","gt","1000","","","","",""
"","","","","","html-keyboard-response","104","754299","0.0-13.0-7.0-0.2","662692c1abc4830626fccb23","6790928bebf0b969fc839b02","67982724adfe1ea64ac8b315","passed","","","","","","","","","","","","","","","","","ballFalling_prac","340","390","263","4","fallScene","true","","","","","","",""
"","","","","","html-keyboard-response","105","755304","0.0-13.0-7.0-1.2","662692c1abc4830626fccb23","6790928bebf0b969fc839b02","67982724adfe1ea64ac8b315","passed","","713","","","","","","","","","","","","","","j","yesOrNo_prac","","","","4","","","far gt","1000","","","","",""
"","","","","","html-keyboard-response","106","756454","0.0-13.0-8.0","662692c1abc4830626fccb23","6790928bebf0b969fc839b02","67982724adfe1ea64ac8b315","passed","","1149","","","","","","","","","","","","","<p><span style=""font-size:40px;"">Practice Test BLOCK 2</span></p><p><span style=""font-size:25px;"">You have <b style=""color: #FF644F;""><strong>3 second(s)</strong></b> to respond to the following trials.</span><br></p><p id=""blinking-text"" style=""font-weight; animation: blink 2s infinite;"">Press Space to continue</p><style>
                    @keyframes blink {
                        50% {
                            opacity: 0;
                        }
                    }
                </style>"," ","","","","","","","","","","","","","",""
"","","","","","html-keyboard-response","107","758028","0.0-13.0-9.0-0.0","662692c1abc4830626fccb23","6790928bebf0b969fc839b02","67982724adfe1ea64ac8b315","passed","","","","","","","","","","","","","","","","","ballFalling_prac","559","586","302","5","fallScene","false","","","","","","",""
"","","","","","html-keyboard-response","108","761031","0.0-13.0-9.0-1.0","662692c1abc4830626fccb23","6790928bebf0b969fc839b02","67982724adfe1ea64ac8b315","passed","","927","","","","","","","","","","","","","","j","yesOrNo_prac","","","","5","","","far gt","3000","","","","",""
"","","","","","html-keyboard-response","109","762609","0.0-13.0-9.0-0.1","662692c1abc4830626fccb23","6790928bebf0b969fc839b02","67982724adfe1ea64ac8b315","passed","","","","","","","","","","","","","","","","","ballFalling_prac","340","390","263","4","fallScene","true","","","","","","",""
"","","","","","html-keyboard-response","110","765613","0.0-13.0-9.0-1.1","662692c1abc4830626fccb23","6790928bebf0b969fc839b02","67982724adfe1ea64ac8b315","passed","","1289","","","","","","","","","","","","","","j","yesOrNo_prac","","","","4","","","close gt","3000","","","","",""
"","","","","","html-keyboard-response","111","767186","0.0-13.0-9.0-0.2","662692c1abc4830626fccb23","6790928bebf0b969fc839b02","67982724adfe1ea64ac8b315","passed","","","","","","","","","","","","","","","","","ballFalling_prac","416","365","249","2","fallScene","false","","","","","","",""
"","","","","","html-keyboard-response","112","770190","0.0-13.0-9.0-1.2","662692c1abc4830626fccb23","6790928bebf0b969fc839b02","67982724adfe1ea64ac8b315","passed","","1438","","","","","","","","","","","","","","f","yesOrNo_prac","","","","2","","","gt","3000","","","","",""
"","","","","","instructions","113","781440","0.0-14.0","662692c1abc4830626fccb23","6790928bebf0b969fc839b02","67982724adfe1ea64ac8b315","passed","[{""page_index"":0,""viewing_time"":11246}]","11246","","","","","","","","","","","","","","","","","","","","","","","","","","","",""
"","","","","","html-keyboard-response","114","782956","0.0-15.0","662692c1abc4830626fccb23","6790928bebf0b969fc839b02","67982724adfe1ea64ac8b315","passed","","1515","","","","","","","","","","","","","<p><span style=""font-size:40px;"">BLOCK 1</span></p><p><span style=""font-size:25px;"">You have <b style=""color: #FF644F;""><strong>1 second(s)</strong></b> to respond to the following trials.</span><br></p><p></p> <!-- Blank line -->
                <p id=""blinking-text"" style=""font-weight; animation: blink 2s infinite;"">Press Space to continue</p>
                <style>
                    @keyframes blink {
                        50% {
                            opacity: 0;
                        }
                    }
                </style></p>"," ","","","","","","","","","","","","","",""
"","","","","","html-keyboard-response","115","784508","0.0-16.0-0.0","662692c1abc4830626fccb23","6790928bebf0b969fc839b02","67982724adfe1ea64ac8b315","passed","","","","","","","","","","","","","","","","","ballFalling","500","453.67114317029973","210.33","5","fallScene","true","","","","","1","",""
"","","","","","html-keyboard-response","116","785513","0.0-16.0-1.0","662692c1abc4830626fccb23","6790928bebf0b969fc839b02","67982724adfe1ea64ac8b315","passed","","924","","","","","","","","","","","","","","j","yesOrNo","","","","5","","","mid","1000","","","1","499","300"
"","","","","","html-keyboard-response","117","787075","0.0-16.0-0.1","662692c1abc4830626fccb23","6790928bebf0b969fc839b02","67982724adfe1ea64ac8b315","passed","","","","","","","","","","","","","","","","","ballFalling","322.3","296.07114317029976","371.46","3","fallScene","true","","","","","2","",""
"","","","","","html-keyboard-response","118","788080","0.0-16.0-1.1","662692c1abc4830626fccb23","6790928bebf0b969fc839b02","67982724adfe1ea64ac8b315","passed","","869","","","","","","","","","","","","","","f","yesOrNo","","","","3","","","lp","1000","","","2","321.3","287.3327096511259"
"","","","","","html-keyboard-response","119","789567","0.0-16.0-0.2","662692c1abc4830626fccb23","6790928bebf0b969fc839b02","67982724adfe1ea64ac8b315","passed","","","","","","","","","","","","","","","","","ballFalling","604.4000000000001","667.6211431702998","201.78","9","fallScene","false","","","","","3","",""
"","","","","","html-keyboard-response","120","790571","0.0-16.0-1.2","662692c1abc4830626fccb23","6790928bebf0b969fc839b02","67982724adfe1ea64ac8b315","passed","","823","","","","","","","","","","","","","","j","yesOrNo","","","","9","","","gt","1000","","","3","667.6211431702998","201.78"
"","","","","","html-keyboard-response","121","792133","0.0-16.0-0.3","662692c1abc4830626fccb23","6790928bebf0b969fc839b02","67982724adfe1ea64ac8b315","passed","","","","","","","","","","","","","","","","","ballFalling","322.3","356.42114317029973","357.87","4","fallScene","true","","","","","4","",""
"","","","","","html-keyboard-response","122","793138","0.0-16.0-1.3","662692c1abc4830626fccb23","6790928bebf0b969fc839b02","67982724adfe1ea64ac8b315","passed","","932","","","","","","","","","","","","","","f","yesOrNo","","","","4","","","gt","1000","","","4","356.42114317029973","357.87"
"","","","","","html-keyboard-response","123","794928","0.0-16.0-0.4","662692c1abc4830626fccb23","6790928bebf0b969fc839b02","67982724adfe1ea64ac8b315","passed","","","","","","","","","","","","","","","","","ballFalling","322.3","308.07114317029976","253.89","2","fallScene","false","","","","","5","",""
"","","","","","html-keyboard-response","124","795933","0.0-16.0-1.4","662692c1abc4830626fccb23","6790928bebf0b969fc839b02","67982724adfe1ea64ac8b315","passed","","null","","","","","","","","","","","","","","null","yesOrNo","","","","2","","","gt","1000","","","5","308.07114317029976","253.89"
"","","","","","html-keyboard-response","125","797429","0.0-16.0-0.5","662692c1abc4830626fccb23","6790928bebf0b969fc839b02","67982724adfe1ea64ac8b315","passed","","","","","","","","","","","","","","","","","ballFalling","604.4000000000001","667.6211431702998","201.78","9","fallScene","true","","","","","6","",""
"","","","","","html-keyboard-response","126","798434","0.0-16.0-1.5","662692c1abc4830626fccb23","6790928bebf0b969fc839b02","67982724adfe1ea64ac8b315","passed","","674","","","","","","","","","","","","","","f","yesOrNo","","","","9","","","lp","1000","","","6","605.4000000000001","151"
"","","","","","html-keyboard-response","127","799988","0.0-16.0-0.6","662692c1abc4830626fccb23","6790928bebf0b969fc839b02","67982724adfe1ea64ac8b315","passed","","","","","","","","","","","","","","","","","ballFalling","604.4000000000001","575.4211431702997","266.76","12","fallScene","true","","","","","7","",""
"","","","","","html-keyboard-response","128","800992","0.0-16.0-1.6","662692c1abc4830626fccb23","6790928bebf0b969fc839b02","67982724adfe1ea64ac8b315","passed","","923","","","","","","","","","","","","","","j","yesOrNo","","","","12","","","gt","1000","","","7","575.4211431702997","266.76"
"","","","","","html-keyboard-response","129","802554","0.0-16.0-0.7","662692c1abc4830626fccb23","6790928bebf0b969fc839b02","67982724adfe1ea64ac8b315","passed","","","","","","","","","","","","","","","","","ballFalling","500","453.67114317029973","210.33","5","fallScene","true","","","","","8","",""
"","","","","","html-keyboard-response","130","803558","0.0-16.0-1.7","662692c1abc4830626fccb23","6790928bebf0b969fc839b02","67982724adfe1ea64ac8b315","passed","","867","","","","","","","","","","","","","","f","yesOrNo","","","","5","","","lp","1000","","","8","499","151"
"","","","","","html-keyboard-response","131","805121","0.0-16.0-0.8","662692c1abc4830626fccb23","6790928bebf0b969fc839b02","67982724adfe1ea64ac8b315","passed","","","","","","","","","","","","","","","","","ballFalling","500","453.67114317029973","210.33","5","fallScene","false","","","","","9","",""
"","","","","","html-keyboard-response","132","806125","0.0-16.0-1.8","662692c1abc4830626fccb23","6790928bebf0b969fc839b02","67982724adfe1ea64ac8b315","passed","","693","","","","","","","","","","","","","","j","yesOrNo","","","","5","","","mid","1000","","","9","499","300"
"","","","","","html-keyboard-response","133","807687","0.0-16.0-0.9","662692c1abc4830626fccb23","6790928bebf0b969fc839b02","67982724adfe1ea64ac8b315","passed","","","","","","","","","","","","","","","","","ballFalling","604.4000000000001","575.4211431702997","266.76","12","fallScene","true","","","","","10","",""
"","","","","","html-keyboard-response","134","808692","0.0-16.0-1.9","662692c1abc4830626fccb23","6790928bebf0b969fc839b02","67982724adfe1ea64ac8b315","passed","","913","","","","","","","","","","","","","","f","yesOrNo","","","","12","","","lp","1000","","","10","603.4000000000001","151"
"","","","","","html-keyboard-response","135","810704","0.0-16.0-0.10","662692c1abc4830626fccb23","6790928bebf0b969fc839b02","67982724adfe1ea64ac8b315","passed","","","","","","","","","","","","","","","","","ballFalling","500","510.8711431702997","369.03","8","fallScene","false","","","","","11","",""
"","","","","","html-keyboard-response","136","811708","0.0-16.0-1.10","662692c1abc4830626fccb23","6790928bebf0b969fc839b02","67982724adfe1ea64ac8b315","passed","","825","","","","","","","","","","","","","","f","yesOrNo","","","","8","","","gt","1000","","","11","510.8711431702997","369.03"
"","","","","","html-keyboard-response","137","813719","0.0-16.0-0.11","662692c1abc4830626fccb23","6790928bebf0b969fc839b02","67982724adfe1ea64ac8b315","passed","","","","","","","","","","","","","","","","","ballFalling","500","510.8711431702997","369.03","8","fallScene","false","","","","","12","",""
"","","","","","html-keyboard-response","138","814724","0.0-16.0-1.11","662692c1abc4830626fccb23","6790928bebf0b969fc839b02","67982724adfe1ea64ac8b315","passed","","590","","","","","","","","","","","","","","f","yesOrNo","","","","8","","","mid","1000","","","12","501","300"
"","","","","","html-keyboard-response","139","816287","0.0-16.0-0.12","662692c1abc4830626fccb23","6790928bebf0b969fc839b02","67982724adfe1ea64ac8b315","passed","","","","","","","","","","","","","","","","","ballFalling","500","453.67114317029973","210.33","5","fallScene","false","","","","","13","",""
"","","","","","html-keyboard-response","140","817291","0.0-16.0-1.12","662692c1abc4830626fccb23","6790928bebf0b969fc839b02","67982724adfe1ea64ac8b315","passed","","947","","","","","","","","","","","","","","f","yesOrNo","","","","5","","","gt","1000","","","13","453.6711431702998","210.33"
"","","","","","html-keyboard-response","141","818868","0.0-16.0-0.13","662692c1abc4830626fccb23","6790928bebf0b969fc839b02","67982724adfe1ea64ac8b315","passed","","","","","","","","","","","","","","","","","ballFalling","500","553.4711431702997","282.51","7","fallScene","false","","","","","14","",""
"","","","","","html-keyboard-response","142","819871","0.0-16.0-1.13","662692c1abc4830626fccb23","6790928bebf0b969fc839b02","67982724adfe1ea64ac8b315","passed","","null","","","","","","","","","","","","","","null","yesOrNo","","","","7","","","gt","1000","","","14","553.4711431702997","282.51"
"","","","","","html-keyboard-response","143","821887","0.0-16.0-0.14","662692c1abc4830626fccb23","6790928bebf0b969fc839b02","67982724adfe1ea64ac8b315","passed","","","","","","","","","","","","","","","","","ballFalling","604.4000000000001","596.8711431702998","394.5","10","fallScene","false","","","","","15","",""
"","","","","","html-keyboard-response","144","822891","0.0-16.0-1.14","662692c1abc4830626fccb23","6790928bebf0b969fc839b02","67982724adfe1ea64ac8b315","passed","","824","","","","","","","","","","","","","","f","yesOrNo","","","","10","","","lp","1000","","","15","603.4000000000001","215.50214355555383"
"","","","","","html-keyboard-response","145","824469","0.0-16.0-0.15","662692c1abc4830626fccb23","6790928bebf0b969fc839b02","67982724adfe1ea64ac8b315","passed","","","","","","","","","","","","","","","","","ballFalling","500","553.4711431702997","282.51","7","fallScene","false","","","","","16","",""
"","","","","","html-keyboard-response","146","825473","0.0-16.0-1.15","662692c1abc4830626fccb23","6790928bebf0b969fc839b02","67982724adfe1ea64ac8b315","passed","","857","","","","","","","","","","","","","","f","yesOrNo","","","","7","","","lp","1000","","","16","501","227.2843295913261"
"","","","","","html-keyboard-response","147","827269","0.0-16.0-0.16","662692c1abc4830626fccb23","6790928bebf0b969fc839b02","67982724adfe1ea64ac8b315","passed","","","","","","","","","","","","","","","","","ballFalling","322.3","308.07114317029976","253.89","2","fallScene","true","","","","","17","",""
"","","","","","html-keyboard-response","148","828275","0.0-16.0-1.16","662692c1abc4830626fccb23","6790928bebf0b969fc839b02","67982724adfe1ea64ac8b315","passed","","889","","","","","","","","","","","","","","f","yesOrNo","","","","2","","","lp","1000","","","17","321.3","151"
"","","","","","html-keyboard-response","149","829835","0.0-16.0-0.17","662692c1abc4830626fccb23","6790928bebf0b969fc839b02","67982724adfe1ea64ac8b315","passed","","","","","","","","","","","","","","","","","ballFalling","604.4000000000001","650.0211431702996","404.58000000000004","11","fallScene","false","","","","","18","",""
"","","","","","html-keyboard-response","150","830839","0.0-16.0-1.17","662692c1abc4830626fccb23","6790928bebf0b969fc839b02","67982724adfe1ea64ac8b315","passed","","754","","","","","","","","","","","","","","f","yesOrNo","","","","11","","","mid","1000","","","18","605.4000000000001","300"
"","","","","","html-keyboard-response","151","832636","0.0-16.0-0.18","662692c1abc4830626fccb23","6790928bebf0b969fc839b02","67982724adfe1ea64ac8b315","passed","","","","","","","","","","","","","","","","","ballFalling","322.3","308.07114317029976","253.89","2","fallScene","false","","","","","19","",""
"","","","","","html-keyboard-response","152","833641","0.0-16.0-1.18","662692c1abc4830626fccb23","6790928bebf0b969fc839b02","67982724adfe1ea64ac8b315","passed","","698","","","","","","","","","","","","","","f","yesOrNo","","","","2","","","gt","1000","","","19","308.07114317029976","253.89"
"","","","","","html-keyboard-response","153","835136","0.0-16.0-0.19","662692c1abc4830626fccb23","6790928bebf0b969fc839b02","67982724adfe1ea64ac8b315","passed","","","","","","","","","","","","","","","","","ballFalling","604.4000000000001","667.6211431702998","201.78","9","fallScene","true","","","","","20","",""
"","","","","","html-keyboard-response","154","836140","0.0-16.0-1.19","662692c1abc4830626fccb23","6790928bebf0b969fc839b02","67982724adfe1ea64ac8b315","passed","","965","","","","","","","","","","","","","","j","yesOrNo","","","","9","","","mid","1000","","","20","605.4000000000001","300"
"","","","","","html-keyboard-response","155","837635","0.0-16.0-0.20","662692c1abc4830626fccb23","6790928bebf0b969fc839b02","67982724adfe1ea64ac8b315","passed","","","","","","","","","","","","","","","","","ballFalling","604.4000000000001","667.6211431702998","201.78","9","fallScene","true","","","","","21","",""
"","","","","","html-keyboard-response","156","838640","0.0-16.0-1.20","662692c1abc4830626fccb23","6790928bebf0b969fc839b02","67982724adfe1ea64ac8b315","passed","","606","","","","","","","","","","","","","","f","yesOrNo","","","","9","","","gt","1000","","","21","667.6211431702998","201.78"
"","","","","","html-keyboard-response","157","840202","0.0-16.0-0.21","662692c1abc4830626fccb23","6790928bebf0b969fc839b02","67982724adfe1ea64ac8b315","passed","","","","","","","","","","","","","","","","","ballFalling","322.3","379.3711431702997","245.25","1","fallScene","false","","","","","22","",""
"","","","","","html-keyboard-response","158","841207","0.0-16.0-1.21","662692c1abc4830626fccb23","6790928bebf0b969fc839b02","67982724adfe1ea64ac8b315","passed","","923","","","","","","","","","","","","","","f","yesOrNo","","","","1","","","gt","1000","","","22","379.3711431702997","245.25"
"","","","","","html-keyboard-response","159","842869","0.0-16.0-0.22","662692c1abc4830626fccb23","6790928bebf0b969fc839b02","67982724adfe1ea64ac8b315","passed","","","","","","","","","","","","","","","","","ballFalling","500","479.92114317029973","330.87","6","fallScene","false","","","","","23","",""
"","","","","","html-keyboard-response","160","843874","0.0-16.0-1.22","662692c1abc4830626fccb23","6790928bebf0b969fc839b02","67982724adfe1ea64ac8b315","passed","","655","","","","","","","","","","","","","","j","yesOrNo","","","","6","","","gt","1000","","","23","479.9211431702998","330.87"
"","","","","","html-keyboard-response","161","845885","0.0-16.0-0.23","662692c1abc4830626fccb23","6790928bebf0b969fc839b02","67982724adfe1ea64ac8b315","passed","","","","","","","","","","","","","","","","","ballFalling","604.4000000000001","596.8711431702998","394.5","10","fallScene","true","","","","","24","",""
"","","","","","html-keyboard-response","162","846891","0.0-16.0-1.23","662692c1abc4830626fccb23","6790928bebf0b969fc839b02","67982724adfe1ea64ac8b315","passed","","null","","","","","","","","","","","","","","null","yesOrNo","","","","10","","","gt","1000","","","24","596.8711431702998","394.5"
"","","","","","html-keyboard-response","163","850597","0.0-17.0","662692c1abc4830626fccb23","6790928bebf0b969fc839b02","67982724adfe1ea64ac8b315","passed","","3705","","","","","","","","","","","","","<p><span style=""font-size:40px;"">BLOCK 2</span></p><p><span style=""font-size:25px;"">You have <b style=""color: #FF644F;""><strong>3 second(s)</strong></b> to respond to the following trials.</span><br></p><p></p> <!-- Blank line -->
                <p id=""blinking-text"" style=""font-weight; animation: blink 2s infinite;"">Press Space to continue</p>
                <style>
                    @keyframes blink {
                        50% {
                            opacity: 0;
                        }
                    }
                </style></p>"," ","","","","","","","","","","","","","",""
"","","","","","html-keyboard-response","164","852384","0.0-18.0-0.0","662692c1abc4830626fccb23","6790928bebf0b969fc839b02","67982724adfe1ea64ac8b315","passed","","","","","","","","","","","","","","","","","ballFalling","322.3","308.07114317029976","253.89","2","fallScene","true","","","","","25","",""
"","","","","","html-keyboard-response","165","855390","0.0-18.0-1.0","662692c1abc4830626fccb23","6790928bebf0b969fc839b02","67982724adfe1ea64ac8b315","passed","","1139","","","","","","","","","","","","","","j","yesOrNo","","","","2","","","mid","3000","","","25","321.3","300"
"","","","","","html-keyboard-response","166","856950","0.0-18.0-0.1","662692c1abc4830626fccb23","6790928bebf0b969fc839b02","67982724adfe1ea64ac8b315","passed","","","","","","","","","","","","","","","","","ballFalling","500","453.67114317029973","210.33","5","fallScene","false","","","","","26","",""
"","","","","","html-keyboard-response","167","859955","0.0-18.0-1.1","662692c1abc4830626fccb23","6790928bebf0b969fc839b02","67982724adfe1ea64ac8b315","passed","","992","","","","","","","","","","","","","","j","yesOrNo","","","","5","","","mid","3000","","","26","499","300"
"","","","","","html-keyboard-response","168","861450","0.0-18.0-0.2","662692c1abc4830626fccb23","6790928bebf0b969fc839b02","67982724adfe1ea64ac8b315","passed","","","","","","","","","","","","","","","","","ballFalling","604.4000000000001","667.6211431702998","201.78","9","fallScene","false","","","","","27","",""
"","","","","","html-keyboard-response","169","864455","0.0-18.0-1.2","662692c1abc4830626fccb23","6790928bebf0b969fc839b02","67982724adfe1ea64ac8b315","passed","","1213","","","","","","","","","","","","","","f","yesOrNo","","","","9","","","lp","3000","","","27","605.4000000000001","151"
"","","","","","html-keyboard-response","170","866467","0.0-18.0-0.3","662692c1abc4830626fccb23","6790928bebf0b969fc839b02","67982724adfe1ea64ac8b315","passed","","","","","","","","","","","","","","","","","ballFalling","604.4000000000001","596.8711431702998","394.5","10","fallScene","true","","","","","28","",""
"","","","","","html-keyboard-response","171","869472","0.0-18.0-1.3","662692c1abc4830626fccb23","6790928bebf0b969fc839b02","67982724adfe1ea64ac8b315","passed","","672","","","","","","","","","","","","","","f","yesOrNo","","","","10","","","mid","3000","","","28","536.4288568297004","300"
"","","","","","html-keyboard-response","172","871033","0.0-18.0-0.4","662692c1abc4830626fccb23","6790928bebf0b969fc839b02","67982724adfe1ea64ac8b315","passed","","","","","","","","","","","","","","","","","ballFalling","604.4000000000001","650.0211431702996","404.58000000000004","11","fallScene","false","","","","","29","",""
"","","","","","html-keyboard-response","173","874037","0.0-18.0-1.4","662692c1abc4830626fccb23","6790928bebf0b969fc839b02","67982724adfe1ea64ac8b315","passed","","1315","","","","","","","","","","","","","","f","yesOrNo","","","","11","","","mid","3000","","","29","605.4000000000001","300"
"","","","","","html-keyboard-response","174","875616","0.0-18.0-0.5","662692c1abc4830626fccb23","6790928bebf0b969fc839b02","67982724adfe1ea64ac8b315","passed","","","","","","","","","","","","","","","","","ballFalling","500","553.4711431702997","282.51","7","fallScene","false","","","","","30","",""
"","","","","","html-keyboard-response","175","878621","0.0-18.0-1.5","662692c1abc4830626fccb23","6790928bebf0b969fc839b02","67982724adfe1ea64ac8b315","passed","","989","","","","","","","","","","","","","","f","yesOrNo","","","","7","","","lp","3000","","","30","501","227.2843295913261"
"","","","","","html-keyboard-response","176","880416","0.0-18.0-0.6","662692c1abc4830626fccb23","6790928bebf0b969fc839b02","67982724adfe1ea64ac8b315","passed","","","","","","","","","","","","","","","","","ballFalling","322.3","308.07114317029976","253.89","2","fallScene","true","","","","","31","",""
"","","","","","html-keyboard-response","177","883421","0.0-18.0-1.6","662692c1abc4830626fccb23","6790928bebf0b969fc839b02","67982724adfe1ea64ac8b315","passed","","2173","","","","","","","","","","","","","","j","yesOrNo","","","","2","","","gt","3000","","","31","308.07114317029976","253.89"
"","","","","","html-keyboard-response","178","884983","0.0-18.0-0.7","662692c1abc4830626fccb23","6790928bebf0b969fc839b02","67982724adfe1ea64ac8b315","passed","","","","","","","","","","","","","","","","","ballFalling","604.4000000000001","575.4211431702997","266.76","12","fallScene","false","","","","","32","",""
"","","","","","html-keyboard-response","179","887987","0.0-18.0-1.7","662692c1abc4830626fccb23","6790928bebf0b969fc839b02","67982724adfe1ea64ac8b315","passed","","1586","","","","","","","","","","","","","","f","yesOrNo","","","","12","","","mid","3000","","","32","536.4288568297004","300"
"","","","","","html-keyboard-response","180","889998","0.0-18.0-0.8","662692c1abc4830626fccb23","6790928bebf0b969fc839b02","67982724adfe1ea64ac8b315","passed","","","","","","","","","","","","","","","","","ballFalling","500","510.8711431702997","369.03","8","fallScene","true","","","","","33","",""
"","","","","","html-keyboard-response","181","893002","0.0-18.0-1.8","662692c1abc4830626fccb23","6790928bebf0b969fc839b02","67982724adfe1ea64ac8b315","passed","","637","","","","","","","","","","","","","","j","yesOrNo","","","","8","","","mid","3000","","","33","501","300"
"","","","","","html-keyboard-response","182","894582","0.0-18.0-0.9","662692c1abc4830626fccb23","6790928bebf0b969fc839b02","67982724adfe1ea64ac8b315","passed","","","","","","","","","","","","","","","","","ballFalling","500","553.4711431702997","282.51","7","fallScene","false","","","","","34","",""
"","","","","","html-keyboard-response","183","897587","0.0-18.0-1.9","662692c1abc4830626fccb23","6790928bebf0b969fc839b02","67982724adfe1ea64ac8b315","passed","","1347","","","","","","","","","","","","","","f","yesOrNo","","","","7","","","gt","3000","","","34","553.4711431702997","282.51"
"","","","","","html-keyboard-response","184","899598","0.0-18.0-0.10","662692c1abc4830626fccb23","6790928bebf0b969fc839b02","67982724adfe1ea64ac8b315","passed","","","","","","","","","","","","","","","","","ballFalling","500","510.8711431702997","369.03","8","fallScene","false","","","","","35","",""
"","","","","","html-keyboard-response","185","902602","0.0-18.0-1.10","662692c1abc4830626fccb23","6790928bebf0b969fc839b02","67982724adfe1ea64ac8b315","passed","","912","","","","","","","","","","","","","","f","yesOrNo","","","","8","","","lp","3000","","","35","501","151"
"","","","","","html-keyboard-response","186","904264","0.0-18.0-0.11","662692c1abc4830626fccb23","6790928bebf0b969fc839b02","67982724adfe1ea64ac8b315","passed","","","","","","","","","","","","","","","","","ballFalling","500","479.92114317029973","330.87","6","fallScene","true","","","","","36","",""
"","","","","","html-keyboard-response","187","907268","0.0-18.0-1.11","662692c1abc4830626fccb23","6790928bebf0b969fc839b02","67982724adfe1ea64ac8b315","passed","","1457","","","","","","","","","","","","","","f","yesOrNo","","","","6","","","lp","3000","","","36","499","189.92909825697632"
"","","","","","html-keyboard-response","188","908831","0.0-18.0-0.12","662692c1abc4830626fccb23","6790928bebf0b969fc839b02","67982724adfe1ea64ac8b315","passed","","","","","","","","","","","","","","","","","ballFalling","500","453.67114317029973","210.33","5","fallScene","false","","","","","37","",""
"","","","","","html-keyboard-response","189","911835","0.0-18.0-1.12","662692c1abc4830626fccb23","6790928bebf0b969fc839b02","67982724adfe1ea64ac8b315","passed","","637","","","","","","","","","","","","","","f","yesOrNo","","","","5","","","lp","3000","","","37","499","151"
"","","","","","html-keyboard-response","190","913848","0.0-18.0-0.13","662692c1abc4830626fccb23","6790928bebf0b969fc839b02","67982724adfe1ea64ac8b315","passed","","","","","","","","","","","","","","","","","ballFalling","604.4000000000001","596.8711431702998","394.5","10","fallScene","false","","","","","38","",""
"","","","","","html-keyboard-response","191","916851","0.0-18.0-1.13","662692c1abc4830626fccb23","6790928bebf0b969fc839b02","67982724adfe1ea64ac8b315","passed","","375","","","","","","","","","","","","","","j","yesOrNo","","","","10","","","mid","3000","","","38","536.4288568297004","300"
"","","","","","html-keyboard-response","192","918413","0.0-18.0-0.14","662692c1abc4830626fccb23","6790928bebf0b969fc839b02","67982724adfe1ea64ac8b315","passed","","","","","","","","","","","","","","","","","ballFalling","322.3","356.42114317029973","357.87","4","fallScene","false","","","","","39","",""
"","","","","","html-keyboard-response","193","921418","0.0-18.0-1.14","662692c1abc4830626fccb23","6790928bebf0b969fc839b02","67982724adfe1ea64ac8b315","passed","","885","","","","","","","","","","","","","","f","yesOrNo","","","","4","","","mid","3000","","","39","390.27114317029975","300"
"","","","","","html-keyboard-response","194","922914","0.0-18.0-0.15","662692c1abc4830626fccb23","6790928bebf0b969fc839b02","67982724adfe1ea64ac8b315","passed","","","","","","","","","","","","","","","","","ballFalling","604.4000000000001","667.6211431702998","201.78","9","fallScene","true","","","","","40","",""
"","","","","","html-keyboard-response","195","925917","0.0-18.0-1.15","662692c1abc4830626fccb23","6790928bebf0b969fc839b02","67982724adfe1ea64ac8b315","passed","","1128","","","","","","","","","","","","","","j","yesOrNo","","","","9","","","mid","3000","","","40","605.4000000000001","300"
"","","","","","html-keyboard-response","196","927480","0.0-18.0-0.16","662692c1abc4830626fccb23","6790928bebf0b969fc839b02","67982724adfe1ea64ac8b315","passed","","","","","","","","","","","","","","","","","ballFalling","322.3","356.42114317029973","357.87","4","fallScene","false","","","","","41","",""
"","","","","","html-keyboard-response","197","930482","0.0-18.0-1.16","662692c1abc4830626fccb23","6790928bebf0b969fc839b02","67982724adfe1ea64ac8b315","passed","","1093","","","","","","","","","","","","","","j","yesOrNo","","","","4","","","gt","3000","","","41","356.42114317029973","357.87"
"","","","","","html-keyboard-response","198","932063","0.0-18.0-0.17","662692c1abc4830626fccb23","6790928bebf0b969fc839b02","67982724adfe1ea64ac8b315","passed","","","","","","","","","","","","","","","","","ballFalling","500","553.4711431702997","282.51","7","fallScene","true","","","","","42","",""
"","","","","","html-keyboard-response","199","935067","0.0-18.0-1.17","662692c1abc4830626fccb23","6790928bebf0b969fc839b02","67982724adfe1ea64ac8b315","passed","","731","","","","","","","","","","","","","","j","yesOrNo","","","","7","","","mid","3000","","","42","501","300"
"","","","","","html-keyboard-response","200","936630","0.0-18.0-0.18","662692c1abc4830626fccb23","6790928bebf0b969fc839b02","67982724adfe1ea64ac8b315","passed","","","","","","","","","","","","","","","","","ballFalling","322.3","296.07114317029976","371.46","3","fallScene","true","","","","","43","",""
"","","","","","html-keyboard-response","201","939633","0.0-18.0-1.18","662692c1abc4830626fccb23","6790928bebf0b969fc839b02","67982724adfe1ea64ac8b315","passed","","902","","","","","","","","","","","","","","j","yesOrNo","","","","3","","","gt","3000","","","43","296.07114317029976","371.46"
"","","","","","html-keyboard-response","202","941196","0.0-18.0-0.19","662692c1abc4830626fccb23","6790928bebf0b969fc839b02","67982724adfe1ea64ac8b315","passed","","","","","","","","","","","","","","","","","ballFalling","604.4000000000001","650.0211431702996","404.58000000000004","11","fallScene","true","","","","","44","",""
"","","","","","html-keyboard-response","203","944201","0.0-18.0-1.19","662692c1abc4830626fccb23","6790928bebf0b969fc839b02","67982724adfe1ea64ac8b315","passed","","675","","","","","","","","","","","","","","j","yesOrNo","","","","11","","","gt","3000","","","44","650.0211431702996","404.58"
"","","","","","html-keyboard-response","204","945762","0.0-18.0-0.20","662692c1abc4830626fccb23","6790928bebf0b969fc839b02","67982724adfe1ea64ac8b315","passed","","","","","","","","","","","","","","","","","ballFalling","500","453.67114317029973","210.33","5","fallScene","false","","","","","45","",""
"","","","","","html-keyboard-response","205","948766","0.0-18.0-1.20","662692c1abc4830626fccb23","6790928bebf0b969fc839b02","67982724adfe1ea64ac8b315","passed","","837","","","","","","","","","","","","","","f","yesOrNo","","","","5","","","lp","3000","","","45","499","151"
"","","","","","html-keyboard-response","206","950779","0.0-18.0-0.21","662692c1abc4830626fccb23","6790928bebf0b969fc839b02","67982724adfe1ea64ac8b315","passed","","","","","","","","","","","","","","","","","ballFalling","500","510.8711431702997","369.03","8","fallScene","true","","","","","46","",""
"","","","","","html-keyboard-response","207","953782","0.0-18.0-1.21","662692c1abc4830626fccb23","6790928bebf0b969fc839b02","67982724adfe1ea64ac8b315","passed","","728","","","","","","","","","","","","","","f","yesOrNo","","","","8","","","lp","3000","","","46","501","151"
"","","","","","html-keyboard-response","208","955345","0.0-18.0-0.22","662692c1abc4830626fccb23","6790928bebf0b969fc839b02","67982724adfe1ea64ac8b315","passed","","","","","","","","","","","","","","","","","ballFalling","322.3","379.3711431702997","245.25","1","fallScene","true","","","","","47","",""
"","","","","","html-keyboard-response","209","958346","0.0-18.0-1.22","662692c1abc4830626fccb23","6790928bebf0b969fc839b02","67982724adfe1ea64ac8b315","passed","","1025","","","","","","","","","","","","","","f","yesOrNo","","","","1","","","mid","3000","","","47","390.27114317029975","300"
"","","","","","html-keyboard-response","210","960011","0.0-18.0-0.23","662692c1abc4830626fccb23","6790928bebf0b969fc839b02","67982724adfe1ea64ac8b315","passed","","","","","","","","","","","","","","","","","ballFalling","500","479.92114317029973","330.87","6","fallScene","true","","","","","48","",""
"","","","","","html-keyboard-response","211","963015","0.0-18.0-1.23","662692c1abc4830626fccb23","6790928bebf0b969fc839b02","67982724adfe1ea64ac8b315","passed","","906","","","","","","","","","","","","","","j","yesOrNo","","","","6","","","gt","3000","","","48","479.9211431702998","330.87"
"","","","","","html-keyboard-response","212","963868","0.0-19.0","662692c1abc4830626fccb23","6790928bebf0b969fc839b02","67982724adfe1ea64ac8b315","passed","","852","","","","","","","","","","","","","<p><span style=""font-size:40px;"">BLOCK 3</span></p><p><span style=""font-size:25px;"">You have <b style=""color: #FF644F;""><strong>3 second(s)</strong></b> to respond to the following trials.</span><br></p><p></p> <!-- Blank line -->
                <p id=""blinking-text"" style=""font-weight; animation: blink 2s infinite;"">Press Space to continue</p>
                <style>
                    @keyframes blink {
                        50% {
                            opacity: 0;
                        }
                    }
                </style></p>"," ","","","","","","","","","","","","","",""
"","","","","","html-keyboard-response","213","965427","0.0-20.0-0.0","662692c1abc4830626fccb23","6790928bebf0b969fc839b02","67982724adfe1ea64ac8b315","passed","","","","","","","","","","","","","","","","","ballFalling","322.3","379.3711431702997","245.25","1","fallScene","false","","","","","49","",""
"","","","","","html-keyboard-response","214","968432","0.0-20.0-1.0","662692c1abc4830626fccb23","6790928bebf0b969fc839b02","67982724adfe1ea64ac8b315","passed","","836","","","","","","","","","","","","","","f","yesOrNo","","","","1","","","lp","3000","","","49","323.3","217.74551669457017"
"","","","","","html-keyboard-response","215","969994","0.0-20.0-0.1","662692c1abc4830626fccb23","6790928bebf0b969fc839b02","67982724adfe1ea64ac8b315","passed","","","","","","","","","","","","","","","","","ballFalling","604.4000000000001","575.4211431702997","266.76","12","fallScene","true","","","","","50","",""
"","","","","","html-keyboard-response","216","972996","0.0-20.0-1.1","662692c1abc4830626fccb23","6790928bebf0b969fc839b02","67982724adfe1ea64ac8b315","passed","","1060","","","","","","","","","","","","","","j","yesOrNo","","","","12","","","gt","3000","","","50","575.4211431702997","266.76"
"","","","","","html-keyboard-response","217","974560","0.0-20.0-0.2","662692c1abc4830626fccb23","6790928bebf0b969fc839b02","67982724adfe1ea64ac8b315","passed","","","","","","","","","","","","","","","","","ballFalling","322.3","296.07114317029976","371.46","3","fallScene","false","","","","","51","",""
"","","","","","html-keyboard-response","218","977565","0.0-20.0-1.2","662692c1abc4830626fccb23","6790928bebf0b969fc839b02","67982724adfe1ea64ac8b315","passed","","726","","","","","","","","","","","","","","j","yesOrNo","","","","3","","","mid","3000","","","51","321.3","300"
"","","","","","html-keyboard-response","219","979127","0.0-20.0-0.3","662692c1abc4830626fccb23","6790928bebf0b969fc839b02","67982724adfe1ea64ac8b315","passed","","","","","","","","","","","","","","","","","ballFalling","604.4000000000001","575.4211431702997","266.76","12","fallScene","false","","","","","52","",""
"","","","","","html-keyboard-response","220","982131","0.0-20.0-1.3","662692c1abc4830626fccb23","6790928bebf0b969fc839b02","67982724adfe1ea64ac8b315","passed","","933","","","","","","","","","","","","","","j","yesOrNo","","","","12","","","gt","3000","","","52","575.4211431702997","266.76"
"","","","","","html-keyboard-response","221","983793","0.0-20.0-0.4","662692c1abc4830626fccb23","6790928bebf0b969fc839b02","67982724adfe1ea64ac8b315","passed","","","","","","","","","","","","","","","","","ballFalling","500","479.92114317029973","330.87","6","fallScene","false","","","","","53","",""
"","","","","","html-keyboard-response","222","986794","0.0-20.0-1.4","662692c1abc4830626fccb23","6790928bebf0b969fc839b02","67982724adfe1ea64ac8b315","passed","","791","","","","","","","","","","","","","","f","yesOrNo","","","","6","","","lp","3000","","","53","499","189.92909825697632"
"","","","","","html-keyboard-response","223","988810","0.0-20.0-0.5","662692c1abc4830626fccb23","6790928bebf0b969fc839b02","67982724adfe1ea64ac8b315","passed","","","","","","","","","","","","","","","","","ballFalling","604.4000000000001","596.8711431702998","394.5","10","fallScene","false","","","","","54","",""
"","","","","","html-keyboard-response","224","991814","0.0-20.0-1.5","662692c1abc4830626fccb23","6790928bebf0b969fc839b02","67982724adfe1ea64ac8b315","passed","","1220","","","","","","","","","","","","","","f","yesOrNo","","","","10","","","gt","3000","","","54","596.8711431702998","394.5"
"","","","","","html-keyboard-response","225","993826","0.0-20.0-0.6","662692c1abc4830626fccb23","6790928bebf0b969fc839b02","67982724adfe1ea64ac8b315","passed","","","","","","","","","","","","","","","","","ballFalling","604.4000000000001","596.8711431702998","394.5","10","fallScene","true","","","","","55","",""
"","","","","","html-keyboard-response","226","996831","0.0-20.0-1.6","662692c1abc4830626fccb23","6790928bebf0b969fc839b02","67982724adfe1ea64ac8b315","passed","","1042","","","","","","","","","","","","","","f","yesOrNo","","","","10","","","lp","3000","","","55","603.4000000000001","215.50214355555383"
"","","","","","html-keyboard-response","227","998326","0.0-20.0-0.7","662692c1abc4830626fccb23","6790928bebf0b969fc839b02","67982724adfe1ea64ac8b315","passed","","","","","","","","","","","","","","","","","ballFalling","604.4000000000001","667.6211431702998","201.78","9","fallScene","true","","","","","56","",""
"","","","","","html-keyboard-response","228","1001330","0.0-20.0-1.7","662692c1abc4830626fccb23","6790928bebf0b969fc839b02","67982724adfe1ea64ac8b315","passed","","868","","","","","","","","","","","","","","f","yesOrNo","","","","9","","","lp","3000","","","56","605.4000000000001","151"
"","","","","","html-keyboard-response","229","1002891","0.0-20.0-0.8","662692c1abc4830626fccb23","6790928bebf0b969fc839b02","67982724adfe1ea64ac8b315","passed","","","","","","","","","","","","","","","","","ballFalling","322.3","296.07114317029976","371.46","3","fallScene","false","","","","","57","",""
"","","","","","html-keyboard-response","230","1005895","0.0-20.0-1.8","662692c1abc4830626fccb23","6790928bebf0b969fc839b02","67982724adfe1ea64ac8b315","passed","","1281","","","","","","","","","","","","","","f","yesOrNo","","","","3","","","lp","3000","","","57","321.3","287.3327096511259"
"","","","","","html-keyboard-response","231","1007908","0.0-20.0-0.9","662692c1abc4830626fccb23","6790928bebf0b969fc839b02","67982724adfe1ea64ac8b315","passed","","","","","","","","","","","","","","","","","ballFalling","500","510.8711431702997","369.03","8","fallScene","true","","","","","58","",""
"","","","","","html-keyboard-response","232","1010911","0.0-20.0-1.9","662692c1abc4830626fccb23","6790928bebf0b969fc839b02","67982724adfe1ea64ac8b315","passed","","1249","","","","","","","","","","","","","","f","yesOrNo","","","","8","","","mid","3000","","","58","501","300"
"","","","","","html-keyboard-response","233","1012475","0.0-20.0-0.10","662692c1abc4830626fccb23","6790928bebf0b969fc839b02","67982724adfe1ea64ac8b315","passed","","","","","","","","","","","","","","","","","ballFalling","322.3","356.42114317029973","357.87","4","fallScene","false","","","","","59","",""
"","","","","","html-keyboard-response","234","1015479","0.0-20.0-1.10","662692c1abc4830626fccb23","6790928bebf0b969fc839b02","67982724adfe1ea64ac8b315","passed","","1173","","","","","","","","","","","","","","f","yesOrNo","","","","4","","","lp","3000","","","59","323.3","297.4070551689986"
"","","","","","html-keyboard-response","235","1017041","0.0-20.0-0.11","662692c1abc4830626fccb23","6790928bebf0b969fc839b02","67982724adfe1ea64ac8b315","passed","","","","","","","","","","","","","","","","","ballFalling","500","453.67114317029973","210.33","5","fallScene","true","","","","","60","",""
"","","","","","html-keyboard-response","236","1020046","0.0-20.0-1.11","662692c1abc4830626fccb23","6790928bebf0b969fc839b02","67982724adfe1ea64ac8b315","passed","","1217","","","","","","","","","","","","","","f","yesOrNo","","","","5","","","gt","3000","","","60","453.6711431702998","210.33"
"","","","","","html-keyboard-response","237","1021607","0.0-20.0-0.12","662692c1abc4830626fccb23","6790928bebf0b969fc839b02","67982724adfe1ea64ac8b315","passed","","","","","","","","","","","","","","","","","ballFalling","604.4000000000001","575.4211431702997","266.76","12","fallScene","true","","","","","61","",""
"","","","","","html-keyboard-response","238","1024611","0.0-20.0-1.12","662692c1abc4830626fccb23","6790928bebf0b969fc839b02","67982724adfe1ea64ac8b315","passed","","978","","","","","","","","","","","","","","f","yesOrNo","","","","12","","","lp","3000","","","61","603.4000000000001","151"
"","","","","","html-keyboard-response","239","1026174","0.0-20.0-0.13","662692c1abc4830626fccb23","6790928bebf0b969fc839b02","67982724adfe1ea64ac8b315","passed","","","","","","","","","","","","","","","","","ballFalling","322.3","379.3711431702997","245.25","1","fallScene","true","","","","","62","",""
"","","","","","html-keyboard-response","240","1029178","0.0-20.0-1.13","662692c1abc4830626fccb23","6790928bebf0b969fc839b02","67982724adfe1ea64ac8b315","passed","","958","","","","","","","","","","","","","","f","yesOrNo","","","","1","","","mid","3000","","","62","390.27114317029975","300"
"","","","","","html-keyboard-response","241","1031191","0.0-20.0-0.14","662692c1abc4830626fccb23","6790928bebf0b969fc839b02","67982724adfe1ea64ac8b315","passed","","","","","","","","","","","","","","","","","ballFalling","604.4000000000001","596.8711431702998","394.5","10","fallScene","true","","","","","63","",""
"","","","","","html-keyboard-response","242","1034195","0.0-20.0-1.14","662692c1abc4830626fccb23","6790928bebf0b969fc839b02","67982724adfe1ea64ac8b315","passed","","867","","","","","","","","","","","","","","f","yesOrNo","","","","10","","","lp","3000","","","63","603.4000000000001","215.50214355555383"
"","","","","","html-keyboard-response","243","1035773","0.0-20.0-0.15","662692c1abc4830626fccb23","6790928bebf0b969fc839b02","67982724adfe1ea64ac8b315","passed","","","","","","","","","","","","","","","","","ballFalling","500","553.4711431702997","282.51","7","fallScene","false","","","","","64","",""
"","","","","","html-keyboard-response","244","1038777","0.0-20.0-1.15","662692c1abc4830626fccb23","6790928bebf0b969fc839b02","67982724adfe1ea64ac8b315","passed","","653","","","","","","","","","","","","","","f","yesOrNo","","","","7","","","mid","3000","","","64","501","300"
"","","","","","html-keyboard-response","245","1040340","0.0-20.0-0.16","662692c1abc4830626fccb23","6790928bebf0b969fc839b02","67982724adfe1ea64ac8b315","passed","","","","","","","","","","","","","","","","","ballFalling","604.4000000000001","575.4211431702997","266.76","12","fallScene","false","","","","","65","",""
"","","","","","html-keyboard-response","246","1043344","0.0-20.0-1.16","662692c1abc4830626fccb23","6790928bebf0b969fc839b02","67982724adfe1ea64ac8b315","passed","","874","","","","","","","","","","","","","","f","yesOrNo","","","","12","","","mid","3000","","","65","536.4288568297004","300"
"","","","","","html-keyboard-response","247","1044906","0.0-20.0-0.17","662692c1abc4830626fccb23","6790928bebf0b969fc839b02","67982724adfe1ea64ac8b315","passed","","","","","","","","","","","","","","","","","ballFalling","604.4000000000001","650.0211431702996","404.58000000000004","11","fallScene","true","","","","","66","",""
"","","","","","html-keyboard-response","248","1047911","0.0-20.0-1.17","662692c1abc4830626fccb23","6790928bebf0b969fc839b02","67982724adfe1ea64ac8b315","passed","","1134","","","","","","","","","","","","","","f","yesOrNo","","","","11","","","mid","3000","","","66","605.4000000000001","300"
"","","","","","html-keyboard-response","249","1049706","0.0-20.0-0.18","662692c1abc4830626fccb23","6790928bebf0b969fc839b02","67982724adfe1ea64ac8b315","passed","","","","","","","","","","","","","","","","","ballFalling","322.3","308.07114317029976","253.89","2","fallScene","true","","","","","67","",""
"","","","","","html-keyboard-response","250","1052711","0.0-20.0-1.18","662692c1abc4830626fccb23","6790928bebf0b969fc839b02","67982724adfe1ea64ac8b315","passed","","1083","","","","","","","","","","","","","","j","yesOrNo","","","","2","","","gt","3000","","","67","308.07114317029976","253.89"
"","","","","","html-keyboard-response","251","1054272","0.0-20.0-0.19","662692c1abc4830626fccb23","6790928bebf0b969fc839b02","67982724adfe1ea64ac8b315","passed","","","","","","","","","","","","","","","","","ballFalling","604.4000000000001","575.4211431702997","266.76","12","fallScene","false","","","","","68","",""
"","","","","","html-keyboard-response","252","1057277","0.0-20.0-1.19","662692c1abc4830626fccb23","6790928bebf0b969fc839b02","67982724adfe1ea64ac8b315","passed","","640","","","","","","","","","","","","","","f","yesOrNo","","","","12","","","lp","3000","","","68","603.4000000000001","151"
"","","","","","html-keyboard-response","253","1058771","0.0-20.0-0.20","662692c1abc4830626fccb23","6790928bebf0b969fc839b02","67982724adfe1ea64ac8b315","passed","","","","","","","","","","","","","","","","","ballFalling","604.4000000000001","667.6211431702998","201.78","9","fallScene","false","","","","","69","",""
"","","","","","html-keyboard-response","254","1061774","0.0-20.0-1.20","662692c1abc4830626fccb23","6790928bebf0b969fc839b02","67982724adfe1ea64ac8b315","passed","","1105","","","","","","","","","","","","","","f","yesOrNo","","","","9","","","gt","3000","","","69","667.6211431702998","201.78"
"","","","","","html-keyboard-response","255","1063339","0.0-20.0-0.21","662692c1abc4830626fccb23","6790928bebf0b969fc839b02","67982724adfe1ea64ac8b315","passed","","","","","","","","","","","","","","","","","ballFalling","604.4000000000001","650.0211431702996","404.58000000000004","11","fallScene","false","","","","","70","",""
"","","","","","html-keyboard-response","256","1066343","0.0-20.0-1.21","662692c1abc4830626fccb23","6790928bebf0b969fc839b02","67982724adfe1ea64ac8b315","passed","","994","","","","","","","","","","","","","","j","yesOrNo","","","","11","","","lp","3000","","","70","605.4000000000001","372.6340973215488"
"","","","","","html-keyboard-response","257","1067904","0.0-20.0-0.22","662692c1abc4830626fccb23","6790928bebf0b969fc839b02","67982724adfe1ea64ac8b315","passed","","","","","","","","","","","","","","","","","ballFalling","322.3","356.42114317029973","357.87","4","fallScene","true","","","","","71","",""
"","","","","","html-keyboard-response","258","1070907","0.0-20.0-1.22","662692c1abc4830626fccb23","6790928bebf0b969fc839b02","67982724adfe1ea64ac8b315","passed","","992","","","","","","","","","","","","","","j","yesOrNo","","","","4","","","lp","3000","","","71","323.3","297.4070551689986"
"","","","","","html-keyboard-response","259","1072471","0.0-20.0-0.23","662692c1abc4830626fccb23","6790928bebf0b969fc839b02","67982724adfe1ea64ac8b315","passed","","","","","","","","","","","","","","","","","ballFalling","500","453.67114317029973","210.33","5","fallScene","false","","","","","72","",""
"","","","","","html-keyboard-response","260","1075475","0.0-20.0-1.23","662692c1abc4830626fccb23","6790928bebf0b969fc839b02","67982724adfe1ea64ac8b315","passed","","807","","","","","","","","","","","","","","f","yesOrNo","","","","5","","","gt","3000","","","72","453.6711431702998","210.33"
"","","","","","html-keyboard-response","261","1078349","0.0-21.0","662692c1abc4830626fccb23","6790928bebf0b969fc839b02","67982724adfe1ea64ac8b315","passed","","2873","","","","","","","","","","","","","<p><span style=""font-size:40px;"">BLOCK 4</span></p><p><span style=""font-size:25px;"">You have <b style=""color: #FF644F;""><strong>1 second(s)</strong></b> to respond to the following trials.</span><br></p><p></p> <!-- Blank line -->
                <p id=""blinking-text"" style=""font-weight; animation: blink 2s infinite;"">Press Space to continue</p>
                <style>
                    @keyframes blink {
                        50% {
                            opacity: 0;
                        }
                    }
                </style></p>"," ","","","","","","","","","","","","","",""
"","","","","","html-keyboard-response","262","1079903","0.0-22.0-0.0","662692c1abc4830626fccb23","6790928bebf0b969fc839b02","67982724adfe1ea64ac8b315","passed","","","","","","","","","","","","","","","","","ballFalling","604.4000000000001","575.4211431702997","266.76","12","fallScene","true","","","","","73","",""
"","","","","","html-keyboard-response","263","1080908","0.0-22.0-1.0","662692c1abc4830626fccb23","6790928bebf0b969fc839b02","67982724adfe1ea64ac8b315","passed","","958","","","","","","","","","","","","","","j","yesOrNo","","","","12","","","mid","1000","","","73","536.4288568297004","300"
"","","","","","html-keyboard-response","264","1082470","0.0-22.0-0.1","662692c1abc4830626fccb23","6790928bebf0b969fc839b02","67982724adfe1ea64ac8b315","passed","","","","","","","","","","","","","","","","","ballFalling","500","453.67114317029973","210.33","5","fallScene","true","","","","","74","",""
"","","","","","html-keyboard-response","265","1083475","0.0-22.0-1.1","662692c1abc4830626fccb23","6790928bebf0b969fc839b02","67982724adfe1ea64ac8b315","passed","","null","","","","","","","","","","","","","","null","yesOrNo","","","","5","","","gt","1000","","","74","453.6711431702998","210.33"
"","","","","","html-keyboard-response","266","1085037","0.0-22.0-0.2","662692c1abc4830626fccb23","6790928bebf0b969fc839b02","67982724adfe1ea64ac8b315","passed","","","","","","","","","","","","","","","","","ballFalling","322.3","356.42114317029973","357.87","4","fallScene","true","","","","","75","",""
"","","","","","html-keyboard-response","267","1086041","0.0-22.0-1.2","662692c1abc4830626fccb23","6790928bebf0b969fc839b02","67982724adfe1ea64ac8b315","passed","","659","","","","","","","","","","","","","","j","yesOrNo","","","","4","","","lp","1000","","","75","323.3","297.4070551689986"
"","","","","","html-keyboard-response","268","1087704","0.0-22.0-0.3","662692c1abc4830626fccb23","6790928bebf0b969fc839b02","67982724adfe1ea64ac8b315","passed","","","","","","","","","","","","","","","","","ballFalling","500","479.92114317029973","330.87","6","fallScene","true","","","","","76","",""
"","","","","","html-keyboard-response","269","1088708","0.0-22.0-1.3","662692c1abc4830626fccb23","6790928bebf0b969fc839b02","67982724adfe1ea64ac8b315","passed","","641","","","","","","","","","","","","","","f","yesOrNo","","","","6","","","mid","1000","","","76","499","300"
"","","","","","html-keyboard-response","270","1090270","0.0-22.0-0.4","662692c1abc4830626fccb23","6790928bebf0b969fc839b02","67982724adfe1ea64ac8b315","passed","","","","","","","","","","","","","","","","","ballFalling","322.3","356.42114317029973","357.87","4","fallScene","true","","","","","77","",""
"","","","","","html-keyboard-response","271","1091275","0.0-22.0-1.4","662692c1abc4830626fccb23","6790928bebf0b969fc839b02","67982724adfe1ea64ac8b315","passed","","559","","","","","","","","","","","","","","j","yesOrNo","","","","4","","","lp","1000","","","77","323.3","297.4070551689986"
"","","","","","html-keyboard-response","272","1092837","0.0-22.0-0.5","662692c1abc4830626fccb23","6790928bebf0b969fc839b02","67982724adfe1ea64ac8b315","passed","","","","","","","","","","","","","","","","","ballFalling","322.3","356.42114317029973","357.87","4","fallScene","false","","","","","78","",""
"","","","","","html-keyboard-response","273","1093842","0.0-22.0-1.5","662692c1abc4830626fccb23","6790928bebf0b969fc839b02","67982724adfe1ea64ac8b315","passed","","608","","","","","","","","","","","","","","j","yesOrNo","","","","4","","","gt","1000","","","78","356.42114317029973","357.87"
"","","","","","html-keyboard-response","274","1095403","0.0-22.0-0.6","662692c1abc4830626fccb23","6790928bebf0b969fc839b02","67982724adfe1ea64ac8b315","passed","","","","","","","","","","","","","","","","","ballFalling","322.3","356.42114317029973","357.87","4","fallScene","false","","","","","79","",""
"","","","","","html-keyboard-response","275","1096408","0.0-22.0-1.6","662692c1abc4830626fccb23","6790928bebf0b969fc839b02","67982724adfe1ea64ac8b315","passed","","789","","","","","","","","","","","","","","j","yesOrNo","","","","4","","","mid","1000","","","79","390.27114317029975","300"
"","","","","","html-keyboard-response","276","1098070","0.0-22.0-0.7","662692c1abc4830626fccb23","6790928bebf0b969fc839b02","67982724adfe1ea64ac8b315","passed","","","","","","","","","","","","","","","","","ballFalling","500","479.92114317029973","330.87","6","fallScene","false","","","","","80","",""
"","","","","","html-keyboard-response","277","1099075","0.0-22.0-1.7","662692c1abc4830626fccb23","6790928bebf0b969fc839b02","67982724adfe1ea64ac8b315","passed","","775","","","","","","","","","","","","","","f","yesOrNo","","","","6","","","lp","1000","","","80","499","189.92909825697632"
"","","","","","html-keyboard-response","278","1100636","0.0-22.0-0.8","662692c1abc4830626fccb23","6790928bebf0b969fc839b02","67982724adfe1ea64ac8b315","passed","","","","","","","","","","","","","","","","","ballFalling","500","453.67114317029973","210.33","5","fallScene","false","","","","","81","",""
"","","","","","html-keyboard-response","279","1101641","0.0-22.0-1.8","662692c1abc4830626fccb23","6790928bebf0b969fc839b02","67982724adfe1ea64ac8b315","passed","","659","","","","","","","","","","","","","","f","yesOrNo","","","","5","","","lp","1000","","","81","499","151"
"","","","","","html-keyboard-response","280","1103219","0.0-22.0-0.9","662692c1abc4830626fccb23","6790928bebf0b969fc839b02","67982724adfe1ea64ac8b315","passed","","","","","","","","","","","","","","","","","ballFalling","500","553.4711431702997","282.51","7","fallScene","true","","","","","82","",""
"","","","","","html-keyboard-response","281","1104223","0.0-22.0-1.9","662692c1abc4830626fccb23","6790928bebf0b969fc839b02","67982724adfe1ea64ac8b315","passed","","822","","","","","","","","","","","","","","f","yesOrNo","","","","7","","","lp","1000","","","82","501","227.2843295913261"
"","","","","","html-keyboard-response","282","1105786","0.0-22.0-0.10","662692c1abc4830626fccb23","6790928bebf0b969fc839b02","67982724adfe1ea64ac8b315","passed","","","","","","","","","","","","","","","","","ballFalling","604.4000000000001","575.4211431702997","266.76","12","fallScene","true","","","","","83","",""
"","","","","","html-keyboard-response","283","1106791","0.0-22.0-1.10","662692c1abc4830626fccb23","6790928bebf0b969fc839b02","67982724adfe1ea64ac8b315","passed","","707","","","","","","","","","","","","","","j","yesOrNo","","","","12","","","gt","1000","","","83","575.4211431702997","266.76"
"","","","","","html-keyboard-response","284","1108352","0.0-22.0-0.11","662692c1abc4830626fccb23","6790928bebf0b969fc839b02","67982724adfe1ea64ac8b315","passed","","","","","","","","","","","","","","","","","ballFalling","322.3","296.07114317029976","371.46","3","fallScene","true","","","","","84","",""
"","","","","","html-keyboard-response","285","1109357","0.0-22.0-1.11","662692c1abc4830626fccb23","6790928bebf0b969fc839b02","67982724adfe1ea64ac8b315","passed","","777","","","","","","","","","","","","","","f","yesOrNo","","","","3","","","mid","1000","","","84","321.3","300"
"","","","","","html-keyboard-response","286","1111153","0.0-22.0-0.12","662692c1abc4830626fccb23","6790928bebf0b969fc839b02","67982724adfe1ea64ac8b315","passed","","","","","","","","","","","","","","","","","ballFalling","322.3","308.07114317029976","253.89","2","fallScene","false","","","","","85","",""
"","","","","","html-keyboard-response","287","1112157","0.0-22.0-1.12","662692c1abc4830626fccb23","6790928bebf0b969fc839b02","67982724adfe1ea64ac8b315","passed","","868","","","","","","","","","","","","","","f","yesOrNo","","","","2","","","lp","1000","","","85","321.3","151"
"","","","","","html-keyboard-response","288","1113719","0.0-22.0-0.13","662692c1abc4830626fccb23","6790928bebf0b969fc839b02","67982724adfe1ea64ac8b315","passed","","","","","","","","","","","","","","","","","ballFalling","604.4000000000001","650.0211431702996","404.58000000000004","11","fallScene","true","","","","","86","",""
"","","","","","html-keyboard-response","289","1114724","0.0-22.0-1.13","662692c1abc4830626fccb23","6790928bebf0b969fc839b02","67982724adfe1ea64ac8b315","passed","","null","","","","","","","","","","","","","","null","yesOrNo","","","","11","","","gt","1000","","","86","650.0211431702996","404.58"
"","","","","","html-keyboard-response","290","1116735","0.0-22.0-0.14","662692c1abc4830626fccb23","6790928bebf0b969fc839b02","67982724adfe1ea64ac8b315","passed","","","","","","","","","","","","","","","","","ballFalling","604.4000000000001","596.8711431702998","394.5","10","fallScene","false","","","","","87","",""
