"success","timeout","failed_images","failed_audio","failed_video","trial_type","trial_index","time_elapsed","internal_node_id","subject_id","study_id","session_id","practiceTestResult","view_history","rt","width","height","webaudio","browser","browser_version","mobile","os","fullscreen","vsync_rate","webcam","microphone","url","stimulus","response","task","ball_X","obstacle_groundTruth_x","obstacle_groundTruth_y","stimulus_idx","trial_name","flipped","choice","timeLimit","question_order","comprehensionCheck","currentTrial","obstacle_choice_x","obstacle_choice_y"
"true","false","[]","[]","[]","preload","0","229","0.0-0.0","6628591817056f60a12cb03b","6790928bebf0b969fc839b02","679827a1f1349630785bfe3d","passed","","","","","","","","","","","","","","","","","","","","","","","","","","","","","",""
"","","","","","instructions","1","10381","0.0-1.0","6628591817056f60a12cb03b","6790928bebf0b969fc839b02","679827a1f1349630785bfe3d","passed","[{""page_index"":0,""viewing_time"":10151}]","10151","","","","","","","","","","","","","","","","","","","","","","","","","","","",""
"","","","","","browser-check","2","11368","0.0-2.0","6628591817056f60a12cb03b","6790928bebf0b969fc839b02","679827a1f1349630785bfe3d","passed","","","1366","607","true","chrome","132.0.0","false","Windows 10","true","61.14","true","true","","","","","","","","","","","","","","","","",""
"","","","","","external-html","3","41795","0.0-3.0","6628591817056f60a12cb03b","6790928bebf0b969fc839b02","679827a1f1349630785bfe3d","passed","","30182","","","","","","","","","","","","consent.html","","","","","","","","","","","","","","","",""
"true","","","","","fullscreen","4","44827","0.0-4.0","6628591817056f60a12cb03b","6790928bebf0b969fc839b02","679827a1f1349630785bfe3d","passed","","2727","","","","","","","","","","","","","","","","","","","","","","","","","","","",""
"","","","","","browser-check","5","45816","0.0-5.0","6628591817056f60a12cb03b","6790928bebf0b969fc839b02","679827a1f1349630785bfe3d","passed","","","1366","768","true","chrome","132.0.0","false","Windows 10","true","60.85","true","true","","","","","","","","","","","","","","","","",""
"","","","","","html-keyboard-response","6","49513","0.0-6.0","6628591817056f60a12cb03b","6790928bebf0b969fc839b02","679827a1f1349630785bfe3d","passed","","3695","","","","","","","","","","","","","<p><b>This experiment requires keyboard input.</b></p> 
        <p><b>To ensure your response will be recorded successfully, please press 'Space' to continue.</b></p>
        <p>If you can't proceed, you won't be able to complete this study.</p>
        <p></p> <!-- Blank line -->
        <p id=""blinking-text"" style=""font-weight; animation: blink 2s infinite;"">Press Space to continue</p>
        <style>
            @keyframes blink {
                50% {
                    opacity: 0;
                }
            }
        </style>"," ","","","","","","","","","","","","","",""
"","","","","","html-keyboard-response","7","52116","0.0-7.0","6628591817056f60a12cb03b","6790928bebf0b969fc839b02","679827a1f1349630785bfe3d","passed","","2601","","","","","","","","","","","","","<p><b>This experiment requires keyboard input.</b></p> 
        <p><b>To ensure your response will be recorded successfully, please press the 'f' key to continue.</b></p>
        <p>If you can't proceed, you won't be able to complete this study.</p>
        <p></p> <!-- Blank line -->
        <p id=""blinking-text"" style=""font-weight; animation: blink 2s infinite;"">Press f to continue</p>
        <style>
            @keyframes blink {
                50% {
                    opacity: 0;
                }
            }
        </style>","f","","","","","","","","","","","","","",""
"","","","","","html-keyboard-response","8","54099","0.0-8.0","6628591817056f60a12cb03b","6790928bebf0b969fc839b02","679827a1f1349630785bfe3d","passed","","1981","","","","","","","","","","","","","<p><b>This experiment requires keyboard input.</b></p> 
        <p><b>To ensure your response will be recorded successfully, please press the 'j' key to continue.</b></p>
        <p>If you can't proceed, you won't be able to complete this study.</p>
        <p></p> <!-- Blank line -->
        <p id=""blinking-text"" style=""font-weight; animation: blink 2s infinite;"">Press j to continue</p>
        <style>
            @keyframes blink {
                50% {
                    opacity: 0;
                }
            }
        </style>","j","","","","","","","","","","","","","",""
"","","","","","browser-check","9","55115","0.0-9.0","6628591817056f60a12cb03b","6790928bebf0b969fc839b02","679827a1f1349630785bfe3d","passed","","","1366","768","true","chrome","132.0.0","false","Windows 10","true","60.04","true","true","","","","","","","","","","","","","","","","",""
"","","","","","survey-text","10","59809","0.0-10.0","6628591817056f60a12cb03b","6790928bebf0b969fc839b02","679827a1f1349630785bfe3d","passed","","4689","","","","","","","","","","","","","","{""prolificID"":""6628591817056f60a12cb03b""}","","","","","","","","","","","","","",""
"","","","","","instructions","11","122408","0.0-11.0-0.0-0.0","6628591817056f60a12cb03b","6790928bebf0b969fc839b02","679827a1f1349630785bfe3d","passed","[{""page_index"":0,""viewing_time"":34462},{""page_index"":1,""viewing_time"":3557},{""page_index"":2,""viewing_time"":9064},{""page_index"":3,""viewing_time"":15515}]","62598","","","","","","","","","","","","","","","","","","","","","","","","","","","",""
"","","","","","html-keyboard-response","12","153807","0.0-11.0-0.0-1.0","6628591817056f60a12cb03b","6790928bebf0b969fc839b02","679827a1f1349630785bfe3d","passed","","30891","","","","","","","","","","","","","<br>Remember! After a ball falls, the screen will disappear, and you'll decide if the proposed position is where the hidden triangle was. <br>You will now practice this by watching a few videos and making decisions.<p>To respond:<br style=""margin-bottom: 5px; text-indent: -20px; padding-left: 20px;"">- Press <b style=""color: #12AD2B;"">J for Yes</b>, if you think the triangle is in the correct position.<br style=""margin-top: 0; text-indent: -20px; padding-left: 20px;"">- Press <b style=""color: orange;"">F for No</b>, if you think the triangle is not in the correct position.</p><p>In this practice round, there is no time limit. Focus on getting comfortable with the task first.<br>Press either J or F to begin your practice trials.</p><img src = ""YesOrNo_instruction.png"" style=""width: 65%;""></img>","f","","","","","","","","","","","","","",""
"","","","","","html-keyboard-response","13","155898","0.0-11.0-0.0-2.0-0.0","6628591817056f60a12cb03b","6790928bebf0b969fc839b02","679827a1f1349630785bfe3d","passed","","","","","","","","","","","","","","","","","ballFalling_prac","660","666","350","3","fallScene","false","","","","","","",""
"","","","","","html-keyboard-response","14","158350","0.0-11.0-0.0-2.0-1.0","6628591817056f60a12cb03b","6790928bebf0b969fc839b02","679827a1f1349630785bfe3d","passed","","2447","","","","","","","","","","","","","","f","yesOrNo_prac_noTimed","","","","3","","","wrong direction","NA","","","","",""
"","","","","","html-keyboard-response","15","159915","0.0-11.0-0.0-2.0-0.1","6628591817056f60a12cb03b","6790928bebf0b969fc839b02","679827a1f1349630785bfe3d","passed","","","","","","","","","","","","","","","","","ballFalling_prac","416","464","296","1","fallScene","false","","","","","","",""
"","","","","","html-keyboard-response","16","161803","0.0-11.0-0.0-2.0-1.1","6628591817056f60a12cb03b","6790928bebf0b969fc839b02","679827a1f1349630785bfe3d","passed","","1885","","","","","","","","","","","","","","j","yesOrNo_prac_noTimed","","","","1","","","gt","NA","","","","",""
"","","","","","html-keyboard-response","17","163386","0.0-11.0-0.0-2.0-0.2","6628591817056f60a12cb03b","6790928bebf0b969fc839b02","679827a1f1349630785bfe3d","passed","","","","","","","","","","","","","","","","","ballFalling_prac","441","414","302","5","fallScene","true","","","","","","",""
"","","","","","html-keyboard-response","18","164731","0.0-11.0-0.0-2.0-1.2","6628591817056f60a12cb03b","6790928bebf0b969fc839b02","679827a1f1349630785bfe3d","passed","","1341","","","","","","","","","","","","","","j","yesOrNo_prac_noTimed","","","","5","","","close gt","NA","","","","",""
"","","","","","instructions","19","218754","0.0-11.0-0.0-3.0","6628591817056f60a12cb03b","6790928bebf0b969fc839b02","679827a1f1349630785bfe3d","passed","[{""page_index"":0,""viewing_time"":39231},{""page_index"":1,""viewing_time"":14791}]","54023","","","","","","","","","","","","","","","","","","","","","","","","","","","",""
"","","","","","html-button-response","20","225980","0.0-11.0-0.0-4.0","6628591817056f60a12cb03b","6790928bebf0b969fc839b02","679827a1f1349630785bfe3d","passed","","6713","","","","","","","","","","","","","<p>To make sure you understood the task, we just have a <b>brief quiz</b> here.</p><p>If you need to review the instructions, click 'Previous'.</p><p>It's important to understand the task to do the study, so you have to pass the quiz to move to the study.</p>","1","","","","","","","","","","","","","",""
"","","","","","survey-multi-choice","21","249030","0.0-11.0-1.0-0.0","6628591817056f60a12cb03b","6790928bebf0b969fc839b02","679827a1f1349630785bfe3d","passed","","23047","","","","","","","","","","","","","","{""generalProcedure"":""Watch a video of a ball falling, some of it behind a gray screen. After each video, decide if the triangle is at the spot where the ball hit the triangle behind the screen. There is time limit for the response.""}","","","","","","","","","","[0]","","","",""
"","","","","","survey-multi-choice","22","254379","0.0-11.0-1.0-1.0","6628591817056f60a12cb03b","6790928bebf0b969fc839b02","679827a1f1349630785bfe3d","passed","","5348","","","","","","","","","","","","","","{""checkBallHitObstacle"":""Yes.""}","","","","","","","","","","[0]","","","",""
"","","","","","survey-multi-choice","23","261345","0.0-11.0-1.0-2.0","6628591817056f60a12cb03b","6790928bebf0b969fc839b02","679827a1f1349630785bfe3d","passed","","6965","","","","","","","","","","","","","","{""checkTriangleVisibility"":""No, the triangle is hidden behind the gray screen.""}","","","","","","","","","","[0]","","","",""
"","","","","","survey-multi-choice","24","272890","0.0-11.0-1.0-3.0","6628591817056f60a12cb03b","6790928bebf0b969fc839b02","679827a1f1349630785bfe3d","passed","","11543","","","","","","","","","","","","","","{""checkTimedResponse"":""Your response will not be recorded, and the trial will move to the next one.""}","","","","","","","","","","[0]","","","",""
"","","","","","survey-multi-choice","25","284424","0.0-11.0-1.0-4.0","6628591817056f60a12cb03b","6790928bebf0b969fc839b02","679827a1f1349630785bfe3d","passed","","11532","","","","","","","","","","","","","","{""checkTimeBlockNotice"":""At the beginning of each block.""}","","","","","","","","","","[0]","","","",""
"","","","","","survey-multi-choice","26","305389","0.0-11.0-1.0-5.0","6628591817056f60a12cb03b","6790928bebf0b969fc839b02","679827a1f1349630785bfe3d","passed","","20963","","","","","","","","","","","","","","{""checkTimeBlockSameness"":""Yes, the time limit is the same for all trials within a block.""}","","","","","","","","","","[0]","","","",""
"","","","","","survey-multi-choice","27","549619","0.0-11.0-1.0-6.0","6628591817056f60a12cb03b","6790928bebf0b969fc839b02","679827a1f1349630785bfe3d","passed","","244229","","","","","","","","","","","","","","{""checkTrianglePrecision"":""Yes. The proposed purple triangle is very close to the correct position, so I should choose 'Yes.'""}","","","","","","","","","","[0]","","","",""
"","","","","","html-button-response","28","552716","0.0-11.0-2.0-0.0","6628591817056f60a12cb03b","6790928bebf0b969fc839b02","679827a1f1349630785bfe3d","passed","","3096","","","","","","","","","","","","","<p>Oops! You did not pass the quiz.</p><p>You will now repeat the instructions and practice.</p>","0","","","","","","","","","","","failed","","",""
"","","","","","instructions","29","618971","0.0-11.1-0.1-0.1","6628591817056f60a12cb03b","6790928bebf0b969fc839b02","679827a1f1349630785bfe3d","passed","[{""page_index"":0,""viewing_time"":23901},{""page_index"":1,""viewing_time"":11860},{""page_index"":2,""viewing_time"":10553},{""page_index"":3,""viewing_time"":19940}]","66254","","","","","","","","","","","","","","","","","","","","","","","","","","","",""
"","","","","","html-keyboard-response","30","629221","0.0-11.1-0.1-1.1","6628591817056f60a12cb03b","6790928bebf0b969fc839b02","679827a1f1349630785bfe3d","passed","","9746","","","","","","","","","","","","","<br>Remember! After a ball falls, the screen will disappear, and you'll decide if the proposed position is where the hidden triangle was. <br>You will now practice this by watching a few videos and making decisions.<p>To respond:<br style=""margin-bottom: 5px; text-indent: -20px; padding-left: 20px;"">- Press <b style=""color: #12AD2B;"">J for Yes</b>, if you think the triangle is in the correct position.<br style=""margin-top: 0; text-indent: -20px; padding-left: 20px;"">- Press <b style=""color: orange;"">F for No</b>, if you think the triangle is not in the correct position.</p><p>In this practice round, there is no time limit. Focus on getting comfortable with the task first.<br>Press either J or F to begin your practice trials.</p><img src = ""YesOrNo_instruction.png"" style=""width: 65%;""></img>","j","","","","","","","","","","","","","",""
"","","","","","html-keyboard-response","31","631310","0.0-11.1-0.1-2.1-0.3","6628591817056f60a12cb03b","6790928bebf0b969fc839b02","679827a1f1349630785bfe3d","passed","","","","","","","","","","","","","","","","","ballFalling_prac","660","666","350","3","fallScene","false","","","","","","",""
"","","","","","html-keyboard-response","32","632038","0.0-11.1-0.1-2.1-1.3","6628591817056f60a12cb03b","6790928bebf0b969fc839b02","679827a1f1349630785bfe3d","passed","","725","","","","","","","","","","","","","","j","yesOrNo_prac_noTimed","","","","3","","","wrong direction","NA","","","","",""
"","","","","","html-keyboard-response","33","633593","0.0-11.1-0.1-2.1-0.4","6628591817056f60a12cb03b","6790928bebf0b969fc839b02","679827a1f1349630785bfe3d","passed","","","","","","","","","","","","","","","","","ballFalling_prac","416","464","296","1","fallScene","false","","","","","","",""
"","","","","","html-keyboard-response","34","642227","0.0-11.1-0.1-2.1-1.4","6628591817056f60a12cb03b","6790928bebf0b969fc839b02","679827a1f1349630785bfe3d","passed","","8631","","","","","","","","","","","","","","f","yesOrNo_prac_noTimed","","","","1","","","gt","NA","","","","",""
"","","","","","html-keyboard-response","35","643812","0.0-11.1-0.1-2.1-0.5","6628591817056f60a12cb03b","6790928bebf0b969fc839b02","679827a1f1349630785bfe3d","passed","","","","","","","","","","","","","","","","","ballFalling_prac","441","414","302","5","fallScene","true","","","","","","",""
"","","","","","html-keyboard-response","36","645161","0.0-11.1-0.1-2.1-1.5","6628591817056f60a12cb03b","6790928bebf0b969fc839b02","679827a1f1349630785bfe3d","passed","","1347","","","","","","","","","","","","","","j","yesOrNo_prac_noTimed","","","","5","","","close gt","NA","","","","",""
"","","","","","instructions","37","700854","0.0-11.1-0.1-3.1","6628591817056f60a12cb03b","6790928bebf0b969fc839b02","679827a1f1349630785bfe3d","passed","[{""page_index"":0,""viewing_time"":37040},{""page_index"":1,""viewing_time"":18652}]","55693","","","","","","","","","","","","","","","","","","","","","","","","","","","",""
"","","","","","html-button-response","38","704205","0.0-11.1-0.1-4.1","6628591817056f60a12cb03b","6790928bebf0b969fc839b02","679827a1f1349630785bfe3d","passed","","2846","","","","","","","","","","","","","<p>To make sure you understood the task, we just have a <b>brief quiz</b> here.</p><p>If you need to review the instructions, click 'Previous'.</p><p>It's important to understand the task to do the study, so you have to pass the quiz to move to the study.</p>","1","","","","","","","","","","","","","",""
"","","","","","survey-multi-choice","39","715836","0.0-11.1-1.1-0.1","6628591817056f60a12cb03b","6790928bebf0b969fc839b02","679827a1f1349630785bfe3d","passed","","11630","","","","","","","","","","","","","","{""generalProcedure"":""Watch a video of a ball falling, some of it behind a gray screen. After each video, decide if the triangle is at the spot where the ball hit the triangle behind the screen. There is time limit for the response.""}","","","","","","","","","","[0]","","","",""
"","","","","","survey-multi-choice","40","720254","0.0-11.1-1.1-1.1","6628591817056f60a12cb03b","6790928bebf0b969fc839b02","679827a1f1349630785bfe3d","passed","","4417","","","","","","","","","","","","","","{""checkBallHitObstacle"":""Yes.""}","","","","","","","","","","[0]","","","",""
"","","","","","survey-multi-choice","41","725431","0.0-11.1-1.1-2.1","6628591817056f60a12cb03b","6790928bebf0b969fc839b02","679827a1f1349630785bfe3d","passed","","5175","","","","","","","","","","","","","","{""checkTriangleVisibility"":""No, the triangle is hidden behind the gray screen.""}","","","","","","","","","","[0]","","","",""
"","","","","","survey-multi-choice","42","731457","0.0-11.1-1.1-3.1","6628591817056f60a12cb03b","6790928bebf0b969fc839b02","679827a1f1349630785bfe3d","passed","","6025","","","","","","","","","","","","","","{""checkTimedResponse"":""Your response will not be recorded, and the trial will move to the next one.""}","","","","","","","","","","[0]","","","",""
"","","","","","survey-multi-choice","43","750693","0.0-11.1-1.1-4.1","6628591817056f60a12cb03b","6790928bebf0b969fc839b02","679827a1f1349630785bfe3d","passed","","19235","","","","","","","","","","","","","","{""checkTimeBlockNotice"":""At the beginning of each block.""}","","","","","","","","","","[0]","","","",""
"","","","","","survey-multi-choice","44","760849","0.0-11.1-1.1-5.1","6628591817056f60a12cb03b","6790928bebf0b969fc839b02","679827a1f1349630785bfe3d","passed","","10154","","","","","","","","","","","","","","{""checkTimeBlockSameness"":""Yes, the time limit is the same for all trials within a block.""}","","","","","","","","","","[0]","","","",""
"","","","","","survey-multi-choice","45","775181","0.0-11.1-1.1-6.1","6628591817056f60a12cb03b","6790928bebf0b969fc839b02","679827a1f1349630785bfe3d","passed","","14330","","","","","","","","","","","","","","{""checkTrianglePrecision"":""No. The proposed purple triangle is not in the correct position because it doesn't match the location of the white triangle exactly.""}","","","","","","","","","","[0]","","","",""
"","","","","","instructions","46","824948","0.0-12.0","6628591817056f60a12cb03b","6790928bebf0b969fc839b02","679827a1f1349630785bfe3d","passed","[{""page_index"":0,""viewing_time"":9276},{""page_index"":1,""viewing_time"":21146},{""page_index"":2,""viewing_time"":4169},{""page_index"":3,""viewing_time"":2204},{""page_index"":2,""viewing_time"":5690},{""page_index"":3,""viewing_time"":7280}]","49766","","","","","","","","","","","","","","","","","","","","","","","","","","","",""
"","","","","","instructions","47","856426","0.0-13.0-0.0","6628591817056f60a12cb03b","6790928bebf0b969fc839b02","679827a1f1349630785bfe3d","passed","[{""page_index"":0,""viewing_time"":31477}]","31478","","","","","","","","","","","","","","","","","","","","","","","","","","","",""
"","","","","","html-keyboard-response","48","887505","0.0-13.0-1.0","6628591817056f60a12cb03b","6790928bebf0b969fc839b02","679827a1f1349630785bfe3d","passed","","31077","","","","","","","","","","","","","<p><span style=""font-size:40px;"">Practice BLOCK 1</span></p><p><span style=""font-size:25px;"">You have <b style=""color: #FF644F;""><strong>3 second(s)</strong></b> to respond to the following trials.</span><br></p><p id=""blinking-text"" style=""font-weight; animation: blink 2s infinite;"">Press Space to continue</p><style>
                    @keyframes blink {
                        50% {
                            opacity: 0;
                        }
                    }
                </style>"," ","","","","","","","","","","","","","",""
"","","","","","html-keyboard-response","49","889064","0.0-13.0-2.0-0.0","6628591817056f60a12cb03b","6790928bebf0b969fc839b02","679827a1f1349630785bfe3d","passed","","","","","","","","","","","","","","","","","ballFalling_prac","416","464","296","1","fallScene","false","","","","","","",""
"","","","","","html-keyboard-response","50","892072","0.0-13.0-2.0-1.0","6628591817056f60a12cb03b","6790928bebf0b969fc839b02","679827a1f1349630785bfe3d","passed","","2648","","","","","","","","","","","","","","f","yesOrNo_prac","","","","1","","","far gt","3000","","","","",""
"","","","","","html-keyboard-response","51","893648","0.0-13.0-2.0-0.1","6628591817056f60a12cb03b","6790928bebf0b969fc839b02","679827a1f1349630785bfe3d","passed","","","","","","","","","","","","","","","","","ballFalling_prac","660","610","263","4","fallScene","false","","","","","","",""
"","","","","","html-keyboard-response","52","896652","0.0-13.0-2.0-1.1","6628591817056f60a12cb03b","6790928bebf0b969fc839b02","679827a1f1349630785bfe3d","passed","","2734","","","","","","","","","","","","","","f","yesOrNo_prac","","","","4","","","gt","3000","","","","",""
"","","","","","html-keyboard-response","53","898214","0.0-13.0-2.0-0.2","6628591817056f60a12cb03b","6790928bebf0b969fc839b02","679827a1f1349630785bfe3d","passed","","","","","","","","","","","","","","","","","ballFalling_prac","584","536","296","1","fallScene","true","","","","","","",""
"","","","","","html-keyboard-response","54","901232","0.0-13.0-2.0-1.2","6628591817056f60a12cb03b","6790928bebf0b969fc839b02","679827a1f1349630785bfe3d","passed","","1355","","","","","","","","","","","","","","f","yesOrNo_prac","","","","1","","","close gt","3000","","","","",""
"","","","","","html-keyboard-response","55","907577","0.0-13.0-3.0","6628591817056f60a12cb03b","6790928bebf0b969fc839b02","679827a1f1349630785bfe3d","passed","","6344","","","","","","","","","","","","","<p><span style=""font-size:40px;"">Practice BLOCK 2</span></p><p><span style=""font-size:25px;"">You have <b style=""color: #FF644F;""><strong>1 second(s)</strong></b> to respond to the following trials.</span><br></p><p id=""blinking-text"" style=""font-weight; animation: blink 2s infinite;"">Press Space to continue</p><style>
                    @keyframes blink {
                        50% {
                            opacity: 0;
                        }
                    }
                </style>"," ","","","","","","","","","","","","","",""
"","","","","","html-keyboard-response","56","909146","0.0-13.0-4.0-0.0","6628591817056f60a12cb03b","6790928bebf0b969fc839b02","679827a1f1349630785bfe3d","passed","","","","","","","","","","","","","","","","","ballFalling_prac","441","500","317","6","fallScene","true","","","","","","",""
"","","","","","html-keyboard-response","57","910159","0.0-13.0-4.0-1.0","6628591817056f60a12cb03b","6790928bebf0b969fc839b02","679827a1f1349630785bfe3d","passed","","null","","","","","","","","","","","","","","null","yesOrNo_prac","","","","6","","","gt","1000","","","","",""
"","","","","","html-keyboard-response","58","912263","0.0-13.0-4.0-0.1","6628591817056f60a12cb03b","6790928bebf0b969fc839b02","679827a1f1349630785bfe3d","passed","","","","","","","","","","","","","","","","","ballFalling_prac","340","334","350","3","fallScene","true","","","","","","",""
"","","","","","html-keyboard-response","59","913266","0.0-13.0-4.0-1.1","6628591817056f60a12cb03b","6790928bebf0b969fc839b02","679827a1f1349630785bfe3d","passed","","599","","","","","","","","","","","","","","f","yesOrNo_prac","","","","3","","","close gt","1000","","","","",""
"","","","","","html-keyboard-response","60","914846","0.0-13.0-4.0-0.2","6628591817056f60a12cb03b","6790928bebf0b969fc839b02","679827a1f1349630785bfe3d","passed","","","","","","","","","","","","","","","","","ballFalling_prac","660","610","263","4","fallScene","false","","","","","","",""
"","","","","","html-keyboard-response","61","915858","0.0-13.0-4.0-1.2","6628591817056f60a12cb03b","6790928bebf0b969fc839b02","679827a1f1349630785bfe3d","passed","","925","","","","","","","","","","","","","","j","yesOrNo_prac","","","","4","","","far gt","1000","","","","",""
"","","","","","instructions","62","926625","0.0-13.0-5.0","6628591817056f60a12cb03b","6790928bebf0b969fc839b02","679827a1f1349630785bfe3d","passed","[{""page_index"":0,""viewing_time"":10766}]","10767","","","","","","","","","","","","","","","","","","","","","","","","","","","",""
"","","","","","html-keyboard-response","63","928907","0.0-13.0-6.0","6628591817056f60a12cb03b","6790928bebf0b969fc839b02","679827a1f1349630785bfe3d","passed","","2281","","","","","","","","","","","","","<p><span style=""font-size:40px;"">Practice Test BLOCK 1</span></p><p><span style=""font-size:25px;"">You have <b style=""color: #FF644F;""><strong>1 second(s)</strong></b> to respond to the following trials.</span><br></p><p id=""blinking-text"" style=""font-weight; animation: blink 2s infinite;"">Press Space to continue</p><style>
                    @keyframes blink {
                        50% {
                            opacity: 0;
                        }
                    }
                </style>"," ","","","","","","","","","","","","","",""
"","","","","","html-keyboard-response","64","930463","0.0-13.0-7.0-0.0","6628591817056f60a12cb03b","6790928bebf0b969fc839b02","679827a1f1349630785bfe3d","passed","","","","","","","","","","","","","","","","","ballFalling_prac","441","500","317","6","fallScene","true","","","","","","",""
"","","","","","html-keyboard-response","65","931469","0.0-13.0-7.0-1.0","6628591817056f60a12cb03b","6790928bebf0b969fc839b02","679827a1f1349630785bfe3d","passed","","574","","","","","","","","","","","","","","j","yesOrNo_prac","","","","6","","","close gt","1000","","","","",""
"","","","","","html-keyboard-response","66","933045","0.0-13.0-7.0-0.1","6628591817056f60a12cb03b","6790928bebf0b969fc839b02","679827a1f1349630785bfe3d","passed","","","","","","","","","","","","","","","","","ballFalling_prac","559","586","302","5","fallScene","false","","","","","","",""
"","","","","","html-keyboard-response","67","934051","0.0-13.0-7.0-1.1","6628591817056f60a12cb03b","6790928bebf0b969fc839b02","679827a1f1349630785bfe3d","passed","","774","","","","","","","","","","","","","","j","yesOrNo_prac","","","","5","","","gt","1000","","","","",""
"","","","","","html-keyboard-response","68","935628","0.0-13.0-7.0-0.2","6628591817056f60a12cb03b","6790928bebf0b969fc839b02","679827a1f1349630785bfe3d","passed","","","","","","","","","","","","","","","","","ballFalling_prac","340","390","263","4","fallScene","true","","","","","","",""
"","","","","","html-keyboard-response","69","936632","0.0-13.0-7.0-1.2","6628591817056f60a12cb03b","6790928bebf0b969fc839b02","679827a1f1349630785bfe3d","passed","","683","","","","","","","","","","","","","","j","yesOrNo_prac","","","","4","","","far gt","1000","","","","",""
"","","","","","html-keyboard-response","70","938522","0.0-13.0-8.0","6628591817056f60a12cb03b","6790928bebf0b969fc839b02","679827a1f1349630785bfe3d","passed","","1889","","","","","","","","","","","","","<p><span style=""font-size:40px;"">Practice Test BLOCK 2</span></p><p><span style=""font-size:25px;"">You have <b style=""color: #FF644F;""><strong>3 second(s)</strong></b> to respond to the following trials.</span><br></p><p id=""blinking-text"" style=""font-weight; animation: blink 2s infinite;"">Press Space to continue</p><style>
                    @keyframes blink {
                        50% {
                            opacity: 0;
                        }
                    }
                </style>"," ","","","","","","","","","","","","","",""
"","","","","","html-keyboard-response","71","940095","0.0-13.0-9.0-0.0","6628591817056f60a12cb03b","6790928bebf0b969fc839b02","679827a1f1349630785bfe3d","passed","","","","","","","","","","","","","","","","","ballFalling_prac","340","390","263","4","fallScene","true","","","","","","",""
"","","","","","html-keyboard-response","72","943105","0.0-13.0-9.0-1.0","6628591817056f60a12cb03b","6790928bebf0b969fc839b02","679827a1f1349630785bfe3d","passed","","849","","","","","","","","","","","","","","j","yesOrNo_prac","","","","4","","","close gt","3000","","","","",""
"","","","","","html-keyboard-response","73","944678","0.0-13.0-9.0-0.1","6628591817056f60a12cb03b","6790928bebf0b969fc839b02","679827a1f1349630785bfe3d","passed","","","","","","","","","","","","","","","","","ballFalling_prac","416","365","249","2","fallScene","false","","","","","","",""
"","","","","","html-keyboard-response","74","947689","0.0-13.0-9.0-1.1","6628591817056f60a12cb03b","6790928bebf0b969fc839b02","679827a1f1349630785bfe3d","passed","","1255","","","","","","","","","","","","","","j","yesOrNo_prac","","","","2","","","gt","3000","","","","",""
"","","","","","html-keyboard-response","75","949262","0.0-13.0-9.0-0.2","6628591817056f60a12cb03b","6790928bebf0b969fc839b02","679827a1f1349630785bfe3d","passed","","","","","","","","","","","","","","","","","ballFalling_prac","559","586","302","5","fallScene","false","","","","","","",""
"","","","","","html-keyboard-response","76","952269","0.0-13.0-9.0-1.2","6628591817056f60a12cb03b","6790928bebf0b969fc839b02","679827a1f1349630785bfe3d","passed","","1305","","","","","","","","","","","","","","f","yesOrNo_prac","","","","5","","","far gt","3000","","","","",""
"","","","","","instructions","77","960142","0.0-14.0","6628591817056f60a12cb03b","6790928bebf0b969fc839b02","679827a1f1349630785bfe3d","passed","[{""page_index"":0,""viewing_time"":7873}]","7873","","","","","","","","","","","","","","","","","","","","","","","","","","","",""
"","","","","","html-keyboard-response","78","964081","0.0-15.0","6628591817056f60a12cb03b","6790928bebf0b969fc839b02","679827a1f1349630785bfe3d","passed","","3938","","","","","","","","","","","","","<p><span style=""font-size:40px;"">BLOCK 1</span></p><p><span style=""font-size:25px;"">You have <b style=""color: #FF644F;""><strong>1 second(s)</strong></b> to respond to the following trials.</span><br></p><p></p> <!-- Blank line -->
                <p id=""blinking-text"" style=""font-weight; animation: blink 2s infinite;"">Press Space to continue</p>
                <style>
                    @keyframes blink {
                        50% {
                            opacity: 0;
                        }
                    }
                </style></p>"," ","","","","","","","","","","","","","",""
"","","","","","html-keyboard-response","79","965644","0.0-16.0-0.0","6628591817056f60a12cb03b","6790928bebf0b969fc839b02","679827a1f1349630785bfe3d","passed","","","","","","","","","","","","","","","","","ballFalling","322.3","379.3711431702997","245.25","1","fallScene","true","","","","","1","",""
"","","","","","html-keyboard-response","80","966661","0.0-16.0-1.0","6628591817056f60a12cb03b","6790928bebf0b969fc839b02","679827a1f1349630785bfe3d","passed","","null","","","","","","","","","","","","","","null","yesOrNo","","","","1","","","lp","1000","","","1","323.3","217.74551669457017"
"","","","","","html-keyboard-response","81","968227","0.0-16.0-0.1","6628591817056f60a12cb03b","6790928bebf0b969fc839b02","679827a1f1349630785bfe3d","passed","","","","","","","","","","","","","","","","","ballFalling","322.3","296.07114317029976","371.46","3","fallScene","true","","","","","2","",""
"","","","","","html-keyboard-response","82","969230","0.0-16.0-1.1","6628591817056f60a12cb03b","6790928bebf0b969fc839b02","679827a1f1349630785bfe3d","passed","","null","","","","","","","","","","","","","","null","yesOrNo","","","","3","","","lp","1000","","","2","321.3","287.3327096511259"
"","","","","","html-keyboard-response","83","971245","0.0-16.0-0.2","6628591817056f60a12cb03b","6790928bebf0b969fc839b02","679827a1f1349630785bfe3d","passed","","","","","","","","","","","","","","","","","ballFalling","604.4000000000001","596.8711431702998","394.5","10","fallScene","false","","","","","3","",""
"","","","","","html-keyboard-response","84","972249","0.0-16.0-1.2","6628591817056f60a12cb03b","6790928bebf0b969fc839b02","679827a1f1349630785bfe3d","passed","","958","","","","","","","","","","","","","","f","yesOrNo","","","","10","","","lp","1000","","","3","603.4000000000001","215.50214355555383"
"","","","","","html-keyboard-response","85","973910","0.0-16.0-0.3","6628591817056f60a12cb03b","6790928bebf0b969fc839b02","679827a1f1349630785bfe3d","passed","","","","","","","","","","","","","","","","","ballFalling","500","479.92114317029973","330.87","6","fallScene","true","","","","","4","",""
"","","","","","html-keyboard-response","86","974914","0.0-16.0-1.3","6628591817056f60a12cb03b","6790928bebf0b969fc839b02","679827a1f1349630785bfe3d","passed","","null","","","","","","","","","","","","","","null","yesOrNo","","","","6","","","gt","1000","","","4","479.9211431702998","330.87"
"","","","","","html-keyboard-response","87","976926","0.0-16.0-0.4","6628591817056f60a12cb03b","6790928bebf0b969fc839b02","679827a1f1349630785bfe3d","passed","","","","","","","","","","","","","","","","","ballFalling","500","510.8711431702997","369.03","8","fallScene","true","","","","","5","",""
"","","","","","html-keyboard-response","88","977937","0.0-16.0-1.4","6628591817056f60a12cb03b","6790928bebf0b969fc839b02","679827a1f1349630785bfe3d","passed","","985","","","","","","","","","","","","","","f","yesOrNo","","","","8","","","lp","1000","","","5","501","151"
"","","","","","html-keyboard-response","89","979494","0.0-16.0-0.5","6628591817056f60a12cb03b","6790928bebf0b969fc839b02","679827a1f1349630785bfe3d","passed","","","","","","","","","","","","","","","","","ballFalling","604.4000000000001","575.4211431702997","266.76","12","fallScene","true","","","","","6","",""
"","","","","","html-keyboard-response","90","980500","0.0-16.0-1.5","6628591817056f60a12cb03b","6790928bebf0b969fc839b02","679827a1f1349630785bfe3d","passed","","981","","","","","","","","","","","","","","f","yesOrNo","","","","12","","","lp","1000","","","6","603.4000000000001","151"
"","","","","","html-keyboard-response","91","982511","0.0-16.0-0.6","6628591817056f60a12cb03b","6790928bebf0b969fc839b02","679827a1f1349630785bfe3d","passed","","","","","","","","","","","","","","","","","ballFalling","500","510.8711431702997","369.03","8","fallScene","true","","","","","7","",""
"","","","","","html-keyboard-response","92","983517","0.0-16.0-1.6","6628591817056f60a12cb03b","6790928bebf0b969fc839b02","679827a1f1349630785bfe3d","passed","","946","","","","","","","","","","","","","","f","yesOrNo","","","","8","","","mid","1000","","","7","501","300"
"","","","","","html-keyboard-response","93","985073","0.0-16.0-0.7","6628591817056f60a12cb03b","6790928bebf0b969fc839b02","679827a1f1349630785bfe3d","passed","","","","","","","","","","","","","","","","","ballFalling","322.3","296.07114317029976","371.46","3","fallScene","true","","","","","8","",""
"","","","","","html-keyboard-response","94","986077","0.0-16.0-1.7","6628591817056f60a12cb03b","6790928bebf0b969fc839b02","679827a1f1349630785bfe3d","passed","","868","","","","","","","","","","","","","","f","yesOrNo","","","","3","","","lp","1000","","","8","321.3","287.3327096511259"
"","","","","","html-keyboard-response","95","988094","0.0-16.0-0.8","6628591817056f60a12cb03b","6790928bebf0b969fc839b02","679827a1f1349630785bfe3d","passed","","","","","","","","","","","","","","","","","ballFalling","604.4000000000001","596.8711431702998","394.5","10","fallScene","true","","","","","9","",""
"","","","","","html-keyboard-response","96","989109","0.0-16.0-1.8","6628591817056f60a12cb03b","6790928bebf0b969fc839b02","679827a1f1349630785bfe3d","passed","","null","","","","","","","","","","","","","","null","yesOrNo","","","","10","","","mid","1000","","","9","536.4288568297004","300"
"","","","","","html-keyboard-response","97","990606","0.0-16.0-0.9","6628591817056f60a12cb03b","6790928bebf0b969fc839b02","679827a1f1349630785bfe3d","passed","","","","","","","","","","","","","","","","","ballFalling","604.4000000000001","667.6211431702998","201.78","9","fallScene","true","","","","","10","",""
"","","","","","html-keyboard-response","98","991610","0.0-16.0-1.9","6628591817056f60a12cb03b","6790928bebf0b969fc839b02","679827a1f1349630785bfe3d","passed","","618","","","","","","","","","","","","","","j","yesOrNo","","","","9","","","mid","1000","","","10","605.4000000000001","300"
"","","","","","html-keyboard-response","99","993178","0.0-16.0-0.10","6628591817056f60a12cb03b","6790928bebf0b969fc839b02","679827a1f1349630785bfe3d","passed","","","","","","","","","","","","","","","","","ballFalling","322.3","356.42114317029973","357.87","4","fallScene","true","","","","","11","",""
"","","","","","html-keyboard-response","100","994188","0.0-16.0-1.10","6628591817056f60a12cb03b","6790928bebf0b969fc839b02","679827a1f1349630785bfe3d","passed","","754","","","","","","","","","","","","","","j","yesOrNo","","","","4","","","gt","1000","","","11","356.42114317029973","357.87"
"","","","","","html-keyboard-response","101","995744","0.0-16.0-0.11","6628591817056f60a12cb03b","6790928bebf0b969fc839b02","679827a1f1349630785bfe3d","passed","","","","","","","","","","","","","","","","","ballFalling","322.3","356.42114317029973","357.87","4","fallScene","false","","","","","12","",""
"","","","","","html-keyboard-response","102","996755","0.0-16.0-1.11","6628591817056f60a12cb03b","6790928bebf0b969fc839b02","679827a1f1349630785bfe3d","passed","","721","","","","","","","","","","","","","","f","yesOrNo","","","","4","","","lp","1000","","","12","323.3","297.4070551689986"
"","","","","","html-keyboard-response","103","998760","0.0-16.0-0.12","6628591817056f60a12cb03b","6790928bebf0b969fc839b02","679827a1f1349630785bfe3d","passed","","","","","","","","","","","","","","","","","ballFalling","604.4000000000001","596.8711431702998","394.5","10","fallScene","true","","","","","13","",""
"","","","","","html-keyboard-response","104","999770","0.0-16.0-1.12","6628591817056f60a12cb03b","6790928bebf0b969fc839b02","679827a1f1349630785bfe3d","passed","","865","","","","","","","","","","","","","","f","yesOrNo","","","","10","","","gt","1000","","","13","596.8711431702998","394.5"
"","","","","","html-keyboard-response","105","1001422","0.0-16.0-0.13","6628591817056f60a12cb03b","6790928bebf0b969fc839b02","679827a1f1349630785bfe3d","passed","","","","","","","","","","","","","","","","","ballFalling","500","479.92114317029973","330.87","6","fallScene","false","","","","","14","",""
"","","","","","html-keyboard-response","106","1002427","0.0-16.0-1.13","6628591817056f60a12cb03b","6790928bebf0b969fc839b02","679827a1f1349630785bfe3d","passed","","987","","","","","","","","","","","","","","f","yesOrNo","","","","6","","","lp","1000","","","14","499","189.92909825697632"
"","","","","","html-keyboard-response","107","1003993","0.0-16.0-0.14","6628591817056f60a12cb03b","6790928bebf0b969fc839b02","679827a1f1349630785bfe3d","passed","","","","","","","","","","","","","","","","","ballFalling","604.4000000000001","575.4211431702997","266.76","12","fallScene","false","","","","","15","",""
"","","","","","html-keyboard-response","108","1005003","0.0-16.0-1.14","6628591817056f60a12cb03b","6790928bebf0b969fc839b02","679827a1f1349630785bfe3d","passed","","556","","","","","","","","","","","","","","j","yesOrNo","","","","12","","","gt","1000","","","15","575.4211431702997","266.76"
"","","","","","html-keyboard-response","109","1006576","0.0-16.0-0.15","6628591817056f60a12cb03b","6790928bebf0b969fc839b02","679827a1f1349630785bfe3d","passed","","","","","","","","","","","","","","","","","ballFalling","500","553.4711431702997","282.51","7","fallScene","true","","","","","16","",""
"","","","","","html-keyboard-response","110","1007582","0.0-16.0-1.15","6628591817056f60a12cb03b","6790928bebf0b969fc839b02","679827a1f1349630785bfe3d","passed","","814","","","","","","","","","","","","","","f","yesOrNo","","","","7","","","gt","1000","","","16","553.4711431702997","282.51"
"","","","","","html-keyboard-response","111","1009242","0.0-16.0-0.16","6628591817056f60a12cb03b","6790928bebf0b969fc839b02","679827a1f1349630785bfe3d","passed","","","","","","","","","","","","","","","","","ballFalling","500","479.92114317029973","330.87","6","fallScene","false","","","","","17","",""
"","","","","","html-keyboard-response","112","1010260","0.0-16.0-1.16","6628591817056f60a12cb03b","6790928bebf0b969fc839b02","679827a1f1349630785bfe3d","passed","","750","","","","","","","","","","","","","","j","yesOrNo","","","","6","","","gt","1000","","","17","479.9211431702998","330.87"
"","","","","","html-keyboard-response","113","1012059","0.0-16.0-0.17","6628591817056f60a12cb03b","6790928bebf0b969fc839b02","679827a1f1349630785bfe3d","passed","","","","","","","","","","","","","","","","","ballFalling","322.3","308.07114317029976","253.89","2","fallScene","true","","","","","18","",""
"","","","","","html-keyboard-response","114","1013071","0.0-16.0-1.17","6628591817056f60a12cb03b","6790928bebf0b969fc839b02","679827a1f1349630785bfe3d","passed","","797","","","","","","","","","","","","","","j","yesOrNo","","","","2","","","gt","1000","","","18","308.07114317029976","253.89"
"","","","","","html-keyboard-response","115","1014725","0.0-16.0-0.18","6628591817056f60a12cb03b","6790928bebf0b969fc839b02","679827a1f1349630785bfe3d","passed","","","","","","","","","","","","","","","","","ballFalling","500","479.92114317029973","330.87","6","fallScene","false","","","","","19","",""
"","","","","","html-keyboard-response","116","1015747","0.0-16.0-1.18","6628591817056f60a12cb03b","6790928bebf0b969fc839b02","679827a1f1349630785bfe3d","passed","","967","","","","","","","","","","","","","","j","yesOrNo","","","","6","","","mid","1000","","","19","499","300"
"","","","","","html-keyboard-response","117","1017541","0.0-16.0-0.19","6628591817056f60a12cb03b","6790928bebf0b969fc839b02","679827a1f1349630785bfe3d","passed","","","","","","","","","","","","","","","","","ballFalling","322.3","308.07114317029976","253.89","2","fallScene","false","","","","","20","",""
"","","","","","html-keyboard-response","118","1018548","0.0-16.0-1.19","6628591817056f60a12cb03b","6790928bebf0b969fc839b02","679827a1f1349630785bfe3d","passed","","null","","","","","","","","","","","","","","null","yesOrNo","","","","2","","","gt","1000","","","20","308.07114317029976","253.89"
"","","","","","html-keyboard-response","119","1020042","0.0-16.0-0.20","6628591817056f60a12cb03b","6790928bebf0b969fc839b02","679827a1f1349630785bfe3d","passed","","","","","","","","","","","","","","","","","ballFalling","604.4000000000001","667.6211431702998","201.78","9","fallScene","true","","","","","21","",""
"","","","","","html-keyboard-response","120","1021052","0.0-16.0-1.20","6628591817056f60a12cb03b","6790928bebf0b969fc839b02","679827a1f1349630785bfe3d","passed","","948","","","","","","","","","","","","","","f","yesOrNo","","","","9","","","lp","1000","","","21","605.4000000000001","151"
"","","","","","html-keyboard-response","121","1023059","0.0-16.0-0.21","6628591817056f60a12cb03b","6790928bebf0b969fc839b02","679827a1f1349630785bfe3d","passed","","","","","","","","","","","","","","","","","ballFalling","500","510.8711431702997","369.03","8","fallScene","false","","","","","22","",""
"","","","","","html-keyboard-response","122","1024063","0.0-16.0-1.21","6628591817056f60a12cb03b","6790928bebf0b969fc839b02","679827a1f1349630785bfe3d","passed","","998","","","","","","","","","","","","","","f","yesOrNo","","","","8","","","lp","1000","","","22","501","151"
"","","","","","html-keyboard-response","123","1025859","0.0-16.0-0.22","6628591817056f60a12cb03b","6790928bebf0b969fc839b02","679827a1f1349630785bfe3d","passed","","","","","","","","","","","","","","","","","ballFalling","322.3","308.07114317029976","253.89","2","fallScene","true","","","","","23","",""
"","","","","","html-keyboard-response","124","1026863","0.0-16.0-1.22","6628591817056f60a12cb03b","6790928bebf0b969fc839b02","679827a1f1349630785bfe3d","passed","","832","","","","","","","","","","","","","","j","yesOrNo","","","","2","","","lp","1000","","","23","321.3","151"
"","","","","","html-keyboard-response","125","1028424","0.0-16.0-0.23","6628591817056f60a12cb03b","6790928bebf0b969fc839b02","679827a1f1349630785bfe3d","passed","","","","","","","","","","","","","","","","","ballFalling","322.3","356.42114317029973","357.87","4","fallScene","false","","","","","24","",""
"","","","","","html-keyboard-response","126","1029433","0.0-16.0-1.23","6628591817056f60a12cb03b","6790928bebf0b969fc839b02","679827a1f1349630785bfe3d","passed","","899","","","","","","","","","","","","","","j","yesOrNo","","","","4","","","lp","1000","","","24","323.3","297.4070551689986"
"","","","","","html-keyboard-response","127","1030938","0.0-17.0","6628591817056f60a12cb03b","6790928bebf0b969fc839b02","679827a1f1349630785bfe3d","passed","","1504","","","","","","","","","","","","","<p><span style=""font-size:40px;"">BLOCK 2</span></p><p><span style=""font-size:25px;"">You have <b style=""color: #FF644F;""><strong>3 second(s)</strong></b> to respond to the following trials.</span><br></p><p></p> <!-- Blank line -->
                <p id=""blinking-text"" style=""font-weight; animation: blink 2s infinite;"">Press Space to continue</p>
                <style>
                    @keyframes blink {
                        50% {
                            opacity: 0;
                        }
                    }
                </style></p>"," ","","","","","","","","","","","","","",""
"","","","","","html-keyboard-response","128","1032941","0.0-18.0-0.0","6628591817056f60a12cb03b","6790928bebf0b969fc839b02","679827a1f1349630785bfe3d","passed","","","","","","","","","","","","","","","","","ballFalling","500","510.8711431702997","369.03","8","fallScene","true","","","","","25","",""
"","","","","","html-keyboard-response","129","1035951","0.0-18.0-1.0","6628591817056f60a12cb03b","6790928bebf0b969fc839b02","679827a1f1349630785bfe3d","passed","","1024","","","","","","","","","","","","","","j","yesOrNo","","","","8","","","gt","3000","","","25","510.8711431702997","369.03"
"","","","","","html-keyboard-response","130","1037957","0.0-18.0-0.1","6628591817056f60a12cb03b","6790928bebf0b969fc839b02","679827a1f1349630785bfe3d","passed","","","","","","","","","","","","","","","","","ballFalling","500","510.8711431702997","369.03","8","fallScene","true","","","","","26","",""
"","","","","","html-keyboard-response","131","1040969","0.0-18.0-1.1","6628591817056f60a12cb03b","6790928bebf0b969fc839b02","679827a1f1349630785bfe3d","passed","","966","","","","","","","","","","","","","","f","yesOrNo","","","","8","","","mid","3000","","","26","501","300"
"","","","","","html-keyboard-response","132","1042524","0.0-18.0-0.2","6628591817056f60a12cb03b","6790928bebf0b969fc839b02","679827a1f1349630785bfe3d","passed","","","","","","","","","","","","","","","","","ballFalling","322.3","296.07114317029976","371.46","3","fallScene","true","","","","","27","",""
"","","","","","html-keyboard-response","133","1045530","0.0-18.0-1.2","6628591817056f60a12cb03b","6790928bebf0b969fc839b02","679827a1f1349630785bfe3d","passed","","1082","","","","","","","","","","","","","","j","yesOrNo","","","","3","","","mid","3000","","","27","321.3","300"
"","","","","","html-keyboard-response","134","1047188","0.0-18.0-0.3","6628591817056f60a12cb03b","6790928bebf0b969fc839b02","679827a1f1349630785bfe3d","passed","","","","","","","","","","","","","","","","","ballFalling","500","479.92114317029973","330.87","6","fallScene","true","","","","","28","",""
"","","","","","html-keyboard-response","135","1050191","0.0-18.0-1.3","6628591817056f60a12cb03b","6790928bebf0b969fc839b02","679827a1f1349630785bfe3d","passed","","670","","","","","","","","","","","","","","j","yesOrNo","","","","6","","","lp","3000","","","28","499","189.92909825697632"
"","","","","","html-keyboard-response","136","1051775","0.0-18.0-0.4","6628591817056f60a12cb03b","6790928bebf0b969fc839b02","679827a1f1349630785bfe3d","passed","","","","","","","","","","","","","","","","","ballFalling","500","553.4711431702997","282.51","7","fallScene","false","","","","","29","",""
"","","","","","html-keyboard-response","137","1054784","0.0-18.0-1.4","6628591817056f60a12cb03b","6790928bebf0b969fc839b02","679827a1f1349630785bfe3d","passed","","963","","","","","","","","","","","","","","j","yesOrNo","","","","7","","","mid","3000","","","29","501","300"
"","","","","","html-keyboard-response","138","1056574","0.0-18.0-0.5","6628591817056f60a12cb03b","6790928bebf0b969fc839b02","679827a1f1349630785bfe3d","passed","","","","","","","","","","","","","","","","","ballFalling","322.3","308.07114317029976","253.89","2","fallScene","true","","","","","30","",""
"","","","","","html-keyboard-response","139","1059577","0.0-18.0-1.5","6628591817056f60a12cb03b","6790928bebf0b969fc839b02","679827a1f1349630785bfe3d","passed","","1615","","","","","","","","","","","","","","j","yesOrNo","","","","2","","","gt","3000","","","30","308.07114317029976","253.89"
"","","","","","html-keyboard-response","140","1061140","0.0-18.0-0.6","6628591817056f60a12cb03b","6790928bebf0b969fc839b02","679827a1f1349630785bfe3d","passed","","","","","","","","","","","","","","","","","ballFalling","604.4000000000001","575.4211431702997","266.76","12","fallScene","false","","","","","31","",""
"","","","","","html-keyboard-response","141","1064149","0.0-18.0-1.6","6628591817056f60a12cb03b","6790928bebf0b969fc839b02","679827a1f1349630785bfe3d","passed","","1335","","","","","","","","","","","","","","j","yesOrNo","","","","12","","","gt","3000","","","31","575.4211431702997","266.76"
"","","","","","html-keyboard-response","142","1065702","0.0-18.0-0.7","6628591817056f60a12cb03b","6790928bebf0b969fc839b02","679827a1f1349630785bfe3d","passed","","","","","","","","","","","","","","","","","ballFalling","500","453.67114317029973","210.33","5","fallScene","false","","","","","32","",""
"","","","","","html-keyboard-response","143","1068708","0.0-18.0-1.7","6628591817056f60a12cb03b","6790928bebf0b969fc839b02","679827a1f1349630785bfe3d","passed","","1185","","","","","","","","","","","","","","j","yesOrNo","","","","5","","","mid","3000","","","32","499","300"
"","","","","","html-keyboard-response","144","1070273","0.0-18.0-0.8","6628591817056f60a12cb03b","6790928bebf0b969fc839b02","679827a1f1349630785bfe3d","passed","","","","","","","","","","","","","","","","","ballFalling","604.4000000000001","575.4211431702997","266.76","12","fallScene","false","","","","","33","",""
"","","","","","html-keyboard-response","145","1073290","0.0-18.0-1.8","6628591817056f60a12cb03b","6790928bebf0b969fc839b02","679827a1f1349630785bfe3d","passed","","1248","","","","","","","","","","","","","","f","yesOrNo","","","","12","","","lp","3000","","","33","603.4000000000001","151"
"","","","","","html-keyboard-response","146","1075306","0.0-18.0-0.9","6628591817056f60a12cb03b","6790928bebf0b969fc839b02","679827a1f1349630785bfe3d","passed","","","","","","","","","","","","","","","","","ballFalling","604.4000000000001","596.8711431702998","394.5","10","fallScene","true","","","","","34","",""
"","","","","","html-keyboard-response","147","1078311","0.0-18.0-1.9","6628591817056f60a12cb03b","6790928bebf0b969fc839b02","679827a1f1349630785bfe3d","passed","","1449","","","","","","","","","","","","","","f","yesOrNo","","","","10","","","mid","3000","","","34","536.4288568297004","300"
"","","","","","html-keyboard-response","148","1079805","0.0-18.0-0.10","6628591817056f60a12cb03b","6790928bebf0b969fc839b02","679827a1f1349630785bfe3d","passed","","","","","","","","","","","","","","","","","ballFalling","604.4000000000001","667.6211431702998","201.78","9","fallScene","false","","","","","35","",""
"","","","","","html-keyboard-response","149","1082818","0.0-18.0-1.10","6628591817056f60a12cb03b","6790928bebf0b969fc839b02","679827a1f1349630785bfe3d","passed","","1973","","","","","","","","","","","","","","f","yesOrNo","","","","9","","","mid","3000","","","35","605.4000000000001","300"
"","","","","","html-keyboard-response","150","1084372","0.0-18.0-0.11","6628591817056f60a12cb03b","6790928bebf0b969fc839b02","679827a1f1349630785bfe3d","passed","","","","","","","","","","","","","","","","","ballFalling","322.3","379.3711431702997","245.25","1","fallScene","false","","","","","36","",""
"","","","","","html-keyboard-response","151","1087382","0.0-18.0-1.11","6628591817056f60a12cb03b","6790928bebf0b969fc839b02","679827a1f1349630785bfe3d","passed","","1748","","","","","","","","","","","","","","j","yesOrNo","","","","1","","","mid","3000","","","36","390.27114317029975","300"
"","","","","","html-keyboard-response","152","1089039","0.0-18.0-0.12","6628591817056f60a12cb03b","6790928bebf0b969fc839b02","679827a1f1349630785bfe3d","passed","","","","","","","","","","","","","","","","","ballFalling","500","479.92114317029973","330.87","6","fallScene","true","","","","","37","",""
"","","","","","html-keyboard-response","153","1092046","0.0-18.0-1.12","6628591817056f60a12cb03b","6790928bebf0b969fc839b02","679827a1f1349630785bfe3d","passed","","1703","","","","","","","","","","","","","","f","yesOrNo","","","","6","","","lp","3000","","","37","499","189.92909825697632"
"","","","","","html-keyboard-response","154","1093705","0.0-18.0-0.13","6628591817056f60a12cb03b","6790928bebf0b969fc839b02","679827a1f1349630785bfe3d","passed","","","","","","","","","","","","","","","","","ballFalling","500","479.92114317029973","330.87","6","fallScene","true","","","","","38","",""
"","","","","","html-keyboard-response","155","1096723","0.0-18.0-1.13","6628591817056f60a12cb03b","6790928bebf0b969fc839b02","679827a1f1349630785bfe3d","passed","","1881","","","","","","","","","","","","","","j","yesOrNo","","","","6","","","gt","3000","","","38","479.9211431702998","330.87"
"","","","","","html-keyboard-response","156","1098289","0.0-18.0-0.14","6628591817056f60a12cb03b","6790928bebf0b969fc839b02","679827a1f1349630785bfe3d","passed","","","","","","","","","","","","","","","","","ballFalling","322.3","296.07114317029976","371.46","3","fallScene","true","","","","","39","",""
"","","","","","html-keyboard-response","157","1101299","0.0-18.0-1.14","6628591817056f60a12cb03b","6790928bebf0b969fc839b02","679827a1f1349630785bfe3d","passed","","1001","","","","","","","","","","","","","","j","yesOrNo","","","","3","","","gt","3000","","","39","296.07114317029976","371.46"
"","","","","","html-keyboard-response","158","1102854","0.0-18.0-0.15","6628591817056f60a12cb03b","6790928bebf0b969fc839b02","679827a1f1349630785bfe3d","passed","","","","","","","","","","","","","","","","","ballFalling","322.3","296.07114317029976","371.46","3","fallScene","true","","","","","40","",""
"","","","","","html-keyboard-response","159","1105856","0.0-18.0-1.15","6628591817056f60a12cb03b","6790928bebf0b969fc839b02","679827a1f1349630785bfe3d","passed","","1266","","","","","","","","","","","","","","j","yesOrNo","","","","3","","","mid","3000","","","40","321.3","300"
"","","","","","html-keyboard-response","160","1107356","0.0-18.0-0.16","6628591817056f60a12cb03b","6790928bebf0b969fc839b02","679827a1f1349630785bfe3d","passed","","","","","","","","","","","","","","","","","ballFalling","604.4000000000001","667.6211431702998","201.78","9","fallScene","true","","","","","41","",""
"","","","","","html-keyboard-response","161","1110372","0.0-18.0-1.16","6628591817056f60a12cb03b","6790928bebf0b969fc839b02","679827a1f1349630785bfe3d","passed","","1463","","","","","","","","","","","","","","j","yesOrNo","","","","9","","","lp","3000","","","41","605.4000000000001","151"
"","","","","","html-keyboard-response","162","1111955","0.0-18.0-0.17","6628591817056f60a12cb03b","6790928bebf0b969fc839b02","679827a1f1349630785bfe3d","passed","","","","","","","","","","","","","","","","","ballFalling","500","553.4711431702997","282.51","7","fallScene","true","","","","","42","",""
"","","","","","html-keyboard-response","163","1114961","0.0-18.0-1.17","6628591817056f60a12cb03b","6790928bebf0b969fc839b02","679827a1f1349630785bfe3d","passed","","1035","","","","","","","","","","","","","","j","yesOrNo","","","","7","","","lp","3000","","","42","501","227.2843295913261"
"","","","","","html-keyboard-response","164","1116972","0.0-18.0-0.18","6628591817056f60a12cb03b","6790928bebf0b969fc839b02","679827a1f1349630785bfe3d","passed","","","","","","","","","","","","","","","","","ballFalling","604.4000000000001","596.8711431702998","394.5","10","fallScene","false","","","","","43","",""
"","","","","","html-keyboard-response","165","1119984","0.0-18.0-1.18","6628591817056f60a12cb03b","6790928bebf0b969fc839b02","679827a1f1349630785bfe3d","passed","","906","","","","","","","","","","","","","","j","yesOrNo","","","","10","","","lp","3000","","","43","603.4000000000001","215.50214355555383"
"","","","","","html-keyboard-response","166","1121538","0.0-18.0-0.19","6628591817056f60a12cb03b","6790928bebf0b969fc839b02","679827a1f1349630785bfe3d","passed","","","","","","","","","","","","","","","","","ballFalling","322.3","356.42114317029973","357.87","4","fallScene","false","","","","","44","",""
"","","","","","html-keyboard-response","167","1124549","0.0-18.0-1.19","6628591817056f60a12cb03b","6790928bebf0b969fc839b02","679827a1f1349630785bfe3d","passed","","2393","","","","","","","","","","","","","","j","yesOrNo","","","","4","","","gt","3000","","","44","356.42114317029973","357.87"
"","","","","","html-keyboard-response","168","1126037","0.0-18.0-0.20","6628591817056f60a12cb03b","6790928bebf0b969fc839b02","679827a1f1349630785bfe3d","passed","","","","","","","","","","","","","","","","","ballFalling","604.4000000000001","667.6211431702998","201.78","9","fallScene","true","","","","","45","",""
"","","","","","html-keyboard-response","169","1129049","0.0-18.0-1.20","6628591817056f60a12cb03b","6790928bebf0b969fc839b02","679827a1f1349630785bfe3d","passed","","1426","","","","","","","","","","","","","","j","yesOrNo","","","","9","","","lp","3000","","","45","605.4000000000001","151"
"","","","","","html-keyboard-response","170","1130604","0.0-18.0-0.21","6628591817056f60a12cb03b","6790928bebf0b969fc839b02","679827a1f1349630785bfe3d","passed","","","","","","","","","","","","","","","","","ballFalling","604.4000000000001","650.0211431702996","404.58000000000004","11","fallScene","true","","","","","46","",""
"","","","","","html-keyboard-response","171","1133614","0.0-18.0-1.21","6628591817056f60a12cb03b","6790928bebf0b969fc839b02","679827a1f1349630785bfe3d","passed","","2123","","","","","","","","","","","","","","j","yesOrNo","","","","11","","","gt","3000","","","46","650.0211431702996","404.58"
"","","","","","html-keyboard-response","172","1135169","0.0-18.0-0.22","6628591817056f60a12cb03b","6790928bebf0b969fc839b02","679827a1f1349630785bfe3d","passed","","","","","","","","","","","","","","","","","ballFalling","604.4000000000001","650.0211431702996","404.58000000000004","11","fallScene","false","","","","","47","",""
"","","","","","html-keyboard-response","173","1138177","0.0-18.0-1.22","6628591817056f60a12cb03b","6790928bebf0b969fc839b02","679827a1f1349630785bfe3d","passed","","739","","","","","","","","","","","","","","j","yesOrNo","","","","11","","","lp","3000","","","47","605.4000000000001","372.6340973215488"
"","","","","","html-keyboard-response","174","1139737","0.0-18.0-0.23","6628591817056f60a12cb03b","6790928bebf0b969fc839b02","679827a1f1349630785bfe3d","passed","","","","","","","","","","","","","","","","","ballFalling","500","453.67114317029973","210.33","5","fallScene","false","","","","","48","",""
"","","","","","html-keyboard-response","175","1142746","0.0-18.0-1.23","6628591817056f60a12cb03b","6790928bebf0b969fc839b02","679827a1f1349630785bfe3d","passed","","1541","","","","","","","","","","","","","","f","yesOrNo","","","","5","","","mid","3000","","","48","499","300"
"","","","","","html-keyboard-response","176","1144512","0.0-19.0","6628591817056f60a12cb03b","6790928bebf0b969fc839b02","679827a1f1349630785bfe3d","passed","","1765","","","","","","","","","","","","","<p><span style=""font-size:40px;"">BLOCK 3</span></p><p><span style=""font-size:25px;"">You have <b style=""color: #FF644F;""><strong>3 second(s)</strong></b> to respond to the following trials.</span><br></p><p></p> <!-- Blank line -->
                <p id=""blinking-text"" style=""font-weight; animation: blink 2s infinite;"">Press Space to continue</p>
                <style>
                    @keyframes blink {
                        50% {
                            opacity: 0;
                        }
                    }
                </style></p>"," ","","","","","","","","","","","","","",""
"","","","","","html-keyboard-response","177","1146070","0.0-20.0-0.0","6628591817056f60a12cb03b","6790928bebf0b969fc839b02","679827a1f1349630785bfe3d","passed","","","","","","","","","","","","","","","","","ballFalling","322.3","296.07114317029976","371.46","3","fallScene","false","","","","","49","",""
"","","","","","html-keyboard-response","178","1149081","0.0-20.0-1.0","6628591817056f60a12cb03b","6790928bebf0b969fc839b02","679827a1f1349630785bfe3d","passed","","1005","","","","","","","","","","","","","","j","yesOrNo","","","","3","","","lp","3000","","","49","321.3","287.3327096511259"
"","","","","","html-keyboard-response","179","1151086","0.0-20.0-0.1","6628591817056f60a12cb03b","6790928bebf0b969fc839b02","679827a1f1349630785bfe3d","passed","","","","","","","","","","","","","","","","","ballFalling","500","510.8711431702997","369.03","8","fallScene","false","","","","","50","",""
"","","","","","html-keyboard-response","180","1154098","0.0-20.0-1.1","6628591817056f60a12cb03b","6790928bebf0b969fc839b02","679827a1f1349630785bfe3d","passed","","832","","","","","","","","","","","","","","j","yesOrNo","","","","8","","","lp","3000","","","50","501","151"
"","","","","","html-keyboard-response","181","1155752","0.0-20.0-0.2","6628591817056f60a12cb03b","6790928bebf0b969fc839b02","679827a1f1349630785bfe3d","passed","","","","","","","","","","","","","","","","","ballFalling","500","479.92114317029973","330.87","6","fallScene","true","","","","","51","",""
"","","","","","html-keyboard-response","182","1158761","0.0-20.0-1.2","6628591817056f60a12cb03b","6790928bebf0b969fc839b02","679827a1f1349630785bfe3d","passed","","718","","","","","","","","","","","","","","j","yesOrNo","","","","6","","","gt","3000","","","51","479.9211431702998","330.87"
"","","","","","html-keyboard-response","183","1160418","0.0-20.0-0.3","6628591817056f60a12cb03b","6790928bebf0b969fc839b02","679827a1f1349630785bfe3d","passed","","","","","","","","","","","","","","","","","ballFalling","500","479.92114317029973","330.87","6","fallScene","false","","","","","52","",""
"","","","","","html-keyboard-response","184","1163424","0.0-20.0-1.3","6628591817056f60a12cb03b","6790928bebf0b969fc839b02","679827a1f1349630785bfe3d","passed","","2052","","","","","","","","","","","","","","j","yesOrNo","","","","6","","","mid","3000","","","52","499","300"
"","","","","","html-keyboard-response","185","1164919","0.0-20.0-0.4","6628591817056f60a12cb03b","6790928bebf0b969fc839b02","679827a1f1349630785bfe3d","passed","","","","","","","","","","","","","","","","","ballFalling","604.4000000000001","667.6211431702998","201.78","9","fallScene","false","","","","","53","",""
"","","","","","html-keyboard-response","186","1167927","0.0-20.0-1.4","6628591817056f60a12cb03b","6790928bebf0b969fc839b02","679827a1f1349630785bfe3d","passed","","830","","","","","","","","","","","","","","j","yesOrNo","","","","9","","","mid","3000","","","53","605.4000000000001","300"
"","","","","","html-keyboard-response","187","1169481","0.0-20.0-0.5","6628591817056f60a12cb03b","6790928bebf0b969fc839b02","679827a1f1349630785bfe3d","passed","","","","","","","","","","","","","","","","","ballFalling","604.4000000000001","575.4211431702997","266.76","12","fallScene","false","","","","","54","",""
"","","","","","html-keyboard-response","188","1172485","0.0-20.0-1.5","6628591817056f60a12cb03b","6790928bebf0b969fc839b02","679827a1f1349630785bfe3d","passed","","1404","","","","","","","","","","","","","","f","yesOrNo","","","","12","","","lp","3000","","","54","603.4000000000001","151"
"","","","","","html-keyboard-response","189","1174052","0.0-20.0-0.6","6628591817056f60a12cb03b","6790928bebf0b969fc839b02","679827a1f1349630785bfe3d","passed","","","","","","","","","","","","","","","","","ballFalling","604.4000000000001","575.4211431702997","266.76","12","fallScene","false","","","","","55","",""
"","","","","","html-keyboard-response","190","1177059","0.0-20.0-1.6","6628591817056f60a12cb03b","6790928bebf0b969fc839b02","679827a1f1349630785bfe3d","passed","","2132","","","","","","","","","","","","","","f","yesOrNo","","","","12","","","mid","3000","","","55","536.4288568297004","300"
"","","","","","html-keyboard-response","191","1178630","0.0-20.0-0.7","6628591817056f60a12cb03b","6790928bebf0b969fc839b02","679827a1f1349630785bfe3d","passed","","","","","","","","","","","","","","","","","ballFalling","500","553.4711431702997","282.51","7","fallScene","true","","","","","56","",""
"","","","","","html-keyboard-response","192","1181637","0.0-20.0-1.7","6628591817056f60a12cb03b","6790928bebf0b969fc839b02","679827a1f1349630785bfe3d","passed","","2311","","","","","","","","","","","","","","f","yesOrNo","","","","7","","","mid","3000","","","56","501","300"
"","","","","","html-keyboard-response","193","1183197","0.0-20.0-0.8","6628591817056f60a12cb03b","6790928bebf0b969fc839b02","679827a1f1349630785bfe3d","passed","","","","","","","","","","","","","","","","","ballFalling","604.4000000000001","575.4211431702997","266.76","12","fallScene","false","","","","","57","",""
"","","","","","html-keyboard-response","194","1186202","0.0-20.0-1.8","6628591817056f60a12cb03b","6790928bebf0b969fc839b02","679827a1f1349630785bfe3d","passed","","846","","","","","","","","","","","","","","j","yesOrNo","","","","12","","","gt","3000","","","57","575.4211431702997","266.76"
"","","","","","html-keyboard-response","195","1187768","0.0-20.0-0.9","6628591817056f60a12cb03b","6790928bebf0b969fc839b02","679827a1f1349630785bfe3d","passed","","","","","","","","","","","","","","","","","ballFalling","604.4000000000001","650.0211431702996","404.58000000000004","11","fallScene","false","","","","","58","",""
"","","","","","html-keyboard-response","196","1190772","0.0-20.0-1.9","6628591817056f60a12cb03b","6790928bebf0b969fc839b02","679827a1f1349630785bfe3d","passed","","1051","","","","","","","","","","","","","","f","yesOrNo","","","","11","","","mid","3000","","","58","605.4000000000001","300"
"","","","","","html-keyboard-response","197","1192334","0.0-20.0-0.10","6628591817056f60a12cb03b","6790928bebf0b969fc839b02","679827a1f1349630785bfe3d","passed","","","","","","","","","","","","","","","","","ballFalling","604.4000000000001","650.0211431702996","404.58000000000004","11","fallScene","true","","","","","59","",""
"","","","","","html-keyboard-response","198","1195352","0.0-20.0-1.10","6628591817056f60a12cb03b","6790928bebf0b969fc839b02","679827a1f1349630785bfe3d","passed","","1748","","","","","","","","","","","","","","f","yesOrNo","","","","11","","","mid","3000","","","59","605.4000000000001","300"
"","","","","","html-keyboard-response","199","1197150","0.0-20.0-0.11","6628591817056f60a12cb03b","6790928bebf0b969fc839b02","679827a1f1349630785bfe3d","passed","","","","","","","","","","","","","","","","","ballFalling","322.3","308.07114317029976","253.89","2","fallScene","true","","","","","60","",""
"","","","","","html-keyboard-response","200","1200168","0.0-20.0-1.11","6628591817056f60a12cb03b","6790928bebf0b969fc839b02","679827a1f1349630785bfe3d","passed","","1789","","","","","","","","","","","","","","j","yesOrNo","","","","2","","","lp","3000","","","60","321.3","151"
"","","","","","html-keyboard-response","201","1202185","0.0-20.0-0.12","6628591817056f60a12cb03b","6790928bebf0b969fc839b02","679827a1f1349630785bfe3d","passed","","","","","","","","","","","","","","","","","ballFalling","604.4000000000001","596.8711431702998","394.5","10","fallScene","false","","","","","61","",""
"","","","","","html-keyboard-response","202","1205200","0.0-20.0-1.12","6628591817056f60a12cb03b","6790928bebf0b969fc839b02","679827a1f1349630785bfe3d","passed","","949","","","","","","","","","","","","","","f","yesOrNo","","","","10","","","mid","3000","","","61","536.4288568297004","300"
"","","","","","html-keyboard-response","203","1206767","0.0-20.0-0.13","6628591817056f60a12cb03b","6790928bebf0b969fc839b02","679827a1f1349630785bfe3d","passed","","","","","","","","","","","","","","","","","ballFalling","322.3","379.3711431702997","245.25","1","fallScene","false","","","","","62","",""
"","","","","","html-keyboard-response","204","1209771","0.0-20.0-1.13","6628591817056f60a12cb03b","6790928bebf0b969fc839b02","679827a1f1349630785bfe3d","passed","","1659","","","","","","","","","","","","","","f","yesOrNo","","","","1","","","mid","3000","","","62","390.27114317029975","300"
"","","","","","html-keyboard-response","205","1211333","0.0-20.0-0.14","6628591817056f60a12cb03b","6790928bebf0b969fc839b02","679827a1f1349630785bfe3d","passed","","","","","","","","","","","","","","","","","ballFalling","322.3","379.3711431702997","245.25","1","fallScene","false","","","","","63","",""
"","","","","","html-keyboard-response","206","1214336","0.0-20.0-1.14","6628591817056f60a12cb03b","6790928bebf0b969fc839b02","679827a1f1349630785bfe3d","passed","","1299","","","","","","","","","","","","","","j","yesOrNo","","","","1","","","gt","3000","","","63","379.3711431702997","245.25"
"","","","","","html-keyboard-response","207","1215899","0.0-20.0-0.15","6628591817056f60a12cb03b","6790928bebf0b969fc839b02","679827a1f1349630785bfe3d","passed","","","","","","","","","","","","","","","","","ballFalling","604.4000000000001","650.0211431702996","404.58000000000004","11","fallScene","false","","","","","64","",""
"","","","","","html-keyboard-response","208","1218902","0.0-20.0-1.15","6628591817056f60a12cb03b","6790928bebf0b969fc839b02","679827a1f1349630785bfe3d","passed","","725","","","","","","","","","","","","","","j","yesOrNo","","","","11","","","gt","3000","","","64","650.0211431702996","404.58"
"","","","","","html-keyboard-response","209","1220466","0.0-20.0-0.16","6628591817056f60a12cb03b","6790928bebf0b969fc839b02","679827a1f1349630785bfe3d","passed","","","","","","","","","","","","","","","","","ballFalling","500","453.67114317029973","210.33","5","fallScene","true","","","","","65","",""
"","","","","","html-keyboard-response","210","1223484","0.0-20.0-1.16","6628591817056f60a12cb03b","6790928bebf0b969fc839b02","679827a1f1349630785bfe3d","passed","","881","","","","","","","","","","","","","","f","yesOrNo","","","","5","","","lp","3000","","","65","499","151"
"","","","","","html-keyboard-response","211","1225050","0.0-20.0-0.17","6628591817056f60a12cb03b","6790928bebf0b969fc839b02","679827a1f1349630785bfe3d","passed","","","","","","","","","","","","","","","","","ballFalling","500","453.67114317029973","210.33","5","fallScene","false","","","","","66","",""
"","","","","","html-keyboard-response","212","1228067","0.0-20.0-1.17","6628591817056f60a12cb03b","6790928bebf0b969fc839b02","679827a1f1349630785bfe3d","passed","","1448","","","","","","","","","","","","","","j","yesOrNo","","","","5","","","gt","3000","","","66","453.6711431702998","210.33"
"","","","","","html-keyboard-response","213","1229634","0.0-20.0-0.18","6628591817056f60a12cb03b","6790928bebf0b969fc839b02","679827a1f1349630785bfe3d","passed","","","","","","","","","","","","","","","","","ballFalling","322.3","296.07114317029976","371.46","3","fallScene","true","","","","","67","",""
"","","","","","html-keyboard-response","214","1232637","0.0-20.0-1.18","6628591817056f60a12cb03b","6790928bebf0b969fc839b02","679827a1f1349630785bfe3d","passed","","1787","","","","","","","","","","","","","","j","yesOrNo","","","","3","","","lp","3000","","","67","321.3","287.3327096511259"
"","","","","","html-keyboard-response","215","1234199","0.0-20.0-0.19","6628591817056f60a12cb03b","6790928bebf0b969fc839b02","679827a1f1349630785bfe3d","passed","","","","","","","","","","","","","","","","","ballFalling","604.4000000000001","650.0211431702996","404.58000000000004","11","fallScene","false","","","","","68","",""
"","","","","","html-keyboard-response","216","1237210","0.0-20.0-1.19","6628591817056f60a12cb03b","6790928bebf0b969fc839b02","679827a1f1349630785bfe3d","passed","","1131","","","","","","","","","","","","","","f","yesOrNo","","","","11","","","lp","3000","","","68","605.4000000000001","372.6340973215488"
"","","","","","html-keyboard-response","217","1239216","0.0-20.0-0.20","6628591817056f60a12cb03b","6790928bebf0b969fc839b02","679827a1f1349630785bfe3d","passed","","","","","","","","","","","","","","","","","ballFalling","604.4000000000001","596.8711431702998","394.5","10","fallScene","false","","","","","69","",""
"","","","","","html-keyboard-response","218","1242221","0.0-20.0-1.20","6628591817056f60a12cb03b","6790928bebf0b969fc839b02","679827a1f1349630785bfe3d","passed","","850","","","","","","","","","","","","","","j","yesOrNo","","","","10","","","lp","3000","","","69","603.4000000000001","215.50214355555383"
"","","","","","html-keyboard-response","219","1243877","0.0-20.0-0.21","6628591817056f60a12cb03b","6790928bebf0b969fc839b02","679827a1f1349630785bfe3d","passed","","","","","","","","","","","","","","","","","ballFalling","500","479.92114317029973","330.87","6","fallScene","false","","","","","70","",""
"","","","","","html-keyboard-response","220","1246882","0.0-20.0-1.21","6628591817056f60a12cb03b","6790928bebf0b969fc839b02","679827a1f1349630785bfe3d","passed","","2603","","","","","","","","","","","","","","j","yesOrNo","","","","6","","","mid","3000","","","70","499","300"
"","","","","","html-keyboard-response","221","1248449","0.0-20.0-0.22","6628591817056f60a12cb03b","6790928bebf0b969fc839b02","679827a1f1349630785bfe3d","passed","","","","","","","","","","","","","","","","","ballFalling","322.3","356.42114317029973","357.87","4","fallScene","false","","","","","71","",""
"","","","","","html-keyboard-response","222","1251454","0.0-20.0-1.22","6628591817056f60a12cb03b","6790928bebf0b969fc839b02","679827a1f1349630785bfe3d","passed","","1326","","","","","","","","","","","","","","f","yesOrNo","","","","4","","","lp","3000","","","71","323.3","297.4070551689986"
"","","","","","html-keyboard-response","223","1253014","0.0-20.0-0.23","6628591817056f60a12cb03b","6790928bebf0b969fc839b02","679827a1f1349630785bfe3d","passed","","","","","","","","","","","","","","","","","ballFalling","322.3","379.3711431702997","245.25","1","fallScene","true","","","","","72","",""
"","","","","","html-keyboard-response","224","1256031","0.0-20.0-1.23","6628591817056f60a12cb03b","6790928bebf0b969fc839b02","679827a1f1349630785bfe3d","passed","","2323","","","","","","","","","","","","","","f","yesOrNo","","","","1","","","gt","3000","","","72","379.3711431702997","245.25"
"","","","","","html-keyboard-response","225","1257710","0.0-21.0","6628591817056f60a12cb03b","6790928bebf0b969fc839b02","679827a1f1349630785bfe3d","passed","","1678","","","","","","","","","","","","","<p><span style=""font-size:40px;"">BLOCK 4</span></p><p><span style=""font-size:25px;"">You have <b style=""color: #FF644F;""><strong>1 second(s)</strong></b> to respond to the following trials.</span><br></p><p></p> <!-- Blank line -->
                <p id=""blinking-text"" style=""font-weight; animation: blink 2s infinite;"">Press Space to continue</p>
                <style>
                    @keyframes blink {
                        50% {
                            opacity: 0;
                        }
                    }
                </style></p>"," ","","","","","","","","","","","","","",""
"","","","","","html-keyboard-response","226","1259277","0.0-22.0-0.0","6628591817056f60a12cb03b","6790928bebf0b969fc839b02","679827a1f1349630785bfe3d","passed","","","","","","","","","","","","","","","","","ballFalling","500","553.4711431702997","282.51","7","fallScene","true","","","","","73","",""
"","","","","","html-keyboard-response","227","1260281","0.0-22.0-1.0","6628591817056f60a12cb03b","6790928bebf0b969fc839b02","679827a1f1349630785bfe3d","passed","","null","","","","","","","","","","","","","","null","yesOrNo","","","","7","","","mid","1000","","","73","501","300"
"","","","","","html-keyboard-response","228","1261847","0.0-22.0-0.1","6628591817056f60a12cb03b","6790928bebf0b969fc839b02","679827a1f1349630785bfe3d","passed","","","","","","","","","","","","","","","","","ballFalling","604.4000000000001","650.0211431702996","404.58000000000004","11","fallScene","false","","","","","74","",""
"","","","","","html-keyboard-response","229","1262852","0.0-22.0-1.1","6628591817056f60a12cb03b","6790928bebf0b969fc839b02","679827a1f1349630785bfe3d","passed","","649","","","","","","","","","","","","","","f","yesOrNo","","","","11","","","mid","1000","","","74","605.4000000000001","300"
"","","","","","html-keyboard-response","230","1264414","0.0-22.0-0.2","6628591817056f60a12cb03b","6790928bebf0b969fc839b02","679827a1f1349630785bfe3d","passed","","","","","","","","","","","","","","","","","ballFalling","322.3","379.3711431702997","245.25","1","fallScene","false","","","","","75","",""
"","","","","","html-keyboard-response","231","1265417","0.0-22.0-1.2","6628591817056f60a12cb03b","6790928bebf0b969fc839b02","679827a1f1349630785bfe3d","passed","","841","","","","","","","","","","","","","","j","yesOrNo","","","","1","","","mid","1000","","","75","390.27114317029975","300"
"","","","","","html-keyboard-response","232","1266980","0.0-22.0-0.3","6628591817056f60a12cb03b","6790928bebf0b969fc839b02","679827a1f1349630785bfe3d","passed","","","","","","","","","","","","","","","","","ballFalling","500","453.67114317029973","210.33","5","fallScene","true","","","","","76","",""
"","","","","","html-keyboard-response","233","1267992","0.0-22.0-1.3","6628591817056f60a12cb03b","6790928bebf0b969fc839b02","679827a1f1349630785bfe3d","passed","","740","","","","","","","","","","","","","","j","yesOrNo","","","","5","","","gt","1000","","","76","453.6711431702998","210.33"
"","","","","","html-keyboard-response","234","1269543","0.0-22.0-0.4","6628591817056f60a12cb03b","6790928bebf0b969fc839b02","679827a1f1349630785bfe3d","passed","","","","","","","","","","","","","","","","","ballFalling","322.3","356.42114317029973","357.87","4","fallScene","true","","","","","77","",""
"","","","","","html-keyboard-response","235","1270547","0.0-22.0-1.4","6628591817056f60a12cb03b","6790928bebf0b969fc839b02","679827a1f1349630785bfe3d","passed","","647","","","","","","","","","","","","","","f","yesOrNo","","","","4","","","mid","1000","","","77","390.27114317029975","300"
"","","","","","html-keyboard-response","236","1272113","0.0-22.0-0.5","6628591817056f60a12cb03b","6790928bebf0b969fc839b02","679827a1f1349630785bfe3d","passed","","","","","","","","","","","","","","","","","ballFalling","322.3","356.42114317029973","357.87","4","fallScene","false","","","","","78","",""
"","","","","","html-keyboard-response","237","1273124","0.0-22.0-1.5","6628591817056f60a12cb03b","6790928bebf0b969fc839b02","679827a1f1349630785bfe3d","passed","","683","","","","","","","","","","","","","","j","yesOrNo","","","","4","","","gt","1000","","","78","356.42114317029973","357.87"
"","","","","","html-keyboard-response","238","1274680","0.0-22.0-0.6","6628591817056f60a12cb03b","6790928bebf0b969fc839b02","679827a1f1349630785bfe3d","passed","","","","","","","","","","","","","","","","","ballFalling","322.3","296.07114317029976","371.46","3","fallScene","true","","","","","79","",""
"","","","","","html-keyboard-response","239","1275689","0.0-22.0-1.6","6628591817056f60a12cb03b","6790928bebf0b969fc839b02","679827a1f1349630785bfe3d","passed","","null","","","","","","","","","","","","","","null","yesOrNo","","","","3","","","mid","1000","","","79","321.3","300"
"","","","","","html-keyboard-response","240","1277247","0.0-22.0-0.7","6628591817056f60a12cb03b","6790928bebf0b969fc839b02","679827a1f1349630785bfe3d","passed","","","","","","","","","","","","","","","","","ballFalling","322.3","379.3711431702997","245.25","1","fallScene","false","","","","","80","",""
"","","","","","html-keyboard-response","241","1278260","0.0-22.0-1.7","6628591817056f60a12cb03b","6790928bebf0b969fc839b02","679827a1f1349630785bfe3d","passed","","799","","","","","","","","","","","","","","j","yesOrNo","","","","1","","","lp","1000","","","80","323.3","217.74551669457017"
"","","","","","html-keyboard-response","242","1280043","0.0-22.0-0.8","6628591817056f60a12cb03b","6790928bebf0b969fc839b02","679827a1f1349630785bfe3d","passed","","","","","","","","","","","","","","","","","ballFalling","322.3","308.07114317029976","253.89","2","fallScene","false","","","","","81","",""
"","","","","","html-keyboard-response","243","1281047","0.0-22.0-1.8","6628591817056f60a12cb03b","6790928bebf0b969fc839b02","679827a1f1349630785bfe3d","passed","","789","","","","","","","","","","","","","","j","yesOrNo","","","","2","","","mid","1000","","","81","321.3","300"
"","","","","","html-keyboard-response","244","1282630","0.0-22.0-0.9","6628591817056f60a12cb03b","6790928bebf0b969fc839b02","679827a1f1349630785bfe3d","passed","","","","","","","","","","","","","","","","","ballFalling","500","553.4711431702997","282.51","7","fallScene","false","","","","","82","",""
"","","","","","html-keyboard-response","245","1283638","0.0-22.0-1.9","6628591817056f60a12cb03b","6790928bebf0b969fc839b02","679827a1f1349630785bfe3d","passed","","664","","","","","","","","","","","","","","j","yesOrNo","","","","7","","","mid","1000","","","82","501","300"
"","","","","","html-keyboard-response","246","1285131","0.0-22.0-0.10","6628591817056f60a12cb03b","6790928bebf0b969fc839b02","679827a1f1349630785bfe3d","passed","","","","","","","","","","","","","","","","","ballFalling","604.4000000000001","667.6211431702998","201.78","9","fallScene","false","","","","","83","",""
"","","","","","html-keyboard-response","247","1286146","0.0-22.0-1.10","6628591817056f60a12cb03b","6790928bebf0b969fc839b02","679827a1f1349630785bfe3d","passed","","696","","","","","","","","","","","","","","j","yesOrNo","","","","9","","","gt","1000","","","83","667.6211431702998","201.78"
"","","","","","html-keyboard-response","248","1287814","0.0-22.0-0.11","6628591817056f60a12cb03b","6790928bebf0b969fc839b02","679827a1f1349630785bfe3d","passed","","","","","","","","","","","","","","","","","ballFalling","500","479.92114317029973","330.87","6","fallScene","false","","","","","84","",""
"","","","","","html-keyboard-response","249","1288822","0.0-22.0-1.11","6628591817056f60a12cb03b","6790928bebf0b969fc839b02","679827a1f1349630785bfe3d","passed","","683","","","","","","","","","","","","","","j","yesOrNo","","","","6","","","lp","1000","","","84","499","189.92909825697632"
"","","","","","html-keyboard-response","250","1290380","0.0-22.0-0.12","6628591817056f60a12cb03b","6790928bebf0b969fc839b02","679827a1f1349630785bfe3d","passed","","","","","","","","","","","","","","","","","ballFalling","604.4000000000001","650.0211431702996","404.58000000000004","11","fallScene","false","","","","","85","",""
"","","","","","html-keyboard-response","251","1291397","0.0-22.0-1.12","6628591817056f60a12cb03b","6790928bebf0b969fc839b02","679827a1f1349630785bfe3d","passed","","617","","","","","","","","","","","","","","j","yesOrNo","","","","11","","","gt","1000","","","85","650.0211431702996","404.58"
"","","","","","html-keyboard-response","252","1292979","0.0-22.0-0.13","6628591817056f60a12cb03b","6790928bebf0b969fc839b02","679827a1f1349630785bfe3d","passed","","","","","","","","","","","","","","","","","ballFalling","500","553.4711431702997","282.51","7","fallScene","true","","","","","86","",""
"","","","","","html-keyboard-response","253","1293990","0.0-22.0-1.13","6628591817056f60a12cb03b","6790928bebf0b969fc839b02","679827a1f1349630785bfe3d","passed","","749","","","","","","","","","","","","","","f","yesOrNo","","","","7","","","lp","1000","","","86","501","227.2843295913261"
"","","","","","html-keyboard-response","254","1295546","0.0-22.0-0.14","6628591817056f60a12cb03b","6790928bebf0b969fc839b02","679827a1f1349630785bfe3d","passed","","","","","","","","","","","","","","","","","ballFalling","322.3","296.07114317029976","371.46","3","fallScene","false","","","","","87","",""
"","","","","","html-keyboard-response","255","1296549","0.0-22.0-1.14","6628591817056f60a12cb03b","6790928bebf0b969fc839b02","679827a1f1349630785bfe3d","passed","","599","","","","","","","","","","","","","","j","yesOrNo","","","","3","","","mid","1000","","","87","321.3","300"
"","","","","","html-keyboard-response","256","1298112","0.0-22.0-0.15","6628591817056f60a12cb03b","6790928bebf0b969fc839b02","679827a1f1349630785bfe3d","passed","","","","","","","","","","","","","","","","","ballFalling","604.4000000000001","575.4211431702997","266.76","12","fallScene","true","","","","","88","",""
"","","","","","html-keyboard-response","257","1299120","0.0-22.0-1.15","6628591817056f60a12cb03b","6790928bebf0b969fc839b02","679827a1f1349630785bfe3d","passed","","811","","","","","","","","","","","","","","j","yesOrNo","","","","12","","","mid","1000","","","88","536.4288568297004","300"
"","","","","","html-keyboard-response","258","1300679","0.0-22.0-0.16","6628591817056f60a12cb03b","6790928bebf0b969fc839b02","679827a1f1349630785bfe3d","passed","","","","","","","","","","","","","","","","","ballFalling","322.3","296.07114317029976","371.46","3","fallScene","false","","","","","89","",""
"","","","","","html-keyboard-response","259","1301686","0.0-22.0-1.16","6628591817056f60a12cb03b","6790928bebf0b969fc839b02","679827a1f1349630785bfe3d","passed","","690","","","","","","","","","","","","","","j","yesOrNo","","","","3","","","gt","1000","","","89","296.07114317029976","371.46"
"","","","","","html-keyboard-response","260","1303246","0.0-22.0-0.17","6628591817056f60a12cb03b","6790928bebf0b969fc839b02","679827a1f1349630785bfe3d","passed","","","","","","","","","","","","","","","","","ballFalling","604.4000000000001","650.0211431702996","404.58000000000004","11","fallScene","true","","","","","90","",""
"","","","","","html-keyboard-response","261","1304252","0.0-22.0-1.17","6628591817056f60a12cb03b","6790928bebf0b969fc839b02","679827a1f1349630785bfe3d","passed","","632","","","","","","","","","","","","","","j","yesOrNo","","","","11","","","gt","1000","","","90","650.0211431702996","404.58"
"","","","","","html-keyboard-response","262","1305808","0.0-22.0-0.18","6628591817056f60a12cb03b","6790928bebf0b969fc839b02","679827a1f1349630785bfe3d","passed","","","","","","","","","","","","","","","","","ballFalling","322.3","356.42114317029973","357.87","4","fallScene","true","","","","","91","",""
"","","","","","html-keyboard-response","263","1306813","0.0-22.0-1.18","6628591817056f60a12cb03b","6790928bebf0b969fc839b02","679827a1f1349630785bfe3d","passed","","803","","","","","","","","","","","","","","j","yesOrNo","","","","4","","","mid","1000","","","91","390.27114317029975","300"
"","","","","","html-keyboard-response","264","1308379","0.0-22.0-0.19","6628591817056f60a12cb03b","6790928bebf0b969fc839b02","679827a1f1349630785bfe3d","passed","","","","","","","","","","","","","","","","","ballFalling","500","453.67114317029973","210.33","5","fallScene","false","","","","","92","",""
"","","","","","html-keyboard-response","265","1309388","0.0-22.0-1.19","6628591817056f60a12cb03b","6790928bebf0b969fc839b02","679827a1f1349630785bfe3d","passed","","741","","","","","","","","","","","","","","j","yesOrNo","","","","5","","","gt","1000","","","92","453.6711431702998","210.33"
"","","","","","html-keyboard-response","266","1310879","0.0-22.0-0.20","6628591817056f60a12cb03b","6790928bebf0b969fc839b02","679827a1f1349630785bfe3d","passed","","","","","","","","","","","","","","","","","ballFalling","604.4000000000001","667.6211431702998","201.78","9","fallScene","true","","","","","93","",""
"","","","","","html-keyboard-response","267","1311889","0.0-22.0-1.20","6628591817056f60a12cb03b","6790928bebf0b969fc839b02","679827a1f1349630785bfe3d","passed","","659","","","","","","","","","","","","","","j","yesOrNo","","","","9","","","gt","1000","","","93","667.6211431702998","201.78"
"","","","","","html-keyboard-response","268","1313445","0.0-22.0-0.21","6628591817056f60a12cb03b","6790928bebf0b969fc839b02","679827a1f1349630785bfe3d","passed","","","","","","","","","","","","","","","","","ballFalling","322.3","379.3711431702997","245.25","1","fallScene","false","","","","","94","",""
"","","","","","html-keyboard-response","269","1314449","0.0-22.0-1.21","6628591817056f60a12cb03b","6790928bebf0b969fc839b02","679827a1f1349630785bfe3d","passed","","null","","","","","","","","","","","","","","null","yesOrNo","","","","1","","","mid","1000","","","94","390.27114317029975","300"
"","","","","","html-keyboard-response","270","1316012","0.0-22.0-0.22","6628591817056f60a12cb03b","6790928bebf0b969fc839b02","679827a1f1349630785bfe3d","passed","","","","","","","","","","","","","","","","","ballFalling","500","453.67114317029973","210.33","5","fallScene","false","","","","","95","",""
"","","","","","html-keyboard-response","271","1317015","0.0-22.0-1.22","6628591817056f60a12cb03b","6790928bebf0b969fc839b02","679827a1f1349630785bfe3d","passed","","583","","","","","","","","","","","","","","j","yesOrNo","","","","5","","","mid","1000","","","95","499","300"
"","","","","","html-keyboard-response","272","1318678","0.0-22.0-0.23","6628591817056f60a12cb03b","6790928bebf0b969fc839b02","679827a1f1349630785bfe3d","passed","","","","","","","","","","","","","","","","","ballFalling","500","479.92114317029973","330.87","6","fallScene","true","","","","","96","",""
"","","","","","html-keyboard-response","273","1319686","0.0-22.0-1.23","6628591817056f60a12cb03b","6790928bebf0b969fc839b02","679827a1f1349630785bfe3d","passed","","731","","","","","","","","","","","","","","j","yesOrNo","","","","6","","","mid","1000","","","96","499","300"
"","","","","","html-keyboard-response","274","1320921","0.0-23.0","6628591817056f60a12cb03b","6790928bebf0b969fc839b02","679827a1f1349630785bfe3d","passed","","1233","","","","","","","","","","","","","<p><span style=""font-size:40px;"">BLOCK 5</span></p><p><span style=""font-size:25px;"">You have <b style=""color: #FF644F;""><strong>3 second(s)</strong></b> to respond to the following trials.</span><br></p><p></p> <!-- Blank line -->
                <p id=""blinking-text"" style=""font-weight; animation: blink 2s infinite;"">Press Space to continue</p>
                <style>
                    @keyframes blink {
                        50% {
                            opacity: 0;
                        }
                    }
                </style></p>"," ","","","","","","","","","","","","","",""
"","","","","","html-keyboard-response","275","1322494","0.0-24.0-0.0","6628591817056f60a12cb03b","6790928bebf0b969fc839b02","679827a1f1349630785bfe3d","passed","","","","","","","","","","","","","","","","","ballFalling","500","553.4711431702997","282.51","7","fallScene","false","","","","","97","",""
"","","","","","html-keyboard-response","276","1325501","0.0-24.0-1.0","6628591817056f60a12cb03b","6790928bebf0b969fc839b02","679827a1f1349630785bfe3d","passed","","781","","","","","","","","","","","","","","j","yesOrNo","","","","7","","","gt","3000","","","97","553.4711431702997","282.51"
"","","","","","html-keyboard-response","277","1327511","0.0-24.0-0.1","6628591817056f60a12cb03b","6790928bebf0b969fc839b02","679827a1f1349630785bfe3d","passed","","","","","","","","","","","","","","","","","ballFalling","500","510.8711431702997","369.03","8","fallScene","false","","","","","98","",""
"","","","","","html-keyboard-response","278","1330519","0.0-24.0-1.1","6628591817056f60a12cb03b","6790928bebf0b969fc839b02","679827a1f1349630785bfe3d","passed","","1364","","","","","","","","","","","","","","j","yesOrNo","","","","8","","","mid","3000","","","98","501","300"
"","","","","","html-keyboard-response","279","1332528","0.0-24.0-0.2","6628591817056f60a12cb03b","6790928bebf0b969fc839b02","679827a1f1349630785bfe3d","passed","","","","","","","","","","","","","","","","","ballFalling","604.4000000000001","596.8711431702998","394.5","10","fallScene","true","","","","","99","",""
"","","","","","html-keyboard-response","280","1335533","0.0-24.0-1.2","6628591817056f60a12cb03b","6790928bebf0b969fc839b02","679827a1f1349630785bfe3d","passed","","671","","","","","","","","","","","","","","j","yesOrNo","","","","10","","","gt","3000","","","99","596.8711431702998","394.5"
"","","","","","html-keyboard-response","281","1337544","0.0-24.0-0.3","6628591817056f60a12cb03b","6790928bebf0b969fc839b02","679827a1f1349630785bfe3d","passed","","","","","","","","","","","","","","","","","ballFalling","500","510.8711431702997","369.03","8","fallScene","true","","","","","100","",""
"","","","","","html-keyboard-response","282","1340552","0.0-24.0-1.3","6628591817056f60a12cb03b","6790928bebf0b969fc839b02","679827a1f1349630785bfe3d","passed","","956","","","","","","","","","","","","","","j","yesOrNo","","","","8","","","gt","3000","","","100","510.8711431702997","369.03"
"","","","","","html-keyboard-response","283","1342111","0.0-24.0-0.4","6628591817056f60a12cb03b","6790928bebf0b969fc839b02","679827a1f1349630785bfe3d","passed","","","","","","","","","","","","","","","","","ballFalling","500","453.67114317029973","210.33","5","fallScene","true","","","","","101","",""
"","","","","","html-keyboard-response","284","1345127","0.0-24.0-1.4","6628591817056f60a12cb03b","6790928bebf0b969fc839b02","679827a1f1349630785bfe3d","passed","","1186","","","","","","","","","","","","","","f","yesOrNo","","","","5","","","lp","3000","","","101","499","151"
"","","","","","html-keyboard-response","285","1346693","0.0-24.0-0.5","6628591817056f60a12cb03b","6790928bebf0b969fc839b02","679827a1f1349630785bfe3d","passed","","","","","","","","","","","","","","","","","ballFalling","500","453.67114317029973","210.33","5","fallScene","true","","","","","102","",""
"","","","","","html-keyboard-response","286","1349710","0.0-24.0-1.5","6628591817056f60a12cb03b","6790928bebf0b969fc839b02","679827a1f1349630785bfe3d","passed","","1432","","","","","","","","","","","","","","j","yesOrNo","","","","5","","","gt","3000","","","102","453.6711431702998","210.33"
"","","","","","html-keyboard-response","287","1351727","0.0-24.0-0.6","6628591817056f60a12cb03b","6790928bebf0b969fc839b02","679827a1f1349630785bfe3d","passed","","","","","","","","","","","","","","","","","ballFalling","500","510.8711431702997","369.03","8","fallScene","false","","","","","103","",""
"","","","","","html-keyboard-response","288","1354735","0.0-24.0-1.6","6628591817056f60a12cb03b","6790928bebf0b969fc839b02","679827a1f1349630785bfe3d","passed","","931","","","","","","","","","","","","","","j","yesOrNo","","","","8","","","lp","3000","","","103","501","151"
"","","","","","html-keyboard-response","289","1356294","0.0-24.0-0.7","6628591817056f60a12cb03b","6790928bebf0b969fc839b02","679827a1f1349630785bfe3d","passed","","","","","","","","","","","","","","","","","ballFalling","322.3","356.42114317029973","357.87","4","fallScene","true","","","","","104","",""
"","","","","","html-keyboard-response","290","1359305","0.0-24.0-1.7","6628591817056f60a12cb03b","6790928bebf0b969fc839b02","679827a1f1349630785bfe3d","passed","","953","","","","","","","","","","","","","","j","yesOrNo","","","","4","","","mid","3000","","","104","390.27114317029975","300"
"","","","","","html-keyboard-response","291","1361093","0.0-24.0-0.8","6628591817056f60a12cb03b","6790928bebf0b969fc839b02","679827a1f1349630785bfe3d","passed","","","","","","","","","","","","","","","","","ballFalling","322.3","308.07114317029976","253.89","2","fallScene","true","","","","","105","",""
"","","","","","html-keyboard-response","292","1364105","0.0-24.0-1.8","6628591817056f60a12cb03b","6790928bebf0b969fc839b02","679827a1f1349630785bfe3d","passed","","990","","","","","","","","","","","","","","j","yesOrNo","","","","2","","","gt","3000","","","105","308.07114317029976","253.89"
"","","","","","html-keyboard-response","293","1365888","0.0-24.0-0.9","6628591817056f60a12cb03b","6790928bebf0b969fc839b02","679827a1f1349630785bfe3d","passed","","","","","","","","","","","","","","","","","ballFalling","322.3","308.07114317029976","253.89","2","fallScene","false","","","","","106","",""
"","","","","","html-keyboard-response","294","1368893","0.0-24.0-1.9","6628591817056f60a12cb03b","6790928bebf0b969fc839b02","679827a1f1349630785bfe3d","passed","","1043","","","","","","","","","","","","","","f","yesOrNo","","","","2","","","mid","3000","","","106","321.3","300"
"","","","","","html-keyboard-response","295","1370477","0.0-24.0-0.10","6628591817056f60a12cb03b","6790928bebf0b969fc839b02","679827a1f1349630785bfe3d","passed","","","","","","","","","","","","","","","","","ballFalling","500","553.4711431702997","282.51","7","fallScene","false","","","","","107","",""
"","","","","","html-keyboard-response","296","1373487","0.0-24.0-1.10","6628591817056f60a12cb03b","6790928bebf0b969fc839b02","679827a1f1349630785bfe3d","passed","","1014","","","","","","","","","","","","","","f","yesOrNo","","","","7","","","lp","3000","","","107","501","227.2843295913261"
"","","","","","html-keyboard-response","297","1375042","0.0-24.0-0.11","6628591817056f60a12cb03b","6790928bebf0b969fc839b02","679827a1f1349630785bfe3d","passed","","","","","","","","","","","","","","","","","ballFalling","322.3","379.3711431702997","245.25","1","fallScene","true","","","","","108","",""
"","","","","","html-keyboard-response","298","1378047","0.0-24.0-1.11","6628591817056f60a12cb03b","6790928bebf0b969fc839b02","679827a1f1349630785bfe3d","passed","","994","","","","","","","","","","","","","","f","yesOrNo","","","","1","","","lp","3000","","","108","323.3","217.74551669457017"
"","","","","","html-keyboard-response","299","1379609","0.0-24.0-0.12","6628591817056f60a12cb03b","6790928bebf0b969fc839b02","679827a1f1349630785bfe3d","passed","","","","","","","","","","","","","","","","","ballFalling","322.3","356.42114317029973","357.87","4","fallScene","false","","","","","109","",""
