"success","timeout","failed_images","failed_audio","failed_video","trial_type","trial_index","time_elapsed","internal_node_id","subject_id","study_id","session_id","practiceTestResult","view_history","rt","width","height","webaudio","browser","browser_version","mobile","os","fullscreen","vsync_rate","webcam","microphone","url","stimulus","response","task","ball_X","obstacle_groundTruth_x","obstacle_groundTruth_y","stimulus_idx","trial_name","flipped","choice","timeLimit","question_order","comprehensionCheck","currentTrial","obstacle_choice_x","obstacle_choice_y"
"true","false","[]","[]","[]","preload","0","179","0.0-0.0","66358a8c455c8ca13957e2ca","6790928bebf0b969fc839b02","679826234ab24870b19de8dd","passed","","","","","","","","","","","","","","","","","","","","","","","","","","","","","",""
"","","","","","instructions","1","10789","0.0-1.0","66358a8c455c8ca13957e2ca","6790928bebf0b969fc839b02","679826234ab24870b19de8dd","passed","[{""page_index"":0,""viewing_time"":10609}]","10609","","","","","","","","","","","","","","","","","","","","","","","","","","","",""
"","","","","","browser-check","2","11771","0.0-2.0","66358a8c455c8ca13957e2ca","6790928bebf0b969fc839b02","679826234ab24870b19de8dd","passed","","","1509","800","true","chrome","131.0.0","false","Mac OS","true","61.31","true","true","","","","","","","","","","","","","","","","",""
"","","","","","external-html","3","14572","0.0-3.0","66358a8c455c8ca13957e2ca","6790928bebf0b969fc839b02","679826234ab24870b19de8dd","passed","","2747","","","","","","","","","","","","consent.html","","","","","","","","","","","","","","","",""
"true","","","","","fullscreen","4","17290","0.0-4.0","66358a8c455c8ca13957e2ca","6790928bebf0b969fc839b02","679826234ab24870b19de8dd","passed","","2414","","","","","","","","","","","","","","","","","","","","","","","","","","","",""
"","","","","","browser-check","5","18287","0.0-5.0","66358a8c455c8ca13957e2ca","6790928bebf0b969fc839b02","679826234ab24870b19de8dd","passed","","","1920","1080","true","chrome","131.0.0","false","Mac OS","true","60.28","true","true","","","","","","","","","","","","","","","","",""
"","","","","","html-keyboard-response","6","21978","0.0-6.0","66358a8c455c8ca13957e2ca","6790928bebf0b969fc839b02","679826234ab24870b19de8dd","passed","","3690","","","","","","","","","","","","","<p><b>This experiment requires keyboard input.</b></p> 
        <p><b>To ensure your response will be recorded successfully, please press 'Space' to continue.</b></p>
        <p>If you can't proceed, you won't be able to complete this study.</p>
        <p></p> <!-- Blank line -->
        <p id=""blinking-text"" style=""font-weight; animation: blink 2s infinite;"">Press Space to continue</p>
        <style>
            @keyframes blink {
                50% {
                    opacity: 0;
                }
            }
        </style>"," ","","","","","","","","","","","","","",""
"","","","","","html-keyboard-response","7","26947","0.0-7.0","66358a8c455c8ca13957e2ca","6790928bebf0b969fc839b02","679826234ab24870b19de8dd","passed","","4969","","","","","","","","","","","","","<p><b>This experiment requires keyboard input.</b></p> 
        <p><b>To ensure your response will be recorded successfully, please press the 'f' key to continue.</b></p>
        <p>If you can't proceed, you won't be able to complete this study.</p>
        <p></p> <!-- Blank line -->
        <p id=""blinking-text"" style=""font-weight; animation: blink 2s infinite;"">Press f to continue</p>
        <style>
            @keyframes blink {
                50% {
                    opacity: 0;
                }
            }
        </style>","f","","","","","","","","","","","","","",""
"","","","","","html-keyboard-response","8","28658","0.0-8.0","66358a8c455c8ca13957e2ca","6790928bebf0b969fc839b02","679826234ab24870b19de8dd","passed","","1710","","","","","","","","","","","","","<p><b>This experiment requires keyboard input.</b></p> 
        <p><b>To ensure your response will be recorded successfully, please press the 'j' key to continue.</b></p>
        <p>If you can't proceed, you won't be able to complete this study.</p>
        <p></p> <!-- Blank line -->
        <p id=""blinking-text"" style=""font-weight; animation: blink 2s infinite;"">Press j to continue</p>
        <style>
            @keyframes blink {
                50% {
                    opacity: 0;
                }
            }
        </style>","j","","","","","","","","","","","","","",""
"","","","","","browser-check","9","29671","0.0-9.0","66358a8c455c8ca13957e2ca","6790928bebf0b969fc839b02","679826234ab24870b19de8dd","passed","","","1920","1080","true","chrome","131.0.0","false","Mac OS","true","59.98","true","true","","","","","","","","","","","","","","","","",""
"","","","","","survey-text","10","45242","0.0-10.0","66358a8c455c8ca13957e2ca","6790928bebf0b969fc839b02","679826234ab24870b19de8dd","passed","","15569","","","","","","","","","","","","","","{""prolificID"":""66358a8c455c8ca13957e2ca""}","","","","","","","","","","","","","",""
"","","","","","instructions","11","120341","0.0-11.0-0.0-0.0","66358a8c455c8ca13957e2ca","6790928bebf0b969fc839b02","679826234ab24870b19de8dd","passed","[{""page_index"":0,""viewing_time"":43065},{""page_index"":1,""viewing_time"":17517},{""page_index"":2,""viewing_time"":10400},{""page_index"":3,""viewing_time"":4117}]","75099","","","","","","","","","","","","","","","","","","","","","","","","","","","",""
"","","","","","html-keyboard-response","12","125409","0.0-11.0-0.0-1.0","66358a8c455c8ca13957e2ca","6790928bebf0b969fc839b02","679826234ab24870b19de8dd","passed","","4564","","","","","","","","","","","","","<br>Remember! After a ball falls, the screen will disappear, and you'll decide if the proposed position is where the hidden triangle was. <br>You will now practice this by watching a few videos and making decisions.<p>To respond:<br style=""margin-bottom: 5px; text-indent: -20px; padding-left: 20px;"">- Press <b style=""color: #12AD2B;"">J for Yes</b>, if you think the triangle is in the correct position.<br style=""margin-top: 0; text-indent: -20px; padding-left: 20px;"">- Press <b style=""color: orange;"">F for No</b>, if you think the triangle is not in the correct position.</p><p>In this practice round, there is no time limit. Focus on getting comfortable with the task first.<br>Press either J or F to begin your practice trials.</p><img src = ""YesOrNo_instruction.png"" style=""width: 65%;""></img>","j","","","","","","","","","","","","","",""
"","","","","","html-keyboard-response","13","127504","0.0-11.0-0.0-2.0-0.0","66358a8c455c8ca13957e2ca","6790928bebf0b969fc839b02","679826234ab24870b19de8dd","passed","","","","","","","","","","","","","","","","","ballFalling_prac","660","666","350","3","fallScene","false","","","","","","",""
"","","","","","html-keyboard-response","14","132944","0.0-11.0-0.0-2.0-1.0","66358a8c455c8ca13957e2ca","6790928bebf0b969fc839b02","679826234ab24870b19de8dd","passed","","5438","","","","","","","","","","","","","","j","yesOrNo_prac_noTimed","","","","3","","","wrong direction","NA","","","","",""
"","","","","","html-keyboard-response","15","134522","0.0-11.0-0.0-2.0-0.1","66358a8c455c8ca13957e2ca","6790928bebf0b969fc839b02","679826234ab24870b19de8dd","passed","","","","","","","","","","","","","","","","","ballFalling_prac","441","414","302","5","fallScene","true","","","","","","",""
"","","","","","html-keyboard-response","16","135552","0.0-11.0-0.0-2.0-1.1","66358a8c455c8ca13957e2ca","6790928bebf0b969fc839b02","679826234ab24870b19de8dd","passed","","1028","","","","","","","","","","","","","","j","yesOrNo_prac_noTimed","","","","5","","","close gt","NA","","","","",""
"","","","","","html-keyboard-response","17","137104","0.0-11.0-0.0-2.0-0.2","66358a8c455c8ca13957e2ca","6790928bebf0b969fc839b02","679826234ab24870b19de8dd","passed","","","","","","","","","","","","","","","","","ballFalling_prac","416","464","296","1","fallScene","false","","","","","","",""
"","","","","","html-keyboard-response","18","138709","0.0-11.0-0.0-2.0-1.2","66358a8c455c8ca13957e2ca","6790928bebf0b969fc839b02","679826234ab24870b19de8dd","passed","","1604","","","","","","","","","","","","","","j","yesOrNo_prac_noTimed","","","","1","","","gt","NA","","","","",""
"","","","","","instructions","19","159508","0.0-11.0-0.0-3.0","66358a8c455c8ca13957e2ca","6790928bebf0b969fc839b02","679826234ab24870b19de8dd","passed","[{""page_index"":0,""viewing_time"":9765},{""page_index"":1,""viewing_time"":11034}]","20799","","","","","","","","","","","","","","","","","","","","","","","","","","","",""
"","","","","","html-button-response","20","163009","0.0-11.0-0.0-4.0","66358a8c455c8ca13957e2ca","6790928bebf0b969fc839b02","679826234ab24870b19de8dd","passed","","2999","","","","","","","","","","","","","<p>To make sure you understood the task, we just have a <b>brief quiz</b> here.</p><p>If you need to review the instructions, click 'Previous'.</p><p>It's important to understand the task to do the study, so you have to pass the quiz to move to the study.</p>","1","","","","","","","","","","","","","",""
"","","","","","survey-multi-choice","21","180543","0.0-11.0-1.0-0.0","66358a8c455c8ca13957e2ca","6790928bebf0b969fc839b02","679826234ab24870b19de8dd","passed","","17533","","","","","","","","","","","","","","{""generalProcedure"":""Watch a video of a ball falling, some of it behind a gray screen. After each video, decide if the triangle is at the spot where the ball hit the triangle behind the screen. There is time limit for the response.""}","","","","","","","","","","[0]","","","",""
"","","","","","survey-multi-choice","22","185508","0.0-11.0-1.0-1.0","66358a8c455c8ca13957e2ca","6790928bebf0b969fc839b02","679826234ab24870b19de8dd","passed","","4964","","","","","","","","","","","","","","{""checkBallHitObstacle"":""Yes.""}","","","","","","","","","","[0]","","","",""
"","","","","","survey-multi-choice","23","188591","0.0-11.0-1.0-2.0","66358a8c455c8ca13957e2ca","6790928bebf0b969fc839b02","679826234ab24870b19de8dd","passed","","3083","","","","","","","","","","","","","","{""checkTriangleVisibility"":""No, the triangle is hidden behind the gray screen.""}","","","","","","","","","","[0]","","","",""
"","","","","","survey-multi-choice","24","193842","0.0-11.0-1.0-3.0","66358a8c455c8ca13957e2ca","6790928bebf0b969fc839b02","679826234ab24870b19de8dd","passed","","5250","","","","","","","","","","","","","","{""checkTimedResponse"":""Your response will not be recorded, and the trial will move to the next one.""}","","","","","","","","","","[0]","","","",""
"","","","","","survey-multi-choice","25","205958","0.0-11.0-1.0-4.0","66358a8c455c8ca13957e2ca","6790928bebf0b969fc839b02","679826234ab24870b19de8dd","passed","","12115","","","","","","","","","","","","","","{""checkTimeBlockNotice"":""Before every individual trial.""}","","","","","","","","","","[0]","","","",""
"","","","","","survey-multi-choice","26","212777","0.0-11.0-1.0-5.0","66358a8c455c8ca13957e2ca","6790928bebf0b969fc839b02","679826234ab24870b19de8dd","passed","","6818","","","","","","","","","","","","","","{""checkTimeBlockSameness"":""Yes, the time limit is the same for all trials within a block.""}","","","","","","","","","","[0]","","","",""
"","","","","","survey-multi-choice","27","224775","0.0-11.0-1.0-6.0","66358a8c455c8ca13957e2ca","6790928bebf0b969fc839b02","679826234ab24870b19de8dd","passed","","11997","","","","","","","","","","","","","","{""checkTrianglePrecision"":""No. The proposed purple triangle is not in the correct position because it doesn't match the location of the white triangle exactly.""}","","","","","","","","","","[0]","","","",""
"","","","","","html-button-response","28","226760","0.0-11.0-2.0-0.0","66358a8c455c8ca13957e2ca","6790928bebf0b969fc839b02","679826234ab24870b19de8dd","passed","","1985","","","","","","","","","","","","","<p>Oops! You did not pass the quiz.</p><p>You will now repeat the instructions and practice.</p>","0","","","","","","","","","","","failed","","",""
"","","","","","instructions","29","256410","0.0-11.1-0.1-0.1","66358a8c455c8ca13957e2ca","6790928bebf0b969fc839b02","679826234ab24870b19de8dd","passed","[{""page_index"":0,""viewing_time"":10482},{""page_index"":1,""viewing_time"":7950},{""page_index"":2,""viewing_time"":1984},{""page_index"":3,""viewing_time"":9233}]","29650","","","","","","","","","","","","","","","","","","","","","","","","","","","",""
"","","","","","html-keyboard-response","30","261424","0.0-11.1-0.1-1.1","66358a8c455c8ca13957e2ca","6790928bebf0b969fc839b02","679826234ab24870b19de8dd","passed","","4512","","","","","","","","","","","","","<br>Remember! After a ball falls, the screen will disappear, and you'll decide if the proposed position is where the hidden triangle was. <br>You will now practice this by watching a few videos and making decisions.<p>To respond:<br style=""margin-bottom: 5px; text-indent: -20px; padding-left: 20px;"">- Press <b style=""color: #12AD2B;"">J for Yes</b>, if you think the triangle is in the correct position.<br style=""margin-top: 0; text-indent: -20px; padding-left: 20px;"">- Press <b style=""color: orange;"">F for No</b>, if you think the triangle is not in the correct position.</p><p>In this practice round, there is no time limit. Focus on getting comfortable with the task first.<br>Press either J or F to begin your practice trials.</p><img src = ""YesOrNo_instruction.png"" style=""width: 65%;""></img>","j","","","","","","","","","","","","","",""
"","","","","","html-keyboard-response","31","262988","0.0-11.1-0.1-2.1-0.3","66358a8c455c8ca13957e2ca","6790928bebf0b969fc839b02","679826234ab24870b19de8dd","passed","","","","","","","","","","","","","","","","","ballFalling_prac","441","414","302","5","fallScene","true","","","","","","",""
"","","","","","html-keyboard-response","32","264165","0.0-11.1-0.1-2.1-1.3","66358a8c455c8ca13957e2ca","6790928bebf0b969fc839b02","679826234ab24870b19de8dd","passed","","1175","","","","","","","","","","","","","","j","yesOrNo_prac_noTimed","","","","5","","","close gt","NA","","","","",""
"","","","","","html-keyboard-response","33","265721","0.0-11.1-0.1-2.1-0.4","66358a8c455c8ca13957e2ca","6790928bebf0b969fc839b02","679826234ab24870b19de8dd","passed","","","","","","","","","","","","","","","","","ballFalling_prac","416","464","296","1","fallScene","false","","","","","","",""
"","","","","","html-keyboard-response","34","267523","0.0-11.1-0.1-2.1-1.4","66358a8c455c8ca13957e2ca","6790928bebf0b969fc839b02","679826234ab24870b19de8dd","passed","","1799","","","","","","","","","","","","","","f","yesOrNo_prac_noTimed","","","","1","","","gt","NA","","","","",""
"","","","","","html-keyboard-response","35","269639","0.0-11.1-0.1-2.1-0.5","66358a8c455c8ca13957e2ca","6790928bebf0b969fc839b02","679826234ab24870b19de8dd","passed","","","","","","","","","","","","","","","","","ballFalling_prac","660","666","350","3","fallScene","false","","","","","","",""
"","","","","","html-keyboard-response","36","270838","0.0-11.1-0.1-2.1-1.5","66358a8c455c8ca13957e2ca","6790928bebf0b969fc839b02","679826234ab24870b19de8dd","passed","","1198","","","","","","","","","","","","","","f","yesOrNo_prac_noTimed","","","","3","","","wrong direction","NA","","","","",""
"","","","","","instructions","37","308662","0.0-11.1-0.1-3.1","66358a8c455c8ca13957e2ca","6790928bebf0b969fc839b02","679826234ab24870b19de8dd","passed","[{""page_index"":0,""viewing_time"":20222},{""page_index"":1,""viewing_time"":17600}]","37823","","","","","","","","","","","","","","","","","","","","","","","","","","","",""
"","","","","","html-button-response","38","310662","0.0-11.1-0.1-4.1","66358a8c455c8ca13957e2ca","6790928bebf0b969fc839b02","679826234ab24870b19de8dd","passed","","1499","","","","","","","","","","","","","<p>To make sure you understood the task, we just have a <b>brief quiz</b> here.</p><p>If you need to review the instructions, click 'Previous'.</p><p>It's important to understand the task to do the study, so you have to pass the quiz to move to the study.</p>","1","","","","","","","","","","","","","",""
"","","","","","survey-multi-choice","39","319163","0.0-11.1-1.1-0.1","66358a8c455c8ca13957e2ca","6790928bebf0b969fc839b02","679826234ab24870b19de8dd","passed","","8500","","","","","","","","","","","","","","{""generalProcedure"":""Watch a video of a ball falling, some of it behind a gray screen. After each video, decide if the triangle is at the spot where the ball hit the triangle behind the screen. There is time limit for the response.""}","","","","","","","","","","[0]","","","",""
"","","","","","survey-multi-choice","40","322812","0.0-11.1-1.1-1.1","66358a8c455c8ca13957e2ca","6790928bebf0b969fc839b02","679826234ab24870b19de8dd","passed","","3648","","","","","","","","","","","","","","{""checkBallHitObstacle"":""Yes.""}","","","","","","","","","","[0]","","","",""
"","","","","","survey-multi-choice","41","324894","0.0-11.1-1.1-2.1","66358a8c455c8ca13957e2ca","6790928bebf0b969fc839b02","679826234ab24870b19de8dd","passed","","2081","","","","","","","","","","","","","","{""checkTriangleVisibility"":""No, the triangle is hidden behind the gray screen.""}","","","","","","","","","","[0]","","","",""
"","","","","","survey-multi-choice","42","331095","0.0-11.1-1.1-3.1","66358a8c455c8ca13957e2ca","6790928bebf0b969fc839b02","679826234ab24870b19de8dd","passed","","6200","","","","","","","","","","","","","","{""checkTimedResponse"":""Your response will not be recorded, and the trial will move to the next one.""}","","","","","","","","","","[0]","","","",""
"","","","","","survey-multi-choice","43","336164","0.0-11.1-1.1-4.1","66358a8c455c8ca13957e2ca","6790928bebf0b969fc839b02","679826234ab24870b19de8dd","passed","","5068","","","","","","","","","","","","","","{""checkTimeBlockNotice"":""At the beginning of each block.""}","","","","","","","","","","[0]","","","",""
"","","","","","survey-multi-choice","44","342030","0.0-11.1-1.1-5.1","66358a8c455c8ca13957e2ca","6790928bebf0b969fc839b02","679826234ab24870b19de8dd","passed","","5865","","","","","","","","","","","","","","{""checkTimeBlockSameness"":""Yes, the time limit is the same for all trials within a block.""}","","","","","","","","","","[0]","","","",""
"","","","","","survey-multi-choice","45","350629","0.0-11.1-1.1-6.1","66358a8c455c8ca13957e2ca","6790928bebf0b969fc839b02","679826234ab24870b19de8dd","passed","","8598","","","","","","","","","","","","","","{""checkTrianglePrecision"":""No. The proposed purple triangle is not in the correct position because it doesn't match the location of the white triangle exactly.""}","","","","","","","","","","[0]","","","",""
"","","","","","instructions","46","370113","0.0-12.0","66358a8c455c8ca13957e2ca","6790928bebf0b969fc839b02","679826234ab24870b19de8dd","passed","[{""page_index"":0,""viewing_time"":1700},{""page_index"":1,""viewing_time"":6966},{""page_index"":2,""viewing_time"":5967},{""page_index"":3,""viewing_time"":4850}]","19483","","","","","","","","","","","","","","","","","","","","","","","","","","","",""
"","","","","","instructions","47","374846","0.0-13.0-0.0","66358a8c455c8ca13957e2ca","6790928bebf0b969fc839b02","679826234ab24870b19de8dd","passed","[{""page_index"":0,""viewing_time"":4733}]","4733","","","","","","","","","","","","","","","","","","","","","","","","","","","",""
"","","","","","html-keyboard-response","48","377368","0.0-13.0-1.0","66358a8c455c8ca13957e2ca","6790928bebf0b969fc839b02","679826234ab24870b19de8dd","passed","","2521","","","","","","","","","","","","","<p><span style=""font-size:40px;"">Practice BLOCK 1</span></p><p><span style=""font-size:25px;"">You have <b style=""color: #FF644F;""><strong>3 second(s)</strong></b> to respond to the following trials.</span><br></p><p id=""blinking-text"" style=""font-weight; animation: blink 2s infinite;"">Press Space to continue</p><style>
                    @keyframes blink {
                        50% {
                            opacity: 0;
                        }
                    }
                </style>"," ","","","","","","","","","","","","","",""
"","","","","","html-keyboard-response","49","378939","0.0-13.0-2.0-0.0","66358a8c455c8ca13957e2ca","6790928bebf0b969fc839b02","679826234ab24870b19de8dd","passed","","","","","","","","","","","","","","","","","ballFalling_prac","660","610","263","4","fallScene","false","","","","","","",""
"","","","","","html-keyboard-response","50","381943","0.0-13.0-2.0-1.0","66358a8c455c8ca13957e2ca","6790928bebf0b969fc839b02","679826234ab24870b19de8dd","passed","","1332","","","","","","","","","","","","","","j","yesOrNo_prac","","","","4","","","gt","3000","","","","",""
"","","","","","html-keyboard-response","51","383506","0.0-13.0-2.0-0.1","66358a8c455c8ca13957e2ca","6790928bebf0b969fc839b02","679826234ab24870b19de8dd","passed","","","","","","","","","","","","","","","","","ballFalling_prac","584","536","296","1","fallScene","true","","","","","","",""
"","","","","","html-keyboard-response","52","386508","0.0-13.0-2.0-1.1","66358a8c455c8ca13957e2ca","6790928bebf0b969fc839b02","679826234ab24870b19de8dd","passed","","1956","","","","","","","","","","","","","","f","yesOrNo_prac","","","","1","","","close gt","3000","","","","",""
"","","","","","html-keyboard-response","53","388072","0.0-13.0-2.0-0.2","66358a8c455c8ca13957e2ca","6790928bebf0b969fc839b02","679826234ab24870b19de8dd","passed","","","","","","","","","","","","","","","","","ballFalling_prac","416","464","296","1","fallScene","false","","","","","","",""
"","","","","","html-keyboard-response","54","391074","0.0-13.0-2.0-1.2","66358a8c455c8ca13957e2ca","6790928bebf0b969fc839b02","679826234ab24870b19de8dd","passed","","2093","","","","","","","","","","","","","","f","yesOrNo_prac","","","","1","","","far gt","3000","","","","",""
"","","","","","html-keyboard-response","55","392972","0.0-13.0-3.0","66358a8c455c8ca13957e2ca","6790928bebf0b969fc839b02","679826234ab24870b19de8dd","passed","","1897","","","","","","","","","","","","","<p><span style=""font-size:40px;"">Practice BLOCK 2</span></p><p><span style=""font-size:25px;"">You have <b style=""color: #FF644F;""><strong>1 second(s)</strong></b> to respond to the following trials.</span><br></p><p id=""blinking-text"" style=""font-weight; animation: blink 2s infinite;"">Press Space to continue</p><style>
                    @keyframes blink {
                        50% {
                            opacity: 0;
                        }
                    }
                </style>"," ","","","","","","","","","","","","","",""
"","","","","","html-keyboard-response","56","394539","0.0-13.0-4.0-0.0","66358a8c455c8ca13957e2ca","6790928bebf0b969fc839b02","679826234ab24870b19de8dd","passed","","","","","","","","","","","","","","","","","ballFalling_prac","441","500","317","6","fallScene","true","","","","","","",""
"","","","","","html-keyboard-response","57","395542","0.0-13.0-4.0-1.0","66358a8c455c8ca13957e2ca","6790928bebf0b969fc839b02","679826234ab24870b19de8dd","passed","","745","","","","","","","","","","","","","","j","yesOrNo_prac","","","","6","","","gt","1000","","","","",""
"","","","","","html-keyboard-response","58","397656","0.0-13.0-4.0-0.1","66358a8c455c8ca13957e2ca","6790928bebf0b969fc839b02","679826234ab24870b19de8dd","passed","","","","","","","","","","","","","","","","","ballFalling_prac","340","334","350","3","fallScene","true","","","","","","",""
"","","","","","html-keyboard-response","59","398658","0.0-13.0-4.0-1.1","66358a8c455c8ca13957e2ca","6790928bebf0b969fc839b02","679826234ab24870b19de8dd","passed","","926","","","","","","","","","","","","","","j","yesOrNo_prac","","","","3","","","close gt","1000","","","","",""
"","","","","","html-keyboard-response","60","400239","0.0-13.0-4.0-0.2","66358a8c455c8ca13957e2ca","6790928bebf0b969fc839b02","679826234ab24870b19de8dd","passed","","","","","","","","","","","","","","","","","ballFalling_prac","660","610","263","4","fallScene","false","","","","","","",""
"","","","","","html-keyboard-response","61","401242","0.0-13.0-4.0-1.2","66358a8c455c8ca13957e2ca","6790928bebf0b969fc839b02","679826234ab24870b19de8dd","passed","","738","","","","","","","","","","","","","","j","yesOrNo_prac","","","","4","","","far gt","1000","","","","",""
"","","","","","instructions","62","405946","0.0-13.0-5.0","66358a8c455c8ca13957e2ca","6790928bebf0b969fc839b02","679826234ab24870b19de8dd","passed","[{""page_index"":0,""viewing_time"":4704}]","4704","","","","","","","","","","","","","","","","","","","","","","","","","","","",""
"","","","","","html-keyboard-response","63","407411","0.0-13.0-6.0","66358a8c455c8ca13957e2ca","6790928bebf0b969fc839b02","679826234ab24870b19de8dd","passed","","1464","","","","","","","","","","","","","<p><span style=""font-size:40px;"">Practice Test BLOCK 1</span></p><p><span style=""font-size:25px;"">You have <b style=""color: #FF644F;""><strong>1 second(s)</strong></b> to respond to the following trials.</span><br></p><p id=""blinking-text"" style=""font-weight; animation: blink 2s infinite;"">Press Space to continue</p><style>
                    @keyframes blink {
                        50% {
                            opacity: 0;
                        }
                    }
                </style>"," ","","","","","","","","","","","","","",""
"","","","","","html-keyboard-response","64","408989","0.0-13.0-7.0-0.0","66358a8c455c8ca13957e2ca","6790928bebf0b969fc839b02","679826234ab24870b19de8dd","passed","","","","","","","","","","","","","","","","","ballFalling_prac","559","586","302","5","fallScene","false","","","","","","",""
"","","","","","html-keyboard-response","65","409992","0.0-13.0-7.0-1.0","66358a8c455c8ca13957e2ca","6790928bebf0b969fc839b02","679826234ab24870b19de8dd","passed","","null","","","","","","","","","","","","","","null","yesOrNo_prac","","","","5","","","gt","1000","","","","",""
"","","","","","html-keyboard-response","66","411556","0.0-13.0-7.0-0.1","66358a8c455c8ca13957e2ca","6790928bebf0b969fc839b02","679826234ab24870b19de8dd","passed","","","","","","","","","","","","","","","","","ballFalling_prac","441","500","317","6","fallScene","true","","","","","","",""
"","","","","","html-keyboard-response","67","412558","0.0-13.0-7.0-1.1","66358a8c455c8ca13957e2ca","6790928bebf0b969fc839b02","679826234ab24870b19de8dd","passed","","838","","","","","","","","","","","","","","f","yesOrNo_prac","","","","6","","","close gt","1000","","","","",""
"","","","","","html-keyboard-response","68","414140","0.0-13.0-7.0-0.2","66358a8c455c8ca13957e2ca","6790928bebf0b969fc839b02","679826234ab24870b19de8dd","passed","","","","","","","","","","","","","","","","","ballFalling_prac","340","390","263","4","fallScene","true","","","","","","",""
"","","","","","html-keyboard-response","69","415142","0.0-13.0-7.0-1.2","66358a8c455c8ca13957e2ca","6790928bebf0b969fc839b02","679826234ab24870b19de8dd","passed","","809","","","","","","","","","","","","","","j","yesOrNo_prac","","","","4","","","far gt","1000","","","","",""
"","","","","","html-keyboard-response","70","416771","0.0-13.0-8.0","66358a8c455c8ca13957e2ca","6790928bebf0b969fc839b02","679826234ab24870b19de8dd","passed","","1628","","","","","","","","","","","","","<p><span style=""font-size:40px;"">Practice Test BLOCK 2</span></p><p><span style=""font-size:25px;"">You have <b style=""color: #FF644F;""><strong>3 second(s)</strong></b> to respond to the following trials.</span><br></p><p id=""blinking-text"" style=""font-weight; animation: blink 2s infinite;"">Press Space to continue</p><style>
                    @keyframes blink {
                        50% {
                            opacity: 0;
                        }
                    }
                </style>"," ","","","","","","","","","","","","","",""
"","","","","","html-keyboard-response","71","418355","0.0-13.0-9.0-0.0","66358a8c455c8ca13957e2ca","6790928bebf0b969fc839b02","679826234ab24870b19de8dd","passed","","","","","","","","","","","","","","","","","ballFalling_prac","416","365","249","2","fallScene","false","","","","","","",""
"","","","","","html-keyboard-response","72","421358","0.0-13.0-9.0-1.0","66358a8c455c8ca13957e2ca","6790928bebf0b969fc839b02","679826234ab24870b19de8dd","passed","","934","","","","","","","","","","","","","","j","yesOrNo_prac","","","","2","","","gt","3000","","","","",""
"","","","","","html-keyboard-response","73","422938","0.0-13.0-9.0-0.1","66358a8c455c8ca13957e2ca","6790928bebf0b969fc839b02","679826234ab24870b19de8dd","passed","","","","","","","","","","","","","","","","","ballFalling_prac","340","390","263","4","fallScene","true","","","","","","",""
"","","","","","html-keyboard-response","74","425941","0.0-13.0-9.0-1.1","66358a8c455c8ca13957e2ca","6790928bebf0b969fc839b02","679826234ab24870b19de8dd","passed","","1056","","","","","","","","","","","","","","j","yesOrNo_prac","","","","4","","","close gt","3000","","","","",""
"","","","","","html-keyboard-response","75","427522","0.0-13.0-9.0-0.2","66358a8c455c8ca13957e2ca","6790928bebf0b969fc839b02","679826234ab24870b19de8dd","passed","","","","","","","","","","","","","","","","","ballFalling_prac","559","586","302","5","fallScene","false","","","","","","",""
"","","","","","html-keyboard-response","76","430525","0.0-13.0-9.0-1.2","66358a8c455c8ca13957e2ca","6790928bebf0b969fc839b02","679826234ab24870b19de8dd","passed","","1166","","","","","","","","","","","","","","j","yesOrNo_prac","","","","5","","","far gt","3000","","","","",""
"","","","","","instructions","77","432565","0.0-14.0","66358a8c455c8ca13957e2ca","6790928bebf0b969fc839b02","679826234ab24870b19de8dd","passed","[{""page_index"":0,""viewing_time"":2039}]","2039","","","","","","","","","","","","","","","","","","","","","","","","","","","",""
"","","","","","html-keyboard-response","78","433449","0.0-15.0","66358a8c455c8ca13957e2ca","6790928bebf0b969fc839b02","679826234ab24870b19de8dd","passed","","884","","","","","","","","","","","","","<p><span style=""font-size:40px;"">BLOCK 1</span></p><p><span style=""font-size:25px;"">You have <b style=""color: #FF644F;""><strong>1 second(s)</strong></b> to respond to the following trials.</span><br></p><p></p> <!-- Blank line -->
                <p id=""blinking-text"" style=""font-weight; animation: blink 2s infinite;"">Press Space to continue</p>
                <style>
                    @keyframes blink {
                        50% {
                            opacity: 0;
                        }
                    }
                </style></p>"," ","","","","","","","","","","","","","",""
"","","","","","html-keyboard-response","79","435005","0.0-16.0-0.0","66358a8c455c8ca13957e2ca","6790928bebf0b969fc839b02","679826234ab24870b19de8dd","passed","","","","","","","","","","","","","","","","","ballFalling","322.3","356.42114317029973","357.87","4","fallScene","true","","","","","1","",""
"","","","","","html-keyboard-response","80","436006","0.0-16.0-1.0","66358a8c455c8ca13957e2ca","6790928bebf0b969fc839b02","679826234ab24870b19de8dd","passed","","632","","","","","","","","","","","","","","j","yesOrNo","","","","4","","","lp","1000","","","1","323.3","297.4070551689986"
"","","","","","html-keyboard-response","81","438022","0.0-16.0-0.1","66358a8c455c8ca13957e2ca","6790928bebf0b969fc839b02","679826234ab24870b19de8dd","passed","","","","","","","","","","","","","","","","","ballFalling","604.4000000000001","596.8711431702998","394.5","10","fallScene","false","","","","","2","",""
"","","","","","html-keyboard-response","82","439024","0.0-16.0-1.1","66358a8c455c8ca13957e2ca","6790928bebf0b969fc839b02","679826234ab24870b19de8dd","passed","","844","","","","","","","","","","","","","","j","yesOrNo","","","","10","","","lp","1000","","","2","603.4000000000001","215.50214355555383"
"","","","","","html-keyboard-response","83","440689","0.0-16.0-0.2","66358a8c455c8ca13957e2ca","6790928bebf0b969fc839b02","679826234ab24870b19de8dd","passed","","","","","","","","","","","","","","","","","ballFalling","500","479.92114317029973","330.87","6","fallScene","false","","","","","3","",""
"","","","","","html-keyboard-response","84","441690","0.0-16.0-1.2","66358a8c455c8ca13957e2ca","6790928bebf0b969fc839b02","679826234ab24870b19de8dd","passed","","602","","","","","","","","","","","","","","f","yesOrNo","","","","6","","","lp","1000","","","3","499","189.92909825697632"
"","","","","","html-keyboard-response","85","443256","0.0-16.0-0.3","66358a8c455c8ca13957e2ca","6790928bebf0b969fc839b02","679826234ab24870b19de8dd","passed","","","","","","","","","","","","","","","","","ballFalling","322.3","379.3711431702997","245.25","1","fallScene","false","","","","","4","",""
"","","","","","html-keyboard-response","86","444258","0.0-16.0-1.3","66358a8c455c8ca13957e2ca","6790928bebf0b969fc839b02","679826234ab24870b19de8dd","passed","","716","","","","","","","","","","","","","","j","yesOrNo","","","","1","","","lp","1000","","","4","323.3","217.74551669457017"
"","","","","","html-keyboard-response","87","445822","0.0-16.0-0.4","66358a8c455c8ca13957e2ca","6790928bebf0b969fc839b02","679826234ab24870b19de8dd","passed","","","","","","","","","","","","","","","","","ballFalling","604.4000000000001","575.4211431702997","266.76","12","fallScene","false","","","","","5","",""
"","","","","","html-keyboard-response","88","446825","0.0-16.0-1.4","66358a8c455c8ca13957e2ca","6790928bebf0b969fc839b02","679826234ab24870b19de8dd","passed","","661","","","","","","","","","","","","","","f","yesOrNo","","","","12","","","mid","1000","","","5","536.4288568297004","300"
"","","","","","html-keyboard-response","89","448323","0.0-16.0-0.5","66358a8c455c8ca13957e2ca","6790928bebf0b969fc839b02","679826234ab24870b19de8dd","passed","","","","","","","","","","","","","","","","","ballFalling","604.4000000000001","667.6211431702998","201.78","9","fallScene","true","","","","","6","",""
"","","","","","html-keyboard-response","90","449325","0.0-16.0-1.5","66358a8c455c8ca13957e2ca","6790928bebf0b969fc839b02","679826234ab24870b19de8dd","passed","","889","","","","","","","","","","","","","","f","yesOrNo","","","","9","","","lp","1000","","","6","605.4000000000001","151"
"","","","","","html-keyboard-response","91","450822","0.0-16.0-0.6","66358a8c455c8ca13957e2ca","6790928bebf0b969fc839b02","679826234ab24870b19de8dd","passed","","","","","","","","","","","","","","","","","ballFalling","604.4000000000001","667.6211431702998","201.78","9","fallScene","true","","","","","7","",""
"","","","","","html-keyboard-response","92","451823","0.0-16.0-1.6","66358a8c455c8ca13957e2ca","6790928bebf0b969fc839b02","679826234ab24870b19de8dd","passed","","null","","","","","","","","","","","","","","null","yesOrNo","","","","9","","","gt","1000","","","7","667.6211431702998","201.78"
"","","","","","html-keyboard-response","93","453389","0.0-16.0-0.7","66358a8c455c8ca13957e2ca","6790928bebf0b969fc839b02","679826234ab24870b19de8dd","passed","","","","","","","","","","","","","","","","","ballFalling","322.3","379.3711431702997","245.25","1","fallScene","true","","","","","8","",""
"","","","","","html-keyboard-response","94","454392","0.0-16.0-1.7","66358a8c455c8ca13957e2ca","6790928bebf0b969fc839b02","679826234ab24870b19de8dd","passed","","577","","","","","","","","","","","","","","j","yesOrNo","","","","1","","","gt","1000","","","8","379.3711431702997","245.25"
"","","","","","html-keyboard-response","95","456405","0.0-16.0-0.8","66358a8c455c8ca13957e2ca","6790928bebf0b969fc839b02","679826234ab24870b19de8dd","passed","","","","","","","","","","","","","","","","","ballFalling","500","510.8711431702997","369.03","8","fallScene","true","","","","","9","",""
"","","","","","html-keyboard-response","96","457408","0.0-16.0-1.8","66358a8c455c8ca13957e2ca","6790928bebf0b969fc839b02","679826234ab24870b19de8dd","passed","","null","","","","","","","","","","","","","","null","yesOrNo","","","","8","","","gt","1000","","","9","510.8711431702997","369.03"
"","","","","","html-keyboard-response","97","459073","0.0-16.0-0.9","66358a8c455c8ca13957e2ca","6790928bebf0b969fc839b02","679826234ab24870b19de8dd","passed","","","","","","","","","","","","","","","","","ballFalling","500","479.92114317029973","330.87","6","fallScene","true","","","","","10","",""
"","","","","","html-keyboard-response","98","460075","0.0-16.0-1.9","66358a8c455c8ca13957e2ca","6790928bebf0b969fc839b02","679826234ab24870b19de8dd","passed","","413","","","","","","","","","","","","","","f","yesOrNo","","","","6","","","mid","1000","","","10","499","300"
"","","","","","html-keyboard-response","99","461639","0.0-16.0-0.10","66358a8c455c8ca13957e2ca","6790928bebf0b969fc839b02","679826234ab24870b19de8dd","passed","","","","","","","","","","","","","","","","","ballFalling","500","453.67114317029973","210.33","5","fallScene","false","","","","","11","",""
"","","","","","html-keyboard-response","100","462642","0.0-16.0-1.10","66358a8c455c8ca13957e2ca","6790928bebf0b969fc839b02","679826234ab24870b19de8dd","passed","","822","","","","","","","","","","","","","","f","yesOrNo","","","","5","","","lp","1000","","","11","499","151"
"","","","","","html-keyboard-response","101","464206","0.0-16.0-0.11","66358a8c455c8ca13957e2ca","6790928bebf0b969fc839b02","679826234ab24870b19de8dd","passed","","","","","","","","","","","","","","","","","ballFalling","604.4000000000001","650.0211431702996","404.58000000000004","11","fallScene","false","","","","","12","",""
"","","","","","html-keyboard-response","102","465208","0.0-16.0-1.11","66358a8c455c8ca13957e2ca","6790928bebf0b969fc839b02","679826234ab24870b19de8dd","passed","","937","","","","","","","","","","","","","","f","yesOrNo","","","","11","","","gt","1000","","","12","650.0211431702996","404.58"
"","","","","","html-keyboard-response","103","466773","0.0-16.0-0.12","66358a8c455c8ca13957e2ca","6790928bebf0b969fc839b02","679826234ab24870b19de8dd","passed","","","","","","","","","","","","","","","","","ballFalling","322.3","296.07114317029976","371.46","3","fallScene","false","","","","","13","",""
"","","","","","html-keyboard-response","104","467775","0.0-16.0-1.12","66358a8c455c8ca13957e2ca","6790928bebf0b969fc839b02","679826234ab24870b19de8dd","passed","","742","","","","","","","","","","","","","","j","yesOrNo","","","","3","","","lp","1000","","","13","321.3","287.3327096511259"
"","","","","","html-keyboard-response","105","469339","0.0-16.0-0.13","66358a8c455c8ca13957e2ca","6790928bebf0b969fc839b02","679826234ab24870b19de8dd","passed","","","","","","","","","","","","","","","","","ballFalling","322.3","296.07114317029976","371.46","3","fallScene","false","","","","","14","",""
"","","","","","html-keyboard-response","106","470341","0.0-16.0-1.13","66358a8c455c8ca13957e2ca","6790928bebf0b969fc839b02","679826234ab24870b19de8dd","passed","","826","","","","","","","","","","","","","","j","yesOrNo","","","","3","","","gt","1000","","","14","296.07114317029976","371.46"
"","","","","","html-keyboard-response","107","471922","0.0-16.0-0.14","66358a8c455c8ca13957e2ca","6790928bebf0b969fc839b02","679826234ab24870b19de8dd","passed","","","","","","","","","","","","","","","","","ballFalling","500","553.4711431702997","282.51","7","fallScene","true","","","","","15","",""
"","","","","","html-keyboard-response","108","472925","0.0-16.0-1.14","66358a8c455c8ca13957e2ca","6790928bebf0b969fc839b02","679826234ab24870b19de8dd","passed","","868","","","","","","","","","","","","","","j","yesOrNo","","","","7","","","mid","1000","","","15","501","300"
"","","","","","html-keyboard-response","109","474422","0.0-16.0-0.15","66358a8c455c8ca13957e2ca","6790928bebf0b969fc839b02","679826234ab24870b19de8dd","passed","","","","","","","","","","","","","","","","","ballFalling","604.4000000000001","667.6211431702998","201.78","9","fallScene","true","","","","","16","",""
"","","","","","html-keyboard-response","110","475423","0.0-16.0-1.15","66358a8c455c8ca13957e2ca","6790928bebf0b969fc839b02","679826234ab24870b19de8dd","passed","","469","","","","","","","","","","","","","","f","yesOrNo","","","","9","","","gt","1000","","","16","667.6211431702998","201.78"
"","","","","","html-keyboard-response","111","476923","0.0-16.0-0.16","66358a8c455c8ca13957e2ca","6790928bebf0b969fc839b02","679826234ab24870b19de8dd","passed","","","","","","","","","","","","","","","","","ballFalling","604.4000000000001","667.6211431702998","201.78","9","fallScene","false","","","","","17","",""
"","","","","","html-keyboard-response","112","477925","0.0-16.0-1.16","66358a8c455c8ca13957e2ca","6790928bebf0b969fc839b02","679826234ab24870b19de8dd","passed","","424","","","","","","","","","","","","","","f","yesOrNo","","","","9","","","mid","1000","","","17","605.4000000000001","300"
"","","","","","html-keyboard-response","113","479489","0.0-16.0-0.17","66358a8c455c8ca13957e2ca","6790928bebf0b969fc839b02","679826234ab24870b19de8dd","passed","","","","","","","","","","","","","","","","","ballFalling","604.4000000000001","650.0211431702996","404.58000000000004","11","fallScene","false","","","","","18","",""
"","","","","","html-keyboard-response","114","480492","0.0-16.0-1.17","66358a8c455c8ca13957e2ca","6790928bebf0b969fc839b02","679826234ab24870b19de8dd","passed","","384","","","","","","","","","","","","","","j","yesOrNo","","","","11","","","gt","1000","","","18","650.0211431702996","404.58"
"","","","","","html-keyboard-response","115","482072","0.0-16.0-0.18","66358a8c455c8ca13957e2ca","6790928bebf0b969fc839b02","679826234ab24870b19de8dd","passed","","","","","","","","","","","","","","","","","ballFalling","500","553.4711431702997","282.51","7","fallScene","true","","","","","19","",""
"","","","","","html-keyboard-response","116","483074","0.0-16.0-1.18","66358a8c455c8ca13957e2ca","6790928bebf0b969fc839b02","679826234ab24870b19de8dd","passed","","437","","","","","","","","","","","","","","f","yesOrNo","","","","7","","","lp","1000","","","19","501","227.2843295913261"
"","","","","","html-keyboard-response","117","484640","0.0-16.0-0.19","66358a8c455c8ca13957e2ca","6790928bebf0b969fc839b02","679826234ab24870b19de8dd","passed","","","","","","","","","","","","","","","","","ballFalling","322.3","296.07114317029976","371.46","3","fallScene","false","","","","","20","",""
"","","","","","html-keyboard-response","118","485641","0.0-16.0-1.19","66358a8c455c8ca13957e2ca","6790928bebf0b969fc839b02","679826234ab24870b19de8dd","passed","","610","","","","","","","","","","","","","","j","yesOrNo","","","","3","","","mid","1000","","","20","321.3","300"
"","","","","","html-keyboard-response","119","487206","0.0-16.0-0.20","66358a8c455c8ca13957e2ca","6790928bebf0b969fc839b02","679826234ab24870b19de8dd","passed","","","","","","","","","","","","","","","","","ballFalling","322.3","379.3711431702997","245.25","1","fallScene","false","","","","","21","",""
"","","","","","html-keyboard-response","120","488208","0.0-16.0-1.20","66358a8c455c8ca13957e2ca","6790928bebf0b969fc839b02","679826234ab24870b19de8dd","passed","","568","","","","","","","","","","","","","","j","yesOrNo","","","","1","","","mid","1000","","","21","390.27114317029975","300"
"","","","","","html-keyboard-response","121","489773","0.0-16.0-0.21","66358a8c455c8ca13957e2ca","6790928bebf0b969fc839b02","679826234ab24870b19de8dd","passed","","","","","","","","","","","","","","","","","ballFalling","322.3","356.42114317029973","357.87","4","fallScene","false","","","","","22","",""
"","","","","","html-keyboard-response","122","490775","0.0-16.0-1.21","66358a8c455c8ca13957e2ca","6790928bebf0b969fc839b02","679826234ab24870b19de8dd","passed","","810","","","","","","","","","","","","","","f","yesOrNo","","","","4","","","lp","1000","","","22","323.3","297.4070551689986"
"","","","","","html-keyboard-response","123","492339","0.0-16.0-0.22","66358a8c455c8ca13957e2ca","6790928bebf0b969fc839b02","679826234ab24870b19de8dd","passed","","","","","","","","","","","","","","","","","ballFalling","322.3","356.42114317029973","357.87","4","fallScene","true","","","","","23","",""
"","","","","","html-keyboard-response","124","493341","0.0-16.0-1.22","66358a8c455c8ca13957e2ca","6790928bebf0b969fc839b02","679826234ab24870b19de8dd","passed","","407","","","","","","","","","","","","","","f","yesOrNo","","","","4","","","gt","1000","","","23","356.42114317029973","357.87"
"","","","","","html-keyboard-response","125","494907","0.0-16.0-0.23","66358a8c455c8ca13957e2ca","6790928bebf0b969fc839b02","679826234ab24870b19de8dd","passed","","","","","","","","","","","","","","","","","ballFalling","604.4000000000001","575.4211431702997","266.76","12","fallScene","false","","","","","24","",""
"","","","","","html-keyboard-response","126","495908","0.0-16.0-1.23","66358a8c455c8ca13957e2ca","6790928bebf0b969fc839b02","679826234ab24870b19de8dd","passed","","824","","","","","","","","","","","","","","f","yesOrNo","","","","12","","","lp","1000","","","24","603.4000000000001","151"
"","","","","","html-keyboard-response","127","497037","0.0-17.0","66358a8c455c8ca13957e2ca","6790928bebf0b969fc839b02","679826234ab24870b19de8dd","passed","","1128","","","","","","","","","","","","","<p><span style=""font-size:40px;"">BLOCK 2</span></p><p><span style=""font-size:25px;"">You have <b style=""color: #FF644F;""><strong>1 second(s)</strong></b> to respond to the following trials.</span><br></p><p></p> <!-- Blank line -->
                <p id=""blinking-text"" style=""font-weight; animation: blink 2s infinite;"">Press Space to continue</p>
                <style>
                    @keyframes blink {
                        50% {
                            opacity: 0;
                        }
                    }
                </style></p>"," ","","","","","","","","","","","","","",""
"","","","","","html-keyboard-response","128","498605","0.0-18.0-0.0","66358a8c455c8ca13957e2ca","6790928bebf0b969fc839b02","679826234ab24870b19de8dd","passed","","","","","","","","","","","","","","","","","ballFalling","500","553.4711431702997","282.51","7","fallScene","false","","","","","25","",""
"","","","","","html-keyboard-response","129","499607","0.0-18.0-1.0","66358a8c455c8ca13957e2ca","6790928bebf0b969fc839b02","679826234ab24870b19de8dd","passed","","691","","","","","","","","","","","","","","f","yesOrNo","","","","7","","","gt","1000","","","25","553.4711431702997","282.51"
"","","","","","html-keyboard-response","130","501173","0.0-18.0-0.1","66358a8c455c8ca13957e2ca","6790928bebf0b969fc839b02","679826234ab24870b19de8dd","passed","","","","","","","","","","","","","","","","","ballFalling","604.4000000000001","575.4211431702997","266.76","12","fallScene","false","","","","","26","",""
"","","","","","html-keyboard-response","131","502175","0.0-18.0-1.1","66358a8c455c8ca13957e2ca","6790928bebf0b969fc839b02","679826234ab24870b19de8dd","passed","","619","","","","","","","","","","","","","","f","yesOrNo","","","","12","","","lp","1000","","","26","603.4000000000001","151"
"","","","","","html-keyboard-response","132","503838","0.0-18.0-0.2","66358a8c455c8ca13957e2ca","6790928bebf0b969fc839b02","679826234ab24870b19de8dd","passed","","","","","","","","","","","","","","","","","ballFalling","500","479.92114317029973","330.87","6","fallScene","true","","","","","27","",""
"","","","","","html-keyboard-response","133","504841","0.0-18.0-1.2","66358a8c455c8ca13957e2ca","6790928bebf0b969fc839b02","679826234ab24870b19de8dd","passed","","570","","","","","","","","","","","","","","f","yesOrNo","","","","6","","","mid","1000","","","27","499","300"
"","","","","","html-keyboard-response","134","506405","0.0-18.0-0.3","66358a8c455c8ca13957e2ca","6790928bebf0b969fc839b02","679826234ab24870b19de8dd","passed","","","","","","","","","","","","","","","","","ballFalling","500","453.67114317029973","210.33","5","fallScene","false","","","","","28","",""
"","","","","","html-keyboard-response","135","507407","0.0-18.0-1.3","66358a8c455c8ca13957e2ca","6790928bebf0b969fc839b02","679826234ab24870b19de8dd","passed","","541","","","","","","","","","","","","","","f","yesOrNo","","","","5","","","gt","1000","","","28","453.6711431702998","210.33"
"","","","","","html-keyboard-response","136","509073","0.0-18.0-0.4","66358a8c455c8ca13957e2ca","6790928bebf0b969fc839b02","679826234ab24870b19de8dd","passed","","","","","","","","","","","","","","","","","ballFalling","500","479.92114317029973","330.87","6","fallScene","true","","","","","29","",""
"","","","","","html-keyboard-response","137","510075","0.0-18.0-1.4","66358a8c455c8ca13957e2ca","6790928bebf0b969fc839b02","679826234ab24870b19de8dd","passed","","582","","","","","","","","","","","","","","f","yesOrNo","","","","6","","","lp","1000","","","29","499","189.92909825697632"
"","","","","","html-keyboard-response","138","511739","0.0-18.0-0.5","66358a8c455c8ca13957e2ca","6790928bebf0b969fc839b02","679826234ab24870b19de8dd","passed","","","","","","","","","","","","","","","","","ballFalling","500","479.92114317029973","330.87","6","fallScene","true","","","","","30","",""
"","","","","","html-keyboard-response","139","512742","0.0-18.0-1.5","66358a8c455c8ca13957e2ca","6790928bebf0b969fc839b02","679826234ab24870b19de8dd","passed","","740","","","","","","","","","","","","","","f","yesOrNo","","","","6","","","gt","1000","","","30","479.9211431702998","330.87"
"","","","","","html-keyboard-response","140","514305","0.0-18.0-0.6","66358a8c455c8ca13957e2ca","6790928bebf0b969fc839b02","679826234ab24870b19de8dd","passed","","","","","","","","","","","","","","","","","ballFalling","604.4000000000001","575.4211431702997","266.76","12","fallScene","false","","","","","31","",""
"","","","","","html-keyboard-response","141","515308","0.0-18.0-1.6","66358a8c455c8ca13957e2ca","6790928bebf0b969fc839b02","679826234ab24870b19de8dd","passed","","568","","","","","","","","","","","","","","f","yesOrNo","","","","12","","","mid","1000","","","31","536.4288568297004","300"
"","","","","","html-keyboard-response","142","516873","0.0-18.0-0.7","66358a8c455c8ca13957e2ca","6790928bebf0b969fc839b02","679826234ab24870b19de8dd","passed","","","","","","","","","","","","","","","","","ballFalling","604.4000000000001","650.0211431702996","404.58000000000004","11","fallScene","true","","","","","32","",""
"","","","","","html-keyboard-response","143","517875","0.0-18.0-1.7","66358a8c455c8ca13957e2ca","6790928bebf0b969fc839b02","679826234ab24870b19de8dd","passed","","452","","","","","","","","","","","","","","j","yesOrNo","","","","11","","","lp","1000","","","32","605.4000000000001","372.6340973215488"
"","","","","","html-keyboard-response","144","519889","0.0-18.0-0.8","66358a8c455c8ca13957e2ca","6790928bebf0b969fc839b02","679826234ab24870b19de8dd","passed","","","","","","","","","","","","","","","","","ballFalling","500","510.8711431702997","369.03","8","fallScene","true","","","","","33","",""
"","","","","","html-keyboard-response","145","520890","0.0-18.0-1.8","66358a8c455c8ca13957e2ca","6790928bebf0b969fc839b02","679826234ab24870b19de8dd","passed","","781","","","","","","","","","","","","","","j","yesOrNo","","","","8","","","mid","1000","","","33","501","300"
"","","","","","html-keyboard-response","146","522456","0.0-18.0-0.9","66358a8c455c8ca13957e2ca","6790928bebf0b969fc839b02","679826234ab24870b19de8dd","passed","","","","","","","","","","","","","","","","","ballFalling","604.4000000000001","650.0211431702996","404.58000000000004","11","fallScene","false","","","","","34","",""
"","","","","","html-keyboard-response","147","523458","0.0-18.0-1.9","66358a8c455c8ca13957e2ca","6790928bebf0b969fc839b02","679826234ab24870b19de8dd","passed","","953","","","","","","","","","","","","","","j","yesOrNo","","","","11","","","mid","1000","","","34","605.4000000000001","300"
"","","","","","html-keyboard-response","148","525022","0.0-18.0-0.10","66358a8c455c8ca13957e2ca","6790928bebf0b969fc839b02","679826234ab24870b19de8dd","passed","","","","","","","","","","","","","","","","","ballFalling","604.4000000000001","575.4211431702997","266.76","12","fallScene","false","","","","","35","",""
"","","","","","html-keyboard-response","149","526024","0.0-18.0-1.10","66358a8c455c8ca13957e2ca","6790928bebf0b969fc839b02","679826234ab24870b19de8dd","passed","","781","","","","","","","","","","","","","","f","yesOrNo","","","","12","","","gt","1000","","","35","575.4211431702997","266.76"
"","","","","","html-keyboard-response","150","527822","0.0-18.0-0.11","66358a8c455c8ca13957e2ca","6790928bebf0b969fc839b02","679826234ab24870b19de8dd","passed","","","","","","","","","","","","","","","","","ballFalling","322.3","308.07114317029976","253.89","2","fallScene","false","","","","","36","",""
"","","","","","html-keyboard-response","151","528824","0.0-18.0-1.11","66358a8c455c8ca13957e2ca","6790928bebf0b969fc839b02","679826234ab24870b19de8dd","passed","","929","","","","","","","","","","","","","","j","yesOrNo","","","","2","","","mid","1000","","","36","321.3","300"
"","","","","","html-keyboard-response","152","530389","0.0-18.0-0.12","66358a8c455c8ca13957e2ca","6790928bebf0b969fc839b02","679826234ab24870b19de8dd","passed","","","","","","","","","","","","","","","","","ballFalling","322.3","356.42114317029973","357.87","4","fallScene","false","","","","","37","",""
"","","","","","html-keyboard-response","153","531391","0.0-18.0-1.12","66358a8c455c8ca13957e2ca","6790928bebf0b969fc839b02","679826234ab24870b19de8dd","passed","","535","","","","","","","","","","","","","","f","yesOrNo","","","","4","","","gt","1000","","","37","356.42114317029973","357.87"
"","","","","","html-keyboard-response","154","532956","0.0-18.0-0.13","66358a8c455c8ca13957e2ca","6790928bebf0b969fc839b02","679826234ab24870b19de8dd","passed","","","","","","","","","","","","","","","","","ballFalling","322.3","379.3711431702997","245.25","1","fallScene","false","","","","","38","",""
"","","","","","html-keyboard-response","155","533958","0.0-18.0-1.13","66358a8c455c8ca13957e2ca","6790928bebf0b969fc839b02","679826234ab24870b19de8dd","passed","","707","","","","","","","","","","","","","","j","yesOrNo","","","","1","","","mid","1000","","","38","390.27114317029975","300"
"","","","","","html-keyboard-response","156","535523","0.0-18.0-0.14","66358a8c455c8ca13957e2ca","6790928bebf0b969fc839b02","679826234ab24870b19de8dd","passed","","","","","","","","","","","","","","","","","ballFalling","322.3","379.3711431702997","245.25","1","fallScene","false","","","","","39","",""
"","","","","","html-keyboard-response","157","536525","0.0-18.0-1.14","66358a8c455c8ca13957e2ca","6790928bebf0b969fc839b02","679826234ab24870b19de8dd","passed","","909","","","","","","","","","","","","","","f","yesOrNo","","","","1","","","gt","1000","","","39","379.3711431702997","245.25"
"","","","","","html-keyboard-response","158","538089","0.0-18.0-0.15","66358a8c455c8ca13957e2ca","6790928bebf0b969fc839b02","679826234ab24870b19de8dd","passed","","","","","","","","","","","","","","","","","ballFalling","322.3","296.07114317029976","371.46","3","fallScene","true","","","","","40","",""
"","","","","","html-keyboard-response","159","539092","0.0-18.0-1.15","66358a8c455c8ca13957e2ca","6790928bebf0b969fc839b02","679826234ab24870b19de8dd","passed","","685","","","","","","","","","","","","","","j","yesOrNo","","","","3","","","gt","1000","","","40","296.07114317029976","371.46"
"","","","","","html-keyboard-response","160","540889","0.0-18.0-0.16","66358a8c455c8ca13957e2ca","6790928bebf0b969fc839b02","679826234ab24870b19de8dd","passed","","","","","","","","","","","","","","","","","ballFalling","322.3","308.07114317029976","253.89","2","fallScene","true","","","","","41","",""
"","","","","","html-keyboard-response","161","541892","0.0-18.0-1.16","66358a8c455c8ca13957e2ca","6790928bebf0b969fc839b02","679826234ab24870b19de8dd","passed","","724","","","","","","","","","","","","","","f","yesOrNo","","","","2","","","lp","1000","","","41","321.3","151"
"","","","","","html-keyboard-response","162","543456","0.0-18.0-0.17","66358a8c455c8ca13957e2ca","6790928bebf0b969fc839b02","679826234ab24870b19de8dd","passed","","","","","","","","","","","","","","","","","ballFalling","604.4000000000001","650.0211431702996","404.58000000000004","11","fallScene","true","","","","","42","",""
"","","","","","html-keyboard-response","163","544458","0.0-18.0-1.17","66358a8c455c8ca13957e2ca","6790928bebf0b969fc839b02","679826234ab24870b19de8dd","passed","","736","","","","","","","","","","","","","","f","yesOrNo","","","","11","","","lp","1000","","","42","605.4000000000001","372.6340973215488"
"","","","","","html-keyboard-response","164","546022","0.0-18.0-0.18","66358a8c455c8ca13957e2ca","6790928bebf0b969fc839b02","679826234ab24870b19de8dd","passed","","","","","","","","","","","","","","","","","ballFalling","604.4000000000001","575.4211431702997","266.76","12","fallScene","true","","","","","43","",""
"","","","","","html-keyboard-response","165","547024","0.0-18.0-1.18","66358a8c455c8ca13957e2ca","6790928bebf0b969fc839b02","679826234ab24870b19de8dd","passed","","833","","","","","","","","","","","","","","f","yesOrNo","","","","12","","","gt","1000","","","43","575.4211431702997","266.76"
"","","","","","html-keyboard-response","166","548606","0.0-18.0-0.19","66358a8c455c8ca13957e2ca","6790928bebf0b969fc839b02","679826234ab24870b19de8dd","passed","","","","","","","","","","","","","","","","","ballFalling","500","553.4711431702997","282.51","7","fallScene","false","","","","","44","",""
"","","","","","html-keyboard-response","167","549608","0.0-18.0-1.19","66358a8c455c8ca13957e2ca","6790928bebf0b969fc839b02","679826234ab24870b19de8dd","passed","","735","","","","","","","","","","","","","","j","yesOrNo","","","","7","","","mid","1000","","","44","501","300"
"","","","","","html-keyboard-response","168","551622","0.0-18.0-0.20","66358a8c455c8ca13957e2ca","6790928bebf0b969fc839b02","679826234ab24870b19de8dd","passed","","","","","","","","","","","","","","","","","ballFalling","604.4000000000001","596.8711431702998","394.5","10","fallScene","true","","","","","45","",""
"","","","","","html-keyboard-response","169","552624","0.0-18.0-1.20","66358a8c455c8ca13957e2ca","6790928bebf0b969fc839b02","679826234ab24870b19de8dd","passed","","751","","","","","","","","","","","","","","f","yesOrNo","","","","10","","","mid","1000","","","45","536.4288568297004","300"
"","","","","","html-keyboard-response","170","554638","0.0-18.0-0.21","66358a8c455c8ca13957e2ca","6790928bebf0b969fc839b02","679826234ab24870b19de8dd","passed","","","","","","","","","","","","","","","","","ballFalling","604.4000000000001","596.8711431702998","394.5","10","fallScene","true","","","","","46","",""
"","","","","","html-keyboard-response","171","555640","0.0-18.0-1.21","66358a8c455c8ca13957e2ca","6790928bebf0b969fc839b02","679826234ab24870b19de8dd","passed","","680","","","","","","","","","","","","","","f","yesOrNo","","","","10","","","gt","1000","","","46","596.8711431702998","394.5"
"","","","","","html-keyboard-response","172","557206","0.0-18.0-0.22","66358a8c455c8ca13957e2ca","6790928bebf0b969fc839b02","679826234ab24870b19de8dd","passed","","","","","","","","","","","","","","","","","ballFalling","322.3","379.3711431702997","245.25","1","fallScene","false","","","","","47","",""
"","","","","","html-keyboard-response","173","558208","0.0-18.0-1.22","66358a8c455c8ca13957e2ca","6790928bebf0b969fc839b02","679826234ab24870b19de8dd","passed","","559","","","","","","","","","","","","","","f","yesOrNo","","","","1","","","lp","1000","","","47","323.3","217.74551669457017"
"","","","","","html-keyboard-response","174","559772","0.0-18.0-0.23","66358a8c455c8ca13957e2ca","6790928bebf0b969fc839b02","679826234ab24870b19de8dd","passed","","","","","","","","","","","","","","","","","ballFalling","322.3","356.42114317029973","357.87","4","fallScene","false","","","","","48","",""
"","","","","","html-keyboard-response","175","560774","0.0-18.0-1.23","66358a8c455c8ca13957e2ca","6790928bebf0b969fc839b02","679826234ab24870b19de8dd","passed","","480","","","","","","","","","","","","","","f","yesOrNo","","","","4","","","mid","1000","","","48","390.27114317029975","300"
"","","","","","html-keyboard-response","176","561641","0.0-19.0","66358a8c455c8ca13957e2ca","6790928bebf0b969fc839b02","679826234ab24870b19de8dd","passed","","866","","","","","","","","","","","","","<p><span style=""font-size:40px;"">BLOCK 3</span></p><p><span style=""font-size:25px;"">You have <b style=""color: #FF644F;""><strong>3 second(s)</strong></b> to respond to the following trials.</span><br></p><p></p> <!-- Blank line -->
                <p id=""blinking-text"" style=""font-weight; animation: blink 2s infinite;"">Press Space to continue</p>
                <style>
                    @keyframes blink {
                        50% {
                            opacity: 0;
                        }
                    }
                </style></p>"," ","","","","","","","","","","","","","",""
"","","","","","html-keyboard-response","177","563206","0.0-20.0-0.0","66358a8c455c8ca13957e2ca","6790928bebf0b969fc839b02","679826234ab24870b19de8dd","passed","","","","","","","","","","","","","","","","","ballFalling","500","453.67114317029973","210.33","5","fallScene","true","","","","","49","",""
"","","","","","html-keyboard-response","178","566208","0.0-20.0-1.0","66358a8c455c8ca13957e2ca","6790928bebf0b969fc839b02","679826234ab24870b19de8dd","passed","","717","","","","","","","","","","","","","","j","yesOrNo","","","","5","","","mid","3000","","","49","499","300"
"","","","","","html-keyboard-response","179","567772","0.0-20.0-0.1","66358a8c455c8ca13957e2ca","6790928bebf0b969fc839b02","679826234ab24870b19de8dd","passed","","","","","","","","","","","","","","","","","ballFalling","604.4000000000001","650.0211431702996","404.58000000000004","11","fallScene","false","","","","","50","",""
"","","","","","html-keyboard-response","180","570774","0.0-20.0-1.1","66358a8c455c8ca13957e2ca","6790928bebf0b969fc839b02","679826234ab24870b19de8dd","passed","","1037","","","","","","","","","","","","","","j","yesOrNo","","","","11","","","gt","3000","","","50","650.0211431702996","404.58"
"","","","","","html-keyboard-response","181","572439","0.0-20.0-0.2","66358a8c455c8ca13957e2ca","6790928bebf0b969fc839b02","679826234ab24870b19de8dd","passed","","","","","","","","","","","","","","","","","ballFalling","500","479.92114317029973","330.87","6","fallScene","false","","","","","51","",""
"","","","","","html-keyboard-response","182","575441","0.0-20.0-1.2","66358a8c455c8ca13957e2ca","6790928bebf0b969fc839b02","679826234ab24870b19de8dd","passed","","1262","","","","","","","","","","","","","","f","yesOrNo","","","","6","","","lp","3000","","","51","499","189.92909825697632"
"","","","","","html-keyboard-response","183","577006","0.0-20.0-0.3","66358a8c455c8ca13957e2ca","6790928bebf0b969fc839b02","679826234ab24870b19de8dd","passed","","","","","","","","","","","","","","","","","ballFalling","322.3","296.07114317029976","371.46","3","fallScene","false","","","","","52","",""
"","","","","","html-keyboard-response","184","580008","0.0-20.0-1.3","66358a8c455c8ca13957e2ca","6790928bebf0b969fc839b02","679826234ab24870b19de8dd","passed","","728","","","","","","","","","","","","","","f","yesOrNo","","","","3","","","mid","3000","","","52","321.3","300"
"","","","","","html-keyboard-response","185","581573","0.0-20.0-0.4","66358a8c455c8ca13957e2ca","6790928bebf0b969fc839b02","679826234ab24870b19de8dd","passed","","","","","","","","","","","","","","","","","ballFalling","322.3","296.07114317029976","371.46","3","fallScene","true","","","","","53","",""
"","","","","","html-keyboard-response","186","584575","0.0-20.0-1.4","66358a8c455c8ca13957e2ca","6790928bebf0b969fc839b02","679826234ab24870b19de8dd","passed","","null","","","","","","","","","","","","","","null","yesOrNo","","","","3","","","gt","3000","","","53","296.07114317029976","371.46"
"","","","","","html-keyboard-response","187","586589","0.0-20.0-0.5","66358a8c455c8ca13957e2ca","6790928bebf0b969fc839b02","679826234ab24870b19de8dd","passed","","","","","","","","","","","","","","","","","ballFalling","500","510.8711431702997","369.03","8","fallScene","false","","","","","54","",""
"","","","","","html-keyboard-response","188","589591","0.0-20.0-1.5","66358a8c455c8ca13957e2ca","6790928bebf0b969fc839b02","679826234ab24870b19de8dd","passed","","1202","","","","","","","","","","","","","","j","yesOrNo","","","","8","","","mid","3000","","","54","501","300"
"","","","","","html-keyboard-response","189","591156","0.0-20.0-0.6","66358a8c455c8ca13957e2ca","6790928bebf0b969fc839b02","679826234ab24870b19de8dd","passed","","","","","","","","","","","","","","","","","ballFalling","604.4000000000001","575.4211431702997","266.76","12","fallScene","true","","","","","55","",""
"","","","","","html-keyboard-response","190","594158","0.0-20.0-1.6","66358a8c455c8ca13957e2ca","6790928bebf0b969fc839b02","679826234ab24870b19de8dd","passed","","653","","","","","","","","","","","","","","f","yesOrNo","","","","12","","","lp","3000","","","55","603.4000000000001","151"
"","","","","","html-keyboard-response","191","595723","0.0-20.0-0.7","66358a8c455c8ca13957e2ca","6790928bebf0b969fc839b02","679826234ab24870b19de8dd","passed","","","","","","","","","","","","","","","","","ballFalling","604.4000000000001","650.0211431702996","404.58000000000004","11","fallScene","false","","","","","56","",""
"","","","","","html-keyboard-response","192","598725","0.0-20.0-1.7","66358a8c455c8ca13957e2ca","6790928bebf0b969fc839b02","679826234ab24870b19de8dd","passed","","1039","","","","","","","","","","","","","","j","yesOrNo","","","","11","","","mid","3000","","","56","605.4000000000001","300"
"","","","","","html-keyboard-response","193","600288","0.0-20.0-0.8","66358a8c455c8ca13957e2ca","6790928bebf0b969fc839b02","679826234ab24870b19de8dd","passed","","","","","","","","","","","","","","","","","ballFalling","500","453.67114317029973","210.33","5","fallScene","false","","","","","57","",""
"","","","","","html-keyboard-response","194","603290","0.0-20.0-1.8","66358a8c455c8ca13957e2ca","6790928bebf0b969fc839b02","679826234ab24870b19de8dd","passed","","952","","","","","","","","","","","","","","j","yesOrNo","","","","5","","","mid","3000","","","57","499","300"
"","","","","","html-keyboard-response","195","604873","0.0-20.0-0.9","66358a8c455c8ca13957e2ca","6790928bebf0b969fc839b02","679826234ab24870b19de8dd","passed","","","","","","","","","","","","","","","","","ballFalling","500","553.4711431702997","282.51","7","fallScene","false","","","","","58","",""
"","","","","","html-keyboard-response","196","607874","0.0-20.0-1.9","66358a8c455c8ca13957e2ca","6790928bebf0b969fc839b02","679826234ab24870b19de8dd","passed","","803","","","","","","","","","","","","","","f","yesOrNo","","","","7","","","mid","3000","","","58","501","300"
"","","","","","html-keyboard-response","197","609439","0.0-20.0-0.10","66358a8c455c8ca13957e2ca","6790928bebf0b969fc839b02","679826234ab24870b19de8dd","passed","","","","","","","","","","","","","","","","","ballFalling","322.3","296.07114317029976","371.46","3","fallScene","true","","","","","59","",""
"","","","","","html-keyboard-response","198","612441","0.0-20.0-1.10","66358a8c455c8ca13957e2ca","6790928bebf0b969fc839b02","679826234ab24870b19de8dd","passed","","947","","","","","","","","","","","","","","j","yesOrNo","","","","3","","","mid","3000","","","59","321.3","300"
"","","","","","html-keyboard-response","199","614006","0.0-20.0-0.11","66358a8c455c8ca13957e2ca","6790928bebf0b969fc839b02","679826234ab24870b19de8dd","passed","","","","","","","","","","","","","","","","","ballFalling","322.3","356.42114317029973","357.87","4","fallScene","true","","","","","60","",""
"","","","","","html-keyboard-response","200","617008","0.0-20.0-1.11","66358a8c455c8ca13957e2ca","6790928bebf0b969fc839b02","679826234ab24870b19de8dd","passed","","1485","","","","","","","","","","","","","","j","yesOrNo","","","","4","","","gt","3000","","","60","356.42114317029973","357.87"
"","","","","","html-keyboard-response","201","618506","0.0-20.0-0.12","66358a8c455c8ca13957e2ca","6790928bebf0b969fc839b02","679826234ab24870b19de8dd","passed","","","","","","","","","","","","","","","","","ballFalling","604.4000000000001","667.6211431702998","201.78","9","fallScene","false","","","","","61","",""
"","","","","","html-keyboard-response","202","621509","0.0-20.0-1.12","66358a8c455c8ca13957e2ca","6790928bebf0b969fc839b02","679826234ab24870b19de8dd","passed","","2180","","","","","","","","","","","","","","j","yesOrNo","","","","9","","","mid","3000","","","61","605.4000000000001","300"
"","","","","","html-keyboard-response","203","623524","0.0-20.0-0.13","66358a8c455c8ca13957e2ca","6790928bebf0b969fc839b02","679826234ab24870b19de8dd","passed","","","","","","","","","","","","","","","","","ballFalling","500","510.8711431702997","369.03","8","fallScene","true","","","","","62","",""
"","","","","","html-keyboard-response","204","626526","0.0-20.0-1.13","66358a8c455c8ca13957e2ca","6790928bebf0b969fc839b02","679826234ab24870b19de8dd","passed","","808","","","","","","","","","","","","","","f","yesOrNo","","","","8","","","lp","3000","","","62","501","151"
"","","","","","html-keyboard-response","205","628105","0.0-20.0-0.14","66358a8c455c8ca13957e2ca","6790928bebf0b969fc839b02","679826234ab24870b19de8dd","passed","","","","","","","","","","","","","","","","","ballFalling","500","553.4711431702997","282.51","7","fallScene","false","","","","","63","",""
"","","","","","html-keyboard-response","206","631107","0.0-20.0-1.14","66358a8c455c8ca13957e2ca","6790928bebf0b969fc839b02","679826234ab24870b19de8dd","passed","","877","","","","","","","","","","","","","","f","yesOrNo","","","","7","","","gt","3000","","","63","553.4711431702997","282.51"
"","","","","","html-keyboard-response","207","632673","0.0-20.0-0.15","66358a8c455c8ca13957e2ca","6790928bebf0b969fc839b02","679826234ab24870b19de8dd","passed","","","","","","","","","","","","","","","","","ballFalling","322.3","296.07114317029976","371.46","3","fallScene","false","","","","","64","",""
"","","","","","html-keyboard-response","208","635674","0.0-20.0-1.15","66358a8c455c8ca13957e2ca","6790928bebf0b969fc839b02","679826234ab24870b19de8dd","passed","","1064","","","","","","","","","","","","","","j","yesOrNo","","","","3","","","lp","3000","","","64","321.3","287.3327096511259"
"","","","","","html-keyboard-response","209","637239","0.0-20.0-0.16","66358a8c455c8ca13957e2ca","6790928bebf0b969fc839b02","679826234ab24870b19de8dd","passed","","","","","","","","","","","","","","","","","ballFalling","604.4000000000001","575.4211431702997","266.76","12","fallScene","false","","","","","65","",""
"","","","","","html-keyboard-response","210","640241","0.0-20.0-1.16","66358a8c455c8ca13957e2ca","6790928bebf0b969fc839b02","679826234ab24870b19de8dd","passed","","1562","","","","","","","","","","","","","","f","yesOrNo","","","","12","","","gt","3000","","","65","575.4211431702997","266.76"
"","","","","","html-keyboard-response","211","641806","0.0-20.0-0.17","66358a8c455c8ca13957e2ca","6790928bebf0b969fc839b02","679826234ab24870b19de8dd","passed","","","","","","","","","","","","","","","","","ballFalling","322.3","296.07114317029976","371.46","3","fallScene","false","","","","","66","",""
"","","","","","html-keyboard-response","212","644809","0.0-20.0-1.17","66358a8c455c8ca13957e2ca","6790928bebf0b969fc839b02","679826234ab24870b19de8dd","passed","","886","","","","","","","","","","","","","","j","yesOrNo","","","","3","","","gt","3000","","","66","296.07114317029976","371.46"
"","","","","","html-keyboard-response","213","646605","0.0-20.0-0.18","66358a8c455c8ca13957e2ca","6790928bebf0b969fc839b02","679826234ab24870b19de8dd","passed","","","","","","","","","","","","","","","","","ballFalling","322.3","308.07114317029976","253.89","2","fallScene","false","","","","","67","",""
"","","","","","html-keyboard-response","214","649607","0.0-20.0-1.18","66358a8c455c8ca13957e2ca","6790928bebf0b969fc839b02","679826234ab24870b19de8dd","passed","","1355","","","","","","","","","","","","","","f","yesOrNo","","","","2","","","gt","3000","","","67","308.07114317029976","253.89"
"","","","","","html-keyboard-response","215","651105","0.0-20.0-0.19","66358a8c455c8ca13957e2ca","6790928bebf0b969fc839b02","679826234ab24870b19de8dd","passed","","","","","","","","","","","","","","","","","ballFalling","604.4000000000001","667.6211431702998","201.78","9","fallScene","true","","","","","68","",""
"","","","","","html-keyboard-response","216","654108","0.0-20.0-1.19","66358a8c455c8ca13957e2ca","6790928bebf0b969fc839b02","679826234ab24870b19de8dd","passed","","1153","","","","","","","","","","","","","","j","yesOrNo","","","","9","","","mid","3000","","","68","605.4000000000001","300"
"","","","","","html-keyboard-response","217","656123","0.0-20.0-0.20","66358a8c455c8ca13957e2ca","6790928bebf0b969fc839b02","679826234ab24870b19de8dd","passed","","","","","","","","","","","","","","","","","ballFalling","604.4000000000001","596.8711431702998","394.5","10","fallScene","true","","","","","69","",""
"","","","","","html-keyboard-response","218","659125","0.0-20.0-1.20","66358a8c455c8ca13957e2ca","6790928bebf0b969fc839b02","679826234ab24870b19de8dd","passed","","751","","","","","","","","","","","","","","f","yesOrNo","","","","10","","","lp","3000","","","69","603.4000000000001","215.50214355555383"
"","","","","","html-keyboard-response","219","660924","0.0-20.0-0.21","66358a8c455c8ca13957e2ca","6790928bebf0b969fc839b02","679826234ab24870b19de8dd","passed","","","","","","","","","","","","","","","","","ballFalling","322.3","308.07114317029976","253.89","2","fallScene","true","","","","","70","",""
"","","","","","html-keyboard-response","220","663926","0.0-20.0-1.21","66358a8c455c8ca13957e2ca","6790928bebf0b969fc839b02","679826234ab24870b19de8dd","passed","","1720","","","","","","","","","","","","","","j","yesOrNo","","","","2","","","mid","3000","","","70","321.3","300"
"","","","","","html-keyboard-response","221","665489","0.0-20.0-0.22","66358a8c455c8ca13957e2ca","6790928bebf0b969fc839b02","679826234ab24870b19de8dd","passed","","","","","","","","","","","","","","","","","ballFalling","500","453.67114317029973","210.33","5","fallScene","false","","","","","71","",""
"","","","","","html-keyboard-response","222","668492","0.0-20.0-1.22","66358a8c455c8ca13957e2ca","6790928bebf0b969fc839b02","679826234ab24870b19de8dd","passed","","858","","","","","","","","","","","","","","f","yesOrNo","","","","5","","","lp","3000","","","71","499","151"
"","","","","","html-keyboard-response","223","670289","0.0-20.0-0.23","66358a8c455c8ca13957e2ca","6790928bebf0b969fc839b02","679826234ab24870b19de8dd","passed","","","","","","","","","","","","","","","","","ballFalling","322.3","308.07114317029976","253.89","2","fallScene","true","","","","","72","",""
"","","","","","html-keyboard-response","224","673291","0.0-20.0-1.23","66358a8c455c8ca13957e2ca","6790928bebf0b969fc839b02","679826234ab24870b19de8dd","passed","","656","","","","","","","","","","","","","","f","yesOrNo","","","","2","","","lp","3000","","","72","321.3","151"
"","","","","","html-keyboard-response","225","674529","0.0-21.0","66358a8c455c8ca13957e2ca","6790928bebf0b969fc839b02","679826234ab24870b19de8dd","passed","","1237","","","","","","","","","","","","","<p><span style=""font-size:40px;"">BLOCK 4</span></p><p><span style=""font-size:25px;"">You have <b style=""color: #FF644F;""><strong>1 second(s)</strong></b> to respond to the following trials.</span><br></p><p></p> <!-- Blank line -->
                <p id=""blinking-text"" style=""font-weight; animation: blink 2s infinite;"">Press Space to continue</p>
                <style>
                    @keyframes blink {
                        50% {
                            opacity: 0;
                        }
                    }
                </style></p>"," ","","","","","","","","","","","","","",""
"","","","","","html-keyboard-response","226","676323","0.0-22.0-0.0","66358a8c455c8ca13957e2ca","6790928bebf0b969fc839b02","679826234ab24870b19de8dd","passed","","","","","","","","","","","","","","","","","ballFalling","322.3","308.07114317029976","253.89","2","fallScene","true","","","","","73","",""
"","","","","","html-keyboard-response","227","677325","0.0-22.0-1.0","66358a8c455c8ca13957e2ca","6790928bebf0b969fc839b02","679826234ab24870b19de8dd","passed","","null","","","","","","","","","","","","","","null","yesOrNo","","","","2","","","gt","1000","","","73","308.07114317029976","253.89"
"","","","","","html-keyboard-response","228","678890","0.0-22.0-0.1","66358a8c455c8ca13957e2ca","6790928bebf0b969fc839b02","679826234ab24870b19de8dd","passed","","","","","","","","","","","","","","","","","ballFalling","322.3","296.07114317029976","371.46","3","fallScene","true","","","","","74","",""
"","","","","","html-keyboard-response","229","679892","0.0-22.0-1.1","66358a8c455c8ca13957e2ca","6790928bebf0b969fc839b02","679826234ab24870b19de8dd","passed","","745","","","","","","","","","","","","","","j","yesOrNo","","","","3","","","lp","1000","","","74","321.3","287.3327096511259"
"","","","","","html-keyboard-response","230","681390","0.0-22.0-0.2","66358a8c455c8ca13957e2ca","6790928bebf0b969fc839b02","679826234ab24870b19de8dd","passed","","","","","","","","","","","","","","","","","ballFalling","604.4000000000001","667.6211431702998","201.78","9","fallScene","true","","","","","75","",""
"","","","","","html-keyboard-response","231","682392","0.0-22.0-1.2","66358a8c455c8ca13957e2ca","6790928bebf0b969fc839b02","679826234ab24870b19de8dd","passed","","913","","","","","","","","","","","","","","j","yesOrNo","","","","9","","","mid","1000","","","75","605.4000000000001","300"
"","","","","","html-keyboard-response","232","683956","0.0-22.0-0.3","66358a8c455c8ca13957e2ca","6790928bebf0b969fc839b02","679826234ab24870b19de8dd","passed","","","","","","","","","","","","","","","","","ballFalling","500","453.67114317029973","210.33","5","fallScene","true","","","","","76","",""
"","","","","","html-keyboard-response","233","684958","0.0-22.0-1.3","66358a8c455c8ca13957e2ca","6790928bebf0b969fc839b02","679826234ab24870b19de8dd","passed","","564","","","","","","","","","","","","","","j","yesOrNo","","","","5","","","mid","1000","","","76","499","300"
"","","","","","html-keyboard-response","234","686972","0.0-22.0-0.4","66358a8c455c8ca13957e2ca","6790928bebf0b969fc839b02","679826234ab24870b19de8dd","passed","","","","","","","","","","","","","","","","","ballFalling","604.4000000000001","596.8711431702998","394.5","10","fallScene","true","","","","","77","",""
"","","","","","html-keyboard-response","235","687974","0.0-22.0-1.4","66358a8c455c8ca13957e2ca","6790928bebf0b969fc839b02","679826234ab24870b19de8dd","passed","","747","","","","","","","","","","","","","","f","yesOrNo","","","","10","","","mid","1000","","","77","536.4288568297004","300"
"","","","","","html-keyboard-response","236","689990","0.0-22.0-0.5","66358a8c455c8ca13957e2ca","6790928bebf0b969fc839b02","679826234ab24870b19de8dd","passed","","","","","","","","","","","","","","","","","ballFalling","500","510.8711431702997","369.03","8","fallScene","true","","","","","78","",""
"","","","","","html-keyboard-response","237","690992","0.0-22.0-1.5","66358a8c455c8ca13957e2ca","6790928bebf0b969fc839b02","679826234ab24870b19de8dd","passed","","612","","","","","","","","","","","","","","f","yesOrNo","","","","8","","","lp","1000","","","78","501","151"
"","","","","","html-keyboard-response","238","693006","0.0-22.0-0.6","66358a8c455c8ca13957e2ca","6790928bebf0b969fc839b02","679826234ab24870b19de8dd","passed","","","","","","","","","","","","","","","","","ballFalling","500","510.8711431702997","369.03","8","fallScene","true","","","","","79","",""
"","","","","","html-keyboard-response","239","694009","0.0-22.0-1.6","66358a8c455c8ca13957e2ca","6790928bebf0b969fc839b02","679826234ab24870b19de8dd","passed","","736","","","","","","","","","","","","","","j","yesOrNo","","","","8","","","gt","1000","","","79","510.8711431702997","369.03"
"","","","","","html-keyboard-response","240","695590","0.0-22.0-0.7","66358a8c455c8ca13957e2ca","6790928bebf0b969fc839b02","679826234ab24870b19de8dd","passed","","","","","","","","","","","","","","","","","ballFalling","500","553.4711431702997","282.51","7","fallScene","true","","","","","80","",""
"","","","","","html-keyboard-response","241","696592","0.0-22.0-1.7","66358a8c455c8ca13957e2ca","6790928bebf0b969fc839b02","679826234ab24870b19de8dd","passed","","639","","","","","","","","","","","","","","f","yesOrNo","","","","7","","","gt","1000","","","80","553.4711431702997","282.51"
"","","","","","html-keyboard-response","242","698156","0.0-22.0-0.8","66358a8c455c8ca13957e2ca","6790928bebf0b969fc839b02","679826234ab24870b19de8dd","passed","","","","","","","","","","","","","","","","","ballFalling","500","453.67114317029973","210.33","5","fallScene","true","","","","","81","",""
"","","","","","html-keyboard-response","243","699158","0.0-22.0-1.8","66358a8c455c8ca13957e2ca","6790928bebf0b969fc839b02","679826234ab24870b19de8dd","passed","","719","","","","","","","","","","","","","","j","yesOrNo","","","","5","","","lp","1000","","","81","499","151"
"","","","","","html-keyboard-response","244","701173","0.0-22.0-0.9","66358a8c455c8ca13957e2ca","6790928bebf0b969fc839b02","679826234ab24870b19de8dd","passed","","","","","","","","","","","","","","","","","ballFalling","500","510.8711431702997","369.03","8","fallScene","false","","","","","82","",""
"","","","","","html-keyboard-response","245","702175","0.0-22.0-1.9","66358a8c455c8ca13957e2ca","6790928bebf0b969fc839b02","679826234ab24870b19de8dd","passed","","813","","","","","","","","","","","","","","f","yesOrNo","","","","8","","","lp","1000","","","82","501","151"
"","","","","","html-keyboard-response","246","703740","0.0-22.0-0.10","66358a8c455c8ca13957e2ca","6790928bebf0b969fc839b02","679826234ab24870b19de8dd","passed","","","","","","","","","","","","","","","","","ballFalling","500","453.67114317029973","210.33","5","fallScene","true","","","","","83","",""
"","","","","","html-keyboard-response","247","704742","0.0-22.0-1.10","66358a8c455c8ca13957e2ca","6790928bebf0b969fc839b02","679826234ab24870b19de8dd","passed","","933","","","","","","","","","","","","","","f","yesOrNo","","","","5","","","gt","1000","","","83","453.6711431702998","210.33"
"","","","","","html-keyboard-response","248","706306","0.0-22.0-0.11","66358a8c455c8ca13957e2ca","6790928bebf0b969fc839b02","679826234ab24870b19de8dd","passed","","","","","","","","","","","","","","","","","ballFalling","500","453.67114317029973","210.33","5","fallScene","true","","","","","84","",""
"","","","","","html-keyboard-response","249","707309","0.0-22.0-1.11","66358a8c455c8ca13957e2ca","6790928bebf0b969fc839b02","679826234ab24870b19de8dd","passed","","546","","","","","","","","","","","","","","f","yesOrNo","","","","5","","","mid","1000","","","84","499","300"
"","","","","","html-keyboard-response","250","709323","0.0-22.0-0.12","66358a8c455c8ca13957e2ca","6790928bebf0b969fc839b02","679826234ab24870b19de8dd","passed","","","","","","","","","","","","","","","","","ballFalling","500","510.8711431702997","369.03","8","fallScene","true","","","","","85","",""
"","","","","","html-keyboard-response","251","710325","0.0-22.0-1.12","66358a8c455c8ca13957e2ca","6790928bebf0b969fc839b02","679826234ab24870b19de8dd","passed","","847","","","","","","","","","","","","","","j","yesOrNo","","","","8","","","mid","1000","","","85","501","300"
"","","","","","html-keyboard-response","252","712123","0.0-22.0-0.13","66358a8c455c8ca13957e2ca","6790928bebf0b969fc839b02","679826234ab24870b19de8dd","passed","","","","","","","","","","","","","","","","","ballFalling","322.3","308.07114317029976","253.89","2","fallScene","false","","","","","86","",""
"","","","","","html-keyboard-response","253","713125","0.0-22.0-1.13","66358a8c455c8ca13957e2ca","6790928bebf0b969fc839b02","679826234ab24870b19de8dd","passed","","995","","","","","","","","","","","","","","f","yesOrNo","","","","2","","","mid","1000","","","86","321.3","300"
"","","","","","html-keyboard-response","254","715139","0.0-22.0-0.14","66358a8c455c8ca13957e2ca","6790928bebf0b969fc839b02","679826234ab24870b19de8dd","passed","","","","","","","","","","","","","","","","","ballFalling","604.4000000000001","596.8711431702998","394.5","10","fallScene","true","","","","","87","",""
"","","","","","html-keyboard-response","255","716141","0.0-22.0-1.14","66358a8c455c8ca13957e2ca","6790928bebf0b969fc839b02","679826234ab24870b19de8dd","passed","","762","","","","","","","","","","","","","","f","yesOrNo","","","","10","","","lp","1000","","","87","603.4000000000001","215.50214355555383"
"","","","","","html-keyboard-response","256","717939","0.0-22.0-0.15","66358a8c455c8ca13957e2ca","6790928bebf0b969fc839b02","679826234ab24870b19de8dd","passed","","","","","","","","","","","","","","","","","ballFalling","322.3","308.07114317029976","253.89","2","fallScene","false","","","","","88","",""
"","","","","","html-keyboard-response","257","718941","0.0-22.0-1.15","66358a8c455c8ca13957e2ca","6790928bebf0b969fc839b02","679826234ab24870b19de8dd","passed","","839","","","","","","","","","","","","","","f","yesOrNo","","","","2","","","lp","1000","","","88","321.3","151"
"","","","","","html-keyboard-response","258","720955","0.0-22.0-0.16","66358a8c455c8ca13957e2ca","6790928bebf0b969fc839b02","679826234ab24870b19de8dd","passed","","","","","","","","","","","","","","","","","ballFalling","604.4000000000001","596.8711431702998","394.5","10","fallScene","false","","","","","89","",""
"","","","","","html-keyboard-response","259","721957","0.0-22.0-1.16","66358a8c455c8ca13957e2ca","6790928bebf0b969fc839b02","679826234ab24870b19de8dd","passed","","957","","","","","","","","","","","","","","j","yesOrNo","","","","10","","","gt","1000","","","89","596.8711431702998","394.5"
"","","","","","html-keyboard-response","260","723523","0.0-22.0-0.17","66358a8c455c8ca13957e2ca","6790928bebf0b969fc839b02","679826234ab24870b19de8dd","passed","","","","","","","","","","","","","","","","","ballFalling","604.4000000000001","650.0211431702996","404.58000000000004","11","fallScene","true","","","","","90","",""
"","","","","","html-keyboard-response","261","724525","0.0-22.0-1.17","66358a8c455c8ca13957e2ca","6790928bebf0b969fc839b02","679826234ab24870b19de8dd","passed","","null","","","","","","","","","","","","","","null","yesOrNo","","","","11","","","mid","1000","","","90","605.4000000000001","300"
"","","","","","html-keyboard-response","262","726090","0.0-22.0-0.18","66358a8c455c8ca13957e2ca","6790928bebf0b969fc839b02","679826234ab24870b19de8dd","passed","","","","","","","","","","","","","","","","","ballFalling","322.3","296.07114317029976","371.46","3","fallScene","false","","","","","91","",""
"","","","","","html-keyboard-response","263","727092","0.0-22.0-1.18","66358a8c455c8ca13957e2ca","6790928bebf0b969fc839b02","679826234ab24870b19de8dd","passed","","631","","","","","","","","","","","","","","f","yesOrNo","","","","3","","","mid","1000","","","91","321.3","300"
"","","","","","html-keyboard-response","264","728589","0.0-22.0-0.19","66358a8c455c8ca13957e2ca","6790928bebf0b969fc839b02","679826234ab24870b19de8dd","passed","","","","","","","","","","","","","","","","","ballFalling","604.4000000000001","667.6211431702998","201.78","9","fallScene","false","","","","","92","",""
"","","","","","html-keyboard-response","265","729591","0.0-22.0-1.19","66358a8c455c8ca13957e2ca","6790928bebf0b969fc839b02","679826234ab24870b19de8dd","passed","","617","","","","","","","","","","","","","","f","yesOrNo","","","","9","","","lp","1000","","","92","605.4000000000001","151"
"","","","","","html-keyboard-response","266","731390","0.0-22.0-0.20","66358a8c455c8ca13957e2ca","6790928bebf0b969fc839b02","679826234ab24870b19de8dd","passed","","","","","","","","","","","","","","","","","ballFalling","322.3","308.07114317029976","253.89","2","fallScene","true","","","","","93","",""
"","","","","","html-keyboard-response","267","732392","0.0-22.0-1.20","66358a8c455c8ca13957e2ca","6790928bebf0b969fc839b02","679826234ab24870b19de8dd","passed","","495","","","","","","","","","","","","","","f","yesOrNo","","","","2","","","gt","1000","","","93","308.07114317029976","253.89"
"","","","","","html-keyboard-response","268","733972","0.0-22.0-0.21","66358a8c455c8ca13957e2ca","6790928bebf0b969fc839b02","679826234ab24870b19de8dd","passed","","","","","","","","","","","","","","","","","ballFalling","500","553.4711431702997","282.51","7","fallScene","false","","","","","94","",""
"","","","","","html-keyboard-response","269","734974","0.0-22.0-1.21","66358a8c455c8ca13957e2ca","6790928bebf0b969fc839b02","679826234ab24870b19de8dd","passed","","609","","","","","","","","","","","","","","f","yesOrNo","","","","7","","","lp","1000","","","94","501","227.2843295913261"
"","","","","","html-keyboard-response","270","736539","0.0-22.0-0.22","66358a8c455c8ca13957e2ca","6790928bebf0b969fc839b02","679826234ab24870b19de8dd","passed","","","","","","","","","","","","","","","","","ballFalling","322.3","356.42114317029973","357.87","4","fallScene","false","","","","","95","",""
"","","","","","html-keyboard-response","271","737542","0.0-22.0-1.22","66358a8c455c8ca13957e2ca","6790928bebf0b969fc839b02","679826234ab24870b19de8dd","passed","","441","","","","","","","","","","","","","","f","yesOrNo","","","","4","","","mid","1000","","","95","390.27114317029975","300"
"","","","","","html-keyboard-response","272","739206","0.0-22.0-0.23","66358a8c455c8ca13957e2ca","6790928bebf0b969fc839b02","679826234ab24870b19de8dd","passed","","","","","","","","","","","","","","","","","ballFalling","500","479.92114317029973","330.87","6","fallScene","true","","","","","96","",""
"","","","","","html-keyboard-response","273","740209","0.0-22.0-1.23","66358a8c455c8ca13957e2ca","6790928bebf0b969fc839b02","679826234ab24870b19de8dd","passed","","212","","","","","","","","","","","","","","f","yesOrNo","","","","6","","","gt","1000","","","96","479.9211431702998","330.87"
"","","","","","html-keyboard-response","274","741269","0.0-23.0","66358a8c455c8ca13957e2ca","6790928bebf0b969fc839b02","679826234ab24870b19de8dd","passed","","1060","","","","","","","","","","","","","<p><span style=""font-size:40px;"">BLOCK 5</span></p><p><span style=""font-size:25px;"">You have <b style=""color: #FF644F;""><strong>3 second(s)</strong></b> to respond to the following trials.</span><br></p><p></p> <!-- Blank line -->
                <p id=""blinking-text"" style=""font-weight; animation: blink 2s infinite;"">Press Space to continue</p>
                <style>
                    @keyframes blink {
                        50% {
                            opacity: 0;
                        }
                    }
                </style></p>"," ","","","","","","","","","","","","","",""
"","","","","","html-keyboard-response","275","743273","0.0-24.0-0.0","66358a8c455c8ca13957e2ca","6790928bebf0b969fc839b02","679826234ab24870b19de8dd","passed","","","","","","","","","","","","","","","","","ballFalling","500","510.8711431702997","369.03","8","fallScene","true","","","","","97","",""
"","","","","","html-keyboard-response","276","746275","0.0-24.0-1.0","66358a8c455c8ca13957e2ca","6790928bebf0b969fc839b02","679826234ab24870b19de8dd","passed","","1145","","","","","","","","","","","","","","j","yesOrNo","","","","8","","","gt","3000","","","97","510.8711431702997","369.03"
"","","","","","html-keyboard-response","277","747773","0.0-24.0-0.1","66358a8c455c8ca13957e2ca","6790928bebf0b969fc839b02","679826234ab24870b19de8dd","passed","","","","","","","","","","","","","","","","","ballFalling","604.4000000000001","667.6211431702998","201.78","9","fallScene","false","","","","","98","",""
"","","","","","html-keyboard-response","278","750775","0.0-24.0-1.1","66358a8c455c8ca13957e2ca","6790928bebf0b969fc839b02","679826234ab24870b19de8dd","passed","","730","","","","","","","","","","","","","","f","yesOrNo","","","","9","","","lp","3000","","","98","605.4000000000001","151"
"","","","","","html-keyboard-response","279","752339","0.0-24.0-0.2","66358a8c455c8ca13957e2ca","6790928bebf0b969fc839b02","679826234ab24870b19de8dd","passed","","","","","","","","","","","","","","","","","ballFalling","322.3","356.42114317029973","357.87","4","fallScene","true","","","","","99","",""
"","","","","","html-keyboard-response","280","755342","0.0-24.0-1.2","66358a8c455c8ca13957e2ca","6790928bebf0b969fc839b02","679826234ab24870b19de8dd","passed","","1040","","","","","","","","","","","","","","f","yesOrNo","","","","4","","","mid","3000","","","99","390.27114317029975","300"
"","","","","","html-keyboard-response","281","756906","0.0-24.0-0.3","66358a8c455c8ca13957e2ca","6790928bebf0b969fc839b02","679826234ab24870b19de8dd","passed","","","","","","","","","","","","","","","","","ballFalling","500","453.67114317029973","210.33","5","fallScene","true","","","","","100","",""
"","","","","","html-keyboard-response","282","759908","0.0-24.0-1.3","66358a8c455c8ca13957e2ca","6790928bebf0b969fc839b02","679826234ab24870b19de8dd","passed","","1232","","","","","","","","","","","","","","f","yesOrNo","","","","5","","","gt","3000","","","100","453.6711431702998","210.33"
"","","","","","html-keyboard-response","283","761406","0.0-24.0-0.4","66358a8c455c8ca13957e2ca","6790928bebf0b969fc839b02","679826234ab24870b19de8dd","passed","","","","","","","","","","","","","","","","","ballFalling","604.4000000000001","667.6211431702998","201.78","9","fallScene","true","","","","","101","",""
"","","","","","html-keyboard-response","284","764408","0.0-24.0-1.4","66358a8c455c8ca13957e2ca","6790928bebf0b969fc839b02","679826234ab24870b19de8dd","passed","","740","","","","","","","","","","","","","","f","yesOrNo","","","","9","","","lp","3000","","","101","605.4000000000001","151"
"","","","","","html-keyboard-response","285","765973","0.0-24.0-0.5","66358a8c455c8ca13957e2ca","6790928bebf0b969fc839b02","679826234ab24870b19de8dd","passed","","","","","","","","","","","","","","","","","ballFalling","322.3","356.42114317029973","357.87","4","fallScene","false","","","","","102","",""
"","","","","","html-keyboard-response","286","768975","0.0-24.0-1.5","66358a8c455c8ca13957e2ca","6790928bebf0b969fc839b02","679826234ab24870b19de8dd","passed","","1168","","","","","","","","","","","","","","j","yesOrNo","","","","4","","","lp","3000","","","102","323.3","297.4070551689986"
"","","","","","html-keyboard-response","287","770639","0.0-24.0-0.6","66358a8c455c8ca13957e2ca","6790928bebf0b969fc839b02","679826234ab24870b19de8dd","passed","","","","","","","","","","","","","","","","","ballFalling","500","479.92114317029973","330.87","6","fallScene","true","","","","","103","",""
"","","","","","html-keyboard-response","288","773642","0.0-24.0-1.6","66358a8c455c8ca13957e2ca","6790928bebf0b969fc839b02","679826234ab24870b19de8dd","passed","","902","","","","","","","","","","","","","","j","yesOrNo","","","","6","","","gt","3000","","","103","479.9211431702998","330.87"
"","","","","","html-keyboard-response","289","775207","0.0-24.0-0.7","66358a8c455c8ca13957e2ca","6790928bebf0b969fc839b02","679826234ab24870b19de8dd","passed","","","","","","","","","","","","","","","","","ballFalling","604.4000000000001","575.4211431702997","266.76","12","fallScene","true","","","","","104","",""
"","","","","","html-keyboard-response","290","778208","0.0-24.0-1.7","66358a8c455c8ca13957e2ca","6790928bebf0b969fc839b02","679826234ab24870b19de8dd","passed","","964","","","","","","","","","","","","","","f","yesOrNo","","","","12","","","mid","3000","","","104","536.4288568297004","300"
"","","","","","html-keyboard-response","291","779706","0.0-24.0-0.8","66358a8c455c8ca13957e2ca","6790928bebf0b969fc839b02","679826234ab24870b19de8dd","passed","","","","","","","","","","","","","","","","","ballFalling","604.4000000000001","667.6211431702998","201.78","9","fallScene","false","","","","","105","",""
"","","","","","html-keyboard-response","292","782708","0.0-24.0-1.8","66358a8c455c8ca13957e2ca","6790928bebf0b969fc839b02","679826234ab24870b19de8dd","passed","","731","","","","","","","","","","","","","","f","yesOrNo","","","","9","","","gt","3000","","","105","667.6211431702998","201.78"
"","","","","","html-keyboard-response","293","784291","0.0-24.0-0.9","66358a8c455c8ca13957e2ca","6790928bebf0b969fc839b02","679826234ab24870b19de8dd","passed","","","","","","","","","","","","","","","","","ballFalling","500","553.4711431702997","282.51","7","fallScene","true","","","","","106","",""
"","","","","","html-keyboard-response","294","787292","0.0-24.0-1.9","66358a8c455c8ca13957e2ca","6790928bebf0b969fc839b02","679826234ab24870b19de8dd","passed","","561","","","","","","","","","","","","","","f","yesOrNo","","","","7","","","lp","3000","","","106","501","227.2843295913261"
"","","","","","html-keyboard-response","295","788856","0.0-24.0-0.10","66358a8c455c8ca13957e2ca","6790928bebf0b969fc839b02","679826234ab24870b19de8dd","passed","","","","","","","","","","","","","","","","","ballFalling","322.3","356.42114317029973","357.87","4","fallScene","false","","","","","107","",""
"","","","","","html-keyboard-response","296","791858","0.0-24.0-1.10","66358a8c455c8ca13957e2ca","6790928bebf0b969fc839b02","679826234ab24870b19de8dd","passed","","932","","","","","","","","","","","","","","j","yesOrNo","","","","4","","","lp","3000","","","107","323.3","297.4070551689986"
"","","","","","html-keyboard-response","297","793423","0.0-24.0-0.11","66358a8c455c8ca13957e2ca","6790928bebf0b969fc839b02","679826234ab24870b19de8dd","passed","","","","","","","","","","","","","","","","","ballFalling","604.4000000000001","650.0211431702996","404.58000000000004","11","fallScene","true","","","","","108","",""
"","","","","","html-keyboard-response","298","796425","0.0-24.0-1.11","66358a8c455c8ca13957e2ca","6790928bebf0b969fc839b02","679826234ab24870b19de8dd","passed","","797","","","","","","","","","","","","","","j","yesOrNo","","","","11","","","lp","3000","","","108","605.4000000000001","372.6340973215488"
"","","","","","html-keyboard-response","299","798222","0.0-24.0-0.12","66358a8c455c8ca13957e2ca","6790928bebf0b969fc839b02","679826234ab24870b19de8dd","passed","","","","","","","","","","","","","","","","","ballFalling","322.3","308.07114317029976","253.89","2","fallScene","false","","","","","109","",""
"","","","","","html-keyboard-response","300","801224","0.0-24.0-1.12","66358a8c455c8ca13957e2ca","6790928bebf0b969fc839b02","679826234ab24870b19de8dd","passed","","565","","","","","","","","","","","","","","j","yesOrNo","","","","2","","","gt","3000","","","109","308.07114317029976","253.89"
