"success","timeout","failed_images","failed_audio","failed_video","trial_type","trial_index","time_elapsed","internal_node_id","subject_id","study_id","session_id","practiceTestResult","view_history","rt","width","height","webaudio","browser","browser_version","mobile","os","fullscreen","vsync_rate","webcam","microphone","url","stimulus","response","task","ball_X","obstacle_groundTruth_x","obstacle_groundTruth_y","stimulus_idx","trial_name","flipped","choice","timeLimit","question_order","currentTrial","obstacle_choice_x","obstacle_choice_y"
"true","false","[]","[]","[]","preload","0","6","0.0-0.0","663cd0ab9a13d177b358f8f1","6790928bebf0b969fc839b02","679826c1e71d9d08ae4de998","passed","","","","","","","","","","","","","","","","","","","","","","","","","","","","",""
"","","","","","instructions","1","990","0.0-1.0","663cd0ab9a13d177b358f8f1","6790928bebf0b969fc839b02","679826c1e71d9d08ae4de998","passed","[{""page_index"":0,""viewing_time"":983}]","983","","","","","","","","","","","","","","","","","","","","","","","","","","",""
"","","","","","browser-check","2","1913","0.0-2.0","663cd0ab9a13d177b358f8f1","6790928bebf0b969fc839b02","679826c1e71d9d08ae4de998","passed","","","1218","633","true","chrome","131.0.0","false","Windows 10","true","65.22","true","true","","","","","","","","","","","","","","","",""
"","","","","","external-html","3","9624","0.0-3.0","663cd0ab9a13d177b358f8f1","6790928bebf0b969fc839b02","679826c1e71d9d08ae4de998","passed","","7485","","","","","","","","","","","","consent.html","","","","","","","","","","","","","","",""
"true","","","","","fullscreen","4","17436","0.0-4.0","663cd0ab9a13d177b358f8f1","6790928bebf0b969fc839b02","679826c1e71d9d08ae4de998","passed","","7511","","","","","","","","","","","","","","","","","","","","","","","","","","",""
"","","","","","browser-check","5","18367","0.0-5.0","663cd0ab9a13d177b358f8f1","6790928bebf0b969fc839b02","679826c1e71d9d08ae4de998","passed","","","1280","720","true","chrome","131.0.0","false","Windows 10","true","64.68","true","true","","","","","","","","","","","","","","","",""
"","","","","","html-keyboard-response","6","20845","0.0-6.0","663cd0ab9a13d177b358f8f1","6790928bebf0b969fc839b02","679826c1e71d9d08ae4de998","passed","","2477","","","","","","","","","","","","","<p><b>This experiment requires keyboard input.</b></p> 
        <p><b>To ensure your response will be recorded successfully, please press 'Space' to continue.</b></p>
        <p>If you can't proceed, you won't be able to complete this study.</p>
        <p></p> <!-- Blank line -->
        <p id=""blinking-text"" style=""font-weight; animation: blink 2s infinite;"">Press Space to continue</p>
        <style>
            @keyframes blink {
                50% {
                    opacity: 0;
                }
            }
        </style>"," ","","","","","","","","","","","","",""
"","","","","","html-keyboard-response","7","25686","0.0-7.0","663cd0ab9a13d177b358f8f1","6790928bebf0b969fc839b02","679826c1e71d9d08ae4de998","passed","","4840","","","","","","","","","","","","","<p><b>This experiment requires keyboard input.</b></p> 
        <p><b>To ensure your response will be recorded successfully, please press the 'f' key to continue.</b></p>
        <p>If you can't proceed, you won't be able to complete this study.</p>
        <p></p> <!-- Blank line -->
        <p id=""blinking-text"" style=""font-weight; animation: blink 2s infinite;"">Press f to continue</p>
        <style>
            @keyframes blink {
                50% {
                    opacity: 0;
                }
            }
        </style>","f","","","","","","","","","","","","",""
"","","","","","html-keyboard-response","8","27224","0.0-8.0","663cd0ab9a13d177b358f8f1","6790928bebf0b969fc839b02","679826c1e71d9d08ae4de998","passed","","1537","","","","","","","","","","","","","<p><b>This experiment requires keyboard input.</b></p> 
        <p><b>To ensure your response will be recorded successfully, please press the 'j' key to continue.</b></p>
        <p>If you can't proceed, you won't be able to complete this study.</p>
        <p></p> <!-- Blank line -->
        <p id=""blinking-text"" style=""font-weight; animation: blink 2s infinite;"">Press j to continue</p>
        <style>
            @keyframes blink {
                50% {
                    opacity: 0;
                }
            }
        </style>","j","","","","","","","","","","","","",""
"","","","","","browser-check","9","28163","0.0-9.0","663cd0ab9a13d177b358f8f1","6790928bebf0b969fc839b02","679826c1e71d9d08ae4de998","passed","","","1280","720","true","chrome","131.0.0","false","Windows 10","true","64.09","true","true","","","","","","","","","","","","","","","",""
"","","","","","survey-text","10","32394","0.0-10.0","663cd0ab9a13d177b358f8f1","6790928bebf0b969fc839b02","679826c1e71d9d08ae4de998","passed","","4225","","","","","","","","","","","","","","{""prolificID"":""663cd0ab9a13d177b358f8f1""}","","","","","","","","","","","","",""
"","","","","","instructions","11","35813","0.0-11.0-0.0-0.0","663cd0ab9a13d177b358f8f1","6790928bebf0b969fc839b02","679826c1e71d9d08ae4de998","passed","[{""page_index"":0,""viewing_time"":1144},{""page_index"":1,""viewing_time"":578},{""page_index"":2,""viewing_time"":563},{""page_index"":3,""viewing_time"":1134}]","3419","","","","","","","","","","","","","","","","","","","","","","","","","","",""
"","","","","","html-keyboard-response","12","38361","0.0-11.0-0.0-1.0","663cd0ab9a13d177b358f8f1","6790928bebf0b969fc839b02","679826c1e71d9d08ae4de998","passed","","2040","","","","","","","","","","","","","<br>Remember! After a ball falls, the screen will disappear, and you'll decide if the proposed position is where the hidden triangle was. <br>You will now practice this by watching a few videos and making decisions.<p>To respond:<br style=""margin-bottom: 5px; text-indent: -20px; padding-left: 20px;"">- Press <b style=""color: #12AD2B;"">J for Yes</b>, if you think the triangle is in the correct position.<br style=""margin-top: 0; text-indent: -20px; padding-left: 20px;"">- Press <b style=""color: orange;"">F for No</b>, if you think the triangle is not in the correct position.</p><p>In this practice round, there is no time limit. Focus on getting comfortable with the task first.<br>Press either J or F to begin your practice trials.</p><img src = ""YesOrNo_instruction.png"" style=""width: 65%;""></img>","j","","","","","","","","","","","","",""
"","","","","","html-keyboard-response","13","39907","0.0-11.0-0.0-2.0-0.0","663cd0ab9a13d177b358f8f1","6790928bebf0b969fc839b02","679826c1e71d9d08ae4de998","passed","","","","","","","","","","","","","","","","","ballFalling_prac","416","464","296","1","fallScene","false","","","","","",""
"","","","","","html-keyboard-response","14","40417","0.0-11.0-0.0-2.0-1.0","663cd0ab9a13d177b358f8f1","6790928bebf0b969fc839b02","679826c1e71d9d08ae4de998","passed","","505","","","","","","","","","","","","","","f","yesOrNo_prac_noTimed","","","","1","","","gt","NA","","","",""
"","","","","","html-keyboard-response","15","42000","0.0-11.0-0.0-2.0-0.1","663cd0ab9a13d177b358f8f1","6790928bebf0b969fc839b02","679826c1e71d9d08ae4de998","passed","","","","","","","","","","","","","","","","","ballFalling_prac","441","414","302","5","fallScene","true","","","","","",""
"","","","","","html-keyboard-response","16","42390","0.0-11.0-0.0-2.0-1.1","663cd0ab9a13d177b358f8f1","6790928bebf0b969fc839b02","679826c1e71d9d08ae4de998","passed","","388","","","","","","","","","","","","","","f","yesOrNo_prac_noTimed","","","","5","","","close gt","NA","","","",""
"","","","","","html-keyboard-response","17","44501","0.0-11.0-0.0-2.0-0.2","663cd0ab9a13d177b358f8f1","6790928bebf0b969fc839b02","679826c1e71d9d08ae4de998","passed","","","","","","","","","","","","","","","","","ballFalling_prac","660","666","350","3","fallScene","false","","","","","",""
"","","","","","html-keyboard-response","18","45245","0.0-11.0-0.0-2.0-1.2","663cd0ab9a13d177b358f8f1","6790928bebf0b969fc839b02","679826c1e71d9d08ae4de998","passed","","741","","","","","","","","","","","","","","j","yesOrNo_prac_noTimed","","","","3","","","wrong direction","NA","","","",""
"","","","","","instructions","19","48546","0.0-11.0-0.0-3.0","663cd0ab9a13d177b358f8f1","6790928bebf0b969fc839b02","679826c1e71d9d08ae4de998","passed","[{""page_index"":0,""viewing_time"":1911},{""page_index"":1,""viewing_time"":1389}]","3300","","","","","","","","","","","","","","","","","","","","","","","","","","",""
"","","","","","html-button-response","20","49987","0.0-11.0-0.0-4.0","663cd0ab9a13d177b358f8f1","6790928bebf0b969fc839b02","679826c1e71d9d08ae4de998","passed","","932","","","","","","","","","","","","","<p>To make sure you understood the task, we just have a <b>brief quiz</b> here.</p><p>If you need to review the instructions, click 'Previous'.</p><p>It's important to understand the task to do the study, so you have to pass the quiz to move to the study.</p>","1","","","","","","","","","","","","",""
"","","","","","survey-multi-choice","21","54918","0.0-11.0-1.0-0.0","663cd0ab9a13d177b358f8f1","6790928bebf0b969fc839b02","679826c1e71d9d08ae4de998","passed","","4930","","","","","","","","","","","","","","{""generalProcedure"":""Watch a video of a ball falling, some of it behind a gray screen. After each video, decide if the triangle is at the spot where the ball hit the triangle behind the screen. There is time limit for the response.""}","","","","","","","","","","[0]","","",""
"","","","","","survey-multi-choice","22","60513","0.0-11.0-1.0-1.0","663cd0ab9a13d177b358f8f1","6790928bebf0b969fc839b02","679826c1e71d9d08ae4de998","passed","","5594","","","","","","","","","","","","","","{""checkBallHitObstacle"":""Yes.""}","","","","","","","","","","[0]","","",""
"","","","","","survey-multi-choice","23","62636","0.0-11.0-1.0-2.0","663cd0ab9a13d177b358f8f1","6790928bebf0b969fc839b02","679826c1e71d9d08ae4de998","passed","","2122","","","","","","","","","","","","","","{""checkTriangleVisibility"":""No, the triangle is hidden behind the gray screen.""}","","","","","","","","","","[0]","","",""
"","","","","","survey-multi-choice","24","67050","0.0-11.0-1.0-3.0","663cd0ab9a13d177b358f8f1","6790928bebf0b969fc839b02","679826c1e71d9d08ae4de998","passed","","4414","","","","","","","","","","","","","","{""checkTimedResponse"":""Your response will not be recorded, and the trial will move to the next one.""}","","","","","","","","","","[0]","","",""
"","","","","","survey-multi-choice","25","71526","0.0-11.0-1.0-4.0","663cd0ab9a13d177b358f8f1","6790928bebf0b969fc839b02","679826c1e71d9d08ae4de998","passed","","4474","","","","","","","","","","","","","","{""checkTimeBlockNotice"":""At the beginning of each block.""}","","","","","","","","","","[0]","","",""
"","","","","","survey-multi-choice","26","74828","0.0-11.0-1.0-5.0","663cd0ab9a13d177b358f8f1","6790928bebf0b969fc839b02","679826c1e71d9d08ae4de998","passed","","3302","","","","","","","","","","","","","","{""checkTimeBlockSameness"":""Yes, the time limit is the same for all trials within a block.""}","","","","","","","","","","[0]","","",""
"","","","","","survey-multi-choice","27","77347","0.0-11.0-1.0-6.0","663cd0ab9a13d177b358f8f1","6790928bebf0b969fc839b02","679826c1e71d9d08ae4de998","passed","","2519","","","","","","","","","","","","","","{""checkTrianglePrecision"":""No. The proposed purple triangle is not in the correct position because it doesn't match the location of the white triangle exactly.""}","","","","","","","","","","[0]","","",""
"","","","","","instructions","28","86372","0.0-12.0","663cd0ab9a13d177b358f8f1","6790928bebf0b969fc839b02","679826c1e71d9d08ae4de998","passed","[{""page_index"":0,""viewing_time"":1486},{""page_index"":1,""viewing_time"":1199},{""page_index"":2,""viewing_time"":2893},{""page_index"":3,""viewing_time"":3447}]","9025","","","","","","","","","","","","","","","","","","","","","","","","","","",""
"","","","","","instructions","29","87963","0.0-13.0-0.0","663cd0ab9a13d177b358f8f1","6790928bebf0b969fc839b02","679826c1e71d9d08ae4de998","passed","[{""page_index"":0,""viewing_time"":1590}]","1590","","","","","","","","","","","","","","","","","","","","","","","","","","",""
"","","","","","html-keyboard-response","30","90720","0.0-13.0-1.0","663cd0ab9a13d177b358f8f1","6790928bebf0b969fc839b02","679826c1e71d9d08ae4de998","passed","","2756","","","","","","","","","","","","","<p><span style=""font-size:40px;"">Practice BLOCK 1</span></p><p><span style=""font-size:25px;"">You have <b style=""color: #FF644F;""><strong>3 second(s)</strong></b> to respond to the following trials.</span><br></p><p id=""blinking-text"" style=""font-weight; animation: blink 2s infinite;"">Press Space to continue</p><style>
                    @keyframes blink {
                        50% {
                            opacity: 0;
                        }
                    }
                </style>"," ","","","","","","","","","","","","",""
"","","","","","html-keyboard-response","31","92298","0.0-13.0-2.0-0.0","663cd0ab9a13d177b358f8f1","6790928bebf0b969fc839b02","679826c1e71d9d08ae4de998","passed","","","","","","","","","","","","","","","","","ballFalling_prac","660","610","263","4","fallScene","false","","","","","",""
"","","","","","html-keyboard-response","32","95302","0.0-13.0-2.0-1.0","663cd0ab9a13d177b358f8f1","6790928bebf0b969fc839b02","679826c1e71d9d08ae4de998","passed","","636","","","","","","","","","","","","","","j","yesOrNo_prac","","","","4","","","gt","3000","","","",""
"","","","","","html-keyboard-response","33","96860","0.0-13.0-2.0-0.1","663cd0ab9a13d177b358f8f1","6790928bebf0b969fc839b02","679826c1e71d9d08ae4de998","passed","","","","","","","","","","","","","","","","","ballFalling_prac","584","536","296","1","fallScene","true","","","","","",""
"","","","","","html-keyboard-response","34","99863","0.0-13.0-2.0-1.1","663cd0ab9a13d177b358f8f1","6790928bebf0b969fc839b02","679826c1e71d9d08ae4de998","passed","","337","","","","","","","","","","","","","","j","yesOrNo_prac","","","","1","","","close gt","3000","","","",""
"","","","","","html-keyboard-response","35","101422","0.0-13.0-2.0-0.2","663cd0ab9a13d177b358f8f1","6790928bebf0b969fc839b02","679826c1e71d9d08ae4de998","passed","","","","","","","","","","","","","","","","","ballFalling_prac","416","464","296","1","fallScene","false","","","","","",""
"","","","","","html-keyboard-response","36","104425","0.0-13.0-2.0-1.2","663cd0ab9a13d177b358f8f1","6790928bebf0b969fc839b02","679826c1e71d9d08ae4de998","passed","","1555","","","","","","","","","","","","","","f","yesOrNo_prac","","","","1","","","far gt","3000","","","",""
"","","","","","html-keyboard-response","37","105490","0.0-13.0-3.0","663cd0ab9a13d177b358f8f1","6790928bebf0b969fc839b02","679826c1e71d9d08ae4de998","passed","","1064","","","","","","","","","","","","","<p><span style=""font-size:40px;"">Practice BLOCK 2</span></p><p><span style=""font-size:25px;"">You have <b style=""color: #FF644F;""><strong>1 second(s)</strong></b> to respond to the following trials.</span><br></p><p id=""blinking-text"" style=""font-weight; animation: blink 2s infinite;"">Press Space to continue</p><style>
                    @keyframes blink {
                        50% {
                            opacity: 0;
                        }
                    }
                </style>"," ","","","","","","","","","","","","",""
"","","","","","html-keyboard-response","38","107064","0.0-13.0-4.0-0.0","663cd0ab9a13d177b358f8f1","6790928bebf0b969fc839b02","679826c1e71d9d08ae4de998","passed","","","","","","","","","","","","","","","","","ballFalling_prac","660","610","263","4","fallScene","false","","","","","",""
"","","","","","html-keyboard-response","39","108066","0.0-13.0-4.0-1.0","663cd0ab9a13d177b358f8f1","6790928bebf0b969fc839b02","679826c1e71d9d08ae4de998","passed","","304","","","","","","","","","","","","","","j","yesOrNo_prac","","","","4","","","far gt","1000","","","",""
"","","","","","html-keyboard-response","40","110172","0.0-13.0-4.0-0.1","663cd0ab9a13d177b358f8f1","6790928bebf0b969fc839b02","679826c1e71d9d08ae4de998","passed","","","","","","","","","","","","","","","","","ballFalling_prac","340","334","350","3","fallScene","true","","","","","",""
"","","","","","html-keyboard-response","41","111175","0.0-13.0-4.0-1.1","663cd0ab9a13d177b358f8f1","6790928bebf0b969fc839b02","679826c1e71d9d08ae4de998","passed","","289","","","","","","","","","","","","","","j","yesOrNo_prac","","","","3","","","close gt","1000","","","",""
"","","","","","html-keyboard-response","42","112736","0.0-13.0-4.0-0.2","663cd0ab9a13d177b358f8f1","6790928bebf0b969fc839b02","679826c1e71d9d08ae4de998","passed","","","","","","","","","","","","","","","","","ballFalling_prac","441","500","317","6","fallScene","true","","","","","",""
"","","","","","html-keyboard-response","43","113739","0.0-13.0-4.0-1.2","663cd0ab9a13d177b358f8f1","6790928bebf0b969fc839b02","679826c1e71d9d08ae4de998","passed","","338","","","","","","","","","","","","","","j","yesOrNo_prac","","","","6","","","gt","1000","","","",""
"","","","","","instructions","44","116079","0.0-13.0-5.0","663cd0ab9a13d177b358f8f1","6790928bebf0b969fc839b02","679826c1e71d9d08ae4de998","passed","[{""page_index"":0,""viewing_time"":2340}]","2340","","","","","","","","","","","","","","","","","","","","","","","","","","",""
"","","","","","html-keyboard-response","45","118074","0.0-13.0-6.0","663cd0ab9a13d177b358f8f1","6790928bebf0b969fc839b02","679826c1e71d9d08ae4de998","passed","","1994","","","","","","","","","","","","","<p><span style=""font-size:40px;"">Practice Test BLOCK 1</span></p><p><span style=""font-size:25px;"">You have <b style=""color: #FF644F;""><strong>1 second(s)</strong></b> to respond to the following trials.</span><br></p><p id=""blinking-text"" style=""font-weight; animation: blink 2s infinite;"">Press Space to continue</p><style>
                    @keyframes blink {
                        50% {
                            opacity: 0;
                        }
                    }
                </style>"," ","","","","","","","","","","","","",""
"","","","","","html-keyboard-response","46","119656","0.0-13.0-7.0-0.0","663cd0ab9a13d177b358f8f1","6790928bebf0b969fc839b02","679826c1e71d9d08ae4de998","passed","","","","","","","","","","","","","","","","","ballFalling_prac","559","586","302","5","fallScene","false","","","","","",""
"","","","","","html-keyboard-response","47","120658","0.0-13.0-7.0-1.0","663cd0ab9a13d177b358f8f1","6790928bebf0b969fc839b02","679826c1e71d9d08ae4de998","passed","","237","","","","","","","","","","","","","","j","yesOrNo_prac","","","","5","","","gt","1000","","","",""
"","","","","","html-keyboard-response","48","122235","0.0-13.0-7.0-0.1","663cd0ab9a13d177b358f8f1","6790928bebf0b969fc839b02","679826c1e71d9d08ae4de998","passed","","","","","","","","","","","","","","","","","ballFalling_prac","340","390","263","4","fallScene","true","","","","","",""
"","","","","","html-keyboard-response","49","123238","0.0-13.0-7.0-1.1","663cd0ab9a13d177b358f8f1","6790928bebf0b969fc839b02","679826c1e71d9d08ae4de998","passed","","136","","","","","","","","","","","","","","f","yesOrNo_prac","","","","4","","","far gt","1000","","","",""
"","","","","","html-keyboard-response","50","124797","0.0-13.0-7.0-0.2","663cd0ab9a13d177b358f8f1","6790928bebf0b969fc839b02","679826c1e71d9d08ae4de998","passed","","","","","","","","","","","","","","","","","ballFalling_prac","441","500","317","6","fallScene","true","","","","","",""
"","","","","","html-keyboard-response","51","125803","0.0-13.0-7.0-1.2","663cd0ab9a13d177b358f8f1","6790928bebf0b969fc839b02","679826c1e71d9d08ae4de998","passed","","305","","","","","","","","","","","","","","j","yesOrNo_prac","","","","6","","","close gt","1000","","","",""
"","","","","","html-keyboard-response","52","127283","0.0-13.0-8.0","663cd0ab9a13d177b358f8f1","6790928bebf0b969fc839b02","679826c1e71d9d08ae4de998","passed","","1479","","","","","","","","","","","","","<p><span style=""font-size:40px;"">Practice Test BLOCK 2</span></p><p><span style=""font-size:25px;"">You have <b style=""color: #FF644F;""><strong>3 second(s)</strong></b> to respond to the following trials.</span><br></p><p id=""blinking-text"" style=""font-weight; animation: blink 2s infinite;"">Press Space to continue</p><style>
                    @keyframes blink {
                        50% {
                            opacity: 0;
                        }
                    }
                </style>"," ","","","","","","","","","","","","",""
"","","","","","html-keyboard-response","53","128861","0.0-13.0-9.0-0.0","663cd0ab9a13d177b358f8f1","6790928bebf0b969fc839b02","679826c1e71d9d08ae4de998","passed","","","","","","","","","","","","","","","","","ballFalling_prac","559","586","302","5","fallScene","false","","","","","",""
"","","","","","html-keyboard-response","54","131863","0.0-13.0-9.0-1.0","663cd0ab9a13d177b358f8f1","6790928bebf0b969fc839b02","679826c1e71d9d08ae4de998","passed","","194","","","","","","","","","","","","","","j","yesOrNo_prac","","","","5","","","far gt","3000","","","",""
"","","","","","html-keyboard-response","55","133438","0.0-13.0-9.0-0.1","663cd0ab9a13d177b358f8f1","6790928bebf0b969fc839b02","679826c1e71d9d08ae4de998","passed","","","","","","","","","","","","","","","","","ballFalling_prac","416","365","249","2","fallScene","false","","","","","",""
"","","","","","html-keyboard-response","56","136442","0.0-13.0-9.0-1.1","663cd0ab9a13d177b358f8f1","6790928bebf0b969fc839b02","679826c1e71d9d08ae4de998","passed","","212","","","","","","","","","","","","","","j","yesOrNo_prac","","","","2","","","gt","3000","","","",""
"","","","","","html-keyboard-response","57","138016","0.0-13.0-9.0-0.2","663cd0ab9a13d177b358f8f1","6790928bebf0b969fc839b02","679826c1e71d9d08ae4de998","passed","","","","","","","","","","","","","","","","","ballFalling_prac","340","390","263","4","fallScene","true","","","","","",""
"","","","","","html-keyboard-response","58","141020","0.0-13.0-9.0-1.2","663cd0ab9a13d177b358f8f1","6790928bebf0b969fc839b02","679826c1e71d9d08ae4de998","passed","","213","","","","","","","","","","","","","","j","yesOrNo_prac","","","","4","","","close gt","3000","","","",""
"","","","","","instructions","59","142753","0.0-14.0","663cd0ab9a13d177b358f8f1","6790928bebf0b969fc839b02","679826c1e71d9d08ae4de998","passed","[{""page_index"":0,""viewing_time"":1733}]","1733","","","","","","","","","","","","","","","","","","","","","","","","","","",""
"","","","","","html-keyboard-response","60","144654","0.0-15.0","663cd0ab9a13d177b358f8f1","6790928bebf0b969fc839b02","679826c1e71d9d08ae4de998","passed","","1901","","","","","","","","","","","","","<p><span style=""font-size:40px;"">BLOCK 1</span></p><p><span style=""font-size:25px;"">You have <b style=""color: #FF644F;""><strong>1 second(s)</strong></b> to respond to the following trials.</span><br></p><p></p> <!-- Blank line -->
                <p id=""blinking-text"" style=""font-weight; animation: blink 2s infinite;"">Press Space to continue</p>
                <style>
                    @keyframes blink {
                        50% {
                            opacity: 0;
                        }
                    }
                </style></p>"," ","","","","","","","","","","","","",""
"","","","","","html-keyboard-response","61","146219","0.0-16.0-0.0","663cd0ab9a13d177b358f8f1","6790928bebf0b969fc839b02","679826c1e71d9d08ae4de998","passed","","","","","","","","","","","","","","","","","ballFalling","604.4000000000001","650.0211431702996","404.58000000000004","11","fallScene","true","","","","1","",""
"","","","","","html-keyboard-response","62","147223","0.0-16.0-1.0","663cd0ab9a13d177b358f8f1","6790928bebf0b969fc839b02","679826c1e71d9d08ae4de998","passed","","null","","","","","","","","","","","","","","null","yesOrNo","","","","11","","","gt","1000","","1","650.0211431702996","404.58"
"","","","","","html-keyboard-response","63","148782","0.0-16.0-0.1","663cd0ab9a13d177b358f8f1","6790928bebf0b969fc839b02","679826c1e71d9d08ae4de998","passed","","","","","","","","","","","","","","","","","ballFalling","500","453.67114317029973","210.33","5","fallScene","false","","","","2","",""
"","","","","","html-keyboard-response","64","149785","0.0-16.0-1.1","663cd0ab9a13d177b358f8f1","6790928bebf0b969fc839b02","679826c1e71d9d08ae4de998","passed","","null","","","","","","","","","","","","","","null","yesOrNo","","","","5","","","gt","1000","","2","453.6711431702998","210.33"
"","","","","","html-keyboard-response","65","151782","0.0-16.0-0.2","663cd0ab9a13d177b358f8f1","6790928bebf0b969fc839b02","679826c1e71d9d08ae4de998","passed","","","","","","","","","","","","","","","","","ballFalling","500","510.8711431702997","369.03","8","fallScene","false","","","","3","",""
"","","","","","html-keyboard-response","66","152784","0.0-16.0-1.2","663cd0ab9a13d177b358f8f1","6790928bebf0b969fc839b02","679826c1e71d9d08ae4de998","passed","","207","","","","","","","","","","","","","","j","yesOrNo","","","","8","","","gt","1000","","3","510.8711431702997","369.03"
"","","","","","html-keyboard-response","67","154783","0.0-16.0-0.3","663cd0ab9a13d177b358f8f1","6790928bebf0b969fc839b02","679826c1e71d9d08ae4de998","passed","","","","","","","","","","","","","","","","","ballFalling","604.4000000000001","596.8711431702998","394.5","10","fallScene","true","","","","4","",""
"","","","","","html-keyboard-response","68","155785","0.0-16.0-1.3","663cd0ab9a13d177b358f8f1","6790928bebf0b969fc839b02","679826c1e71d9d08ae4de998","passed","","373","","","","","","","","","","","","","","f","yesOrNo","","","","10","","","lp","1000","","4","603.4000000000001","215.50214355555383"
"","","","","","html-keyboard-response","69","157345","0.0-16.0-0.4","663cd0ab9a13d177b358f8f1","6790928bebf0b969fc839b02","679826c1e71d9d08ae4de998","passed","","","","","","","","","","","","","","","","","ballFalling","604.4000000000001","575.4211431702997","266.76","12","fallScene","false","","","","5","",""
"","","","","","html-keyboard-response","70","158346","0.0-16.0-1.4","663cd0ab9a13d177b358f8f1","6790928bebf0b969fc839b02","679826c1e71d9d08ae4de998","passed","","217","","","","","","","","","","","","","","j","yesOrNo","","","","12","","","gt","1000","","5","575.4211431702997","266.76"
"","","","","","html-keyboard-response","71","159907","0.0-16.0-0.5","663cd0ab9a13d177b358f8f1","6790928bebf0b969fc839b02","679826c1e71d9d08ae4de998","passed","","","","","","","","","","","","","","","","","ballFalling","322.3","296.07114317029976","371.46","3","fallScene","false","","","","6","",""
"","","","","","html-keyboard-response","72","160911","0.0-16.0-1.5","663cd0ab9a13d177b358f8f1","6790928bebf0b969fc839b02","679826c1e71d9d08ae4de998","passed","","101","","","","","","","","","","","","","","j","yesOrNo","","","","3","","","mid","1000","","6","321.3","300"
"","","","","","html-keyboard-response","73","162469","0.0-16.0-0.6","663cd0ab9a13d177b358f8f1","6790928bebf0b969fc839b02","679826c1e71d9d08ae4de998","passed","","","","","","","","","","","","","","","","","ballFalling","322.3","356.42114317029973","357.87","4","fallScene","true","","","","7","",""
"","","","","","html-keyboard-response","74","163472","0.0-16.0-1.6","663cd0ab9a13d177b358f8f1","6790928bebf0b969fc839b02","679826c1e71d9d08ae4de998","passed","","556","","","","","","","","","","","","","","f","yesOrNo","","","","4","","","gt","1000","","7","356.42114317029973","357.87"
"","","","","","html-keyboard-response","75","165032","0.0-16.0-0.7","663cd0ab9a13d177b358f8f1","6790928bebf0b969fc839b02","679826c1e71d9d08ae4de998","passed","","","","","","","","","","","","","","","","","ballFalling","500","453.67114317029973","210.33","5","fallScene","false","","","","8","",""
"","","","","","html-keyboard-response","76","166034","0.0-16.0-1.7","663cd0ab9a13d177b358f8f1","6790928bebf0b969fc839b02","679826c1e71d9d08ae4de998","passed","","410","","","","","","","","","","","","","","j","yesOrNo","","","","5","","","mid","1000","","8","499","300"
"","","","","","html-keyboard-response","77","168031","0.0-16.0-0.8","663cd0ab9a13d177b358f8f1","6790928bebf0b969fc839b02","679826c1e71d9d08ae4de998","passed","","","","","","","","","","","","","","","","","ballFalling","604.4000000000001","596.8711431702998","394.5","10","fallScene","true","","","","9","",""
"","","","","","html-keyboard-response","78","169034","0.0-16.0-1.8","663cd0ab9a13d177b358f8f1","6790928bebf0b969fc839b02","679826c1e71d9d08ae4de998","passed","","368","","","","","","","","","","","","","","j","yesOrNo","","","","10","","","mid","1000","","9","536.4288568297004","300"
"","","","","","html-keyboard-response","79","170595","0.0-16.0-0.9","663cd0ab9a13d177b358f8f1","6790928bebf0b969fc839b02","679826c1e71d9d08ae4de998","passed","","","","","","","","","","","","","","","","","ballFalling","604.4000000000001","575.4211431702997","266.76","12","fallScene","false","","","","10","",""
"","","","","","html-keyboard-response","80","171598","0.0-16.0-1.9","663cd0ab9a13d177b358f8f1","6790928bebf0b969fc839b02","679826c1e71d9d08ae4de998","passed","","400","","","","","","","","","","","","","","j","yesOrNo","","","","12","","","lp","1000","","10","603.4000000000001","151"
"","","","","","html-keyboard-response","81","173159","0.0-16.0-0.10","663cd0ab9a13d177b358f8f1","6790928bebf0b969fc839b02","679826c1e71d9d08ae4de998","passed","","","","","","","","","","","","","","","","","ballFalling","322.3","296.07114317029976","371.46","3","fallScene","false","","","","11","",""
"","","","","","html-keyboard-response","82","174161","0.0-16.0-1.10","663cd0ab9a13d177b358f8f1","6790928bebf0b969fc839b02","679826c1e71d9d08ae4de998","passed","","712","","","","","","","","","","","","","","j","yesOrNo","","","","3","","","lp","1000","","11","321.3","287.3327096511259"
"","","","","","html-keyboard-response","83","175642","0.0-16.0-0.11","663cd0ab9a13d177b358f8f1","6790928bebf0b969fc839b02","679826c1e71d9d08ae4de998","passed","","","","","","","","","","","","","","","","","ballFalling","604.4000000000001","667.6211431702998","201.78","9","fallScene","true","","","","12","",""
"","","","","","html-keyboard-response","84","176643","0.0-16.0-1.11","663cd0ab9a13d177b358f8f1","6790928bebf0b969fc839b02","679826c1e71d9d08ae4de998","passed","","370","","","","","","","","","","","","","","f","yesOrNo","","","","9","","","lp","1000","","12","605.4000000000001","151"
"","","","","","html-keyboard-response","85","178204","0.0-16.0-0.12","663cd0ab9a13d177b358f8f1","6790928bebf0b969fc839b02","679826c1e71d9d08ae4de998","passed","","","","","","","","","","","","","","","","","ballFalling","604.4000000000001","650.0211431702996","404.58000000000004","11","fallScene","true","","","","13","",""
"","","","","","html-keyboard-response","86","179206","0.0-16.0-1.12","663cd0ab9a13d177b358f8f1","6790928bebf0b969fc839b02","679826c1e71d9d08ae4de998","passed","","399","","","","","","","","","","","","","","j","yesOrNo","","","","11","","","gt","1000","","13","650.0211431702996","404.58"
"","","","","","html-keyboard-response","87","180767","0.0-16.0-0.13","663cd0ab9a13d177b358f8f1","6790928bebf0b969fc839b02","679826c1e71d9d08ae4de998","passed","","","","","","","","","","","","","","","","","ballFalling","322.3","379.3711431702997","245.25","1","fallScene","true","","","","14","",""
"","","","","","html-keyboard-response","88","181768","0.0-16.0-1.13","663cd0ab9a13d177b358f8f1","6790928bebf0b969fc839b02","679826c1e71d9d08ae4de998","passed","","298","","","","","","","","","","","","","","j","yesOrNo","","","","1","","","mid","1000","","14","390.27114317029975","300"
"","","","","","html-keyboard-response","89","183329","0.0-16.0-0.14","663cd0ab9a13d177b358f8f1","6790928bebf0b969fc839b02","679826c1e71d9d08ae4de998","passed","","","","","","","","","","","","","","","","","ballFalling","604.4000000000001","575.4211431702997","266.76","12","fallScene","true","","","","15","",""
"","","","","","html-keyboard-response","90","184332","0.0-16.0-1.14","663cd0ab9a13d177b358f8f1","6790928bebf0b969fc839b02","679826c1e71d9d08ae4de998","passed","","868","","","","","","","","","","","","","","j","yesOrNo","","","","12","","","mid","1000","","15","536.4288568297004","300"
"","","","","","html-keyboard-response","91","185892","0.0-16.0-0.15","663cd0ab9a13d177b358f8f1","6790928bebf0b969fc839b02","679826c1e71d9d08ae4de998","passed","","","","","","","","","","","","","","","","","ballFalling","322.3","296.07114317029976","371.46","3","fallScene","true","","","","16","",""
"","","","","","html-keyboard-response","92","186894","0.0-16.0-1.15","663cd0ab9a13d177b358f8f1","6790928bebf0b969fc839b02","679826c1e71d9d08ae4de998","passed","","460","","","","","","","","","","","","","","j","yesOrNo","","","","3","","","mid","1000","","16","321.3","300"
"","","","","","html-keyboard-response","93","188454","0.0-16.0-0.16","663cd0ab9a13d177b358f8f1","6790928bebf0b969fc839b02","679826c1e71d9d08ae4de998","passed","","","","","","","","","","","","","","","","","ballFalling","322.3","379.3711431702997","245.25","1","fallScene","true","","","","17","",""
"","","","","","html-keyboard-response","94","189457","0.0-16.0-1.16","663cd0ab9a13d177b358f8f1","6790928bebf0b969fc839b02","679826c1e71d9d08ae4de998","passed","","439","","","","","","","","","","","","","","j","yesOrNo","","","","1","","","gt","1000","","17","379.3711431702997","245.25"
"","","","","","html-keyboard-response","95","191453","0.0-16.0-0.17","663cd0ab9a13d177b358f8f1","6790928bebf0b969fc839b02","679826c1e71d9d08ae4de998","passed","","","","","","","","","","","","","","","","","ballFalling","500","510.8711431702997","369.03","8","fallScene","true","","","","18","",""
"","","","","","html-keyboard-response","96","192456","0.0-16.0-1.17","663cd0ab9a13d177b358f8f1","6790928bebf0b969fc839b02","679826c1e71d9d08ae4de998","passed","","282","","","","","","","","","","","","","","f","yesOrNo","","","","8","","","mid","1000","","18","501","300"
"","","","","","html-keyboard-response","97","194251","0.0-16.0-0.18","663cd0ab9a13d177b358f8f1","6790928bebf0b969fc839b02","679826c1e71d9d08ae4de998","passed","","","","","","","","","","","","","","","","","ballFalling","322.3","308.07114317029976","253.89","2","fallScene","true","","","","19","",""
"","","","","","html-keyboard-response","98","195253","0.0-16.0-1.18","663cd0ab9a13d177b358f8f1","6790928bebf0b969fc839b02","679826c1e71d9d08ae4de998","passed","","253","","","","","","","","","","","","","","f","yesOrNo","","","","2","","","mid","1000","","19","321.3","300"
"","","","","","html-keyboard-response","99","196828","0.0-16.0-0.19","663cd0ab9a13d177b358f8f1","6790928bebf0b969fc839b02","679826c1e71d9d08ae4de998","passed","","","","","","","","","","","","","","","","","ballFalling","500","553.4711431702997","282.51","7","fallScene","true","","","","20","",""
"","","","","","html-keyboard-response","100","197831","0.0-16.0-1.19","663cd0ab9a13d177b358f8f1","6790928bebf0b969fc839b02","679826c1e71d9d08ae4de998","passed","","148","","","","","","","","","","","","","","j","yesOrNo","","","","7","","","mid","1000","","20","501","300"
"","","","","","html-keyboard-response","101","199391","0.0-16.0-0.20","663cd0ab9a13d177b358f8f1","6790928bebf0b969fc839b02","679826c1e71d9d08ae4de998","passed","","","","","","","","","","","","","","","","","ballFalling","322.3","296.07114317029976","371.46","3","fallScene","false","","","","21","",""
"","","","","","html-keyboard-response","102","200396","0.0-16.0-1.20","663cd0ab9a13d177b358f8f1","6790928bebf0b969fc839b02","679826c1e71d9d08ae4de998","passed","","252","","","","","","","","","","","","","","j","yesOrNo","","","","3","","","gt","1000","","21","296.07114317029976","371.46"
"","","","","","html-keyboard-response","103","201876","0.0-16.0-0.21","663cd0ab9a13d177b358f8f1","6790928bebf0b969fc839b02","679826c1e71d9d08ae4de998","passed","","","","","","","","","","","","","","","","","ballFalling","604.4000000000001","667.6211431702998","201.78","9","fallScene","true","","","","22","",""
"","","","","","html-keyboard-response","104","202878","0.0-16.0-1.21","663cd0ab9a13d177b358f8f1","6790928bebf0b969fc839b02","679826c1e71d9d08ae4de998","passed","","91","","","","","","","","","","","","","","j","yesOrNo","","","","9","","","gt","1000","","22","667.6211431702998","201.78"
"","","","","","html-keyboard-response","105","204438","0.0-16.0-0.22","663cd0ab9a13d177b358f8f1","6790928bebf0b969fc839b02","679826c1e71d9d08ae4de998","passed","","","","","","","","","","","","","","","","","ballFalling","322.3","379.3711431702997","245.25","1","fallScene","true","","","","23","",""
"","","","","","html-keyboard-response","106","205441","0.0-16.0-1.22","663cd0ab9a13d177b358f8f1","6790928bebf0b969fc839b02","679826c1e71d9d08ae4de998","passed","","298","","","","","","","","","","","","","","f","yesOrNo","","","","1","","","gt","1000","","23","379.3711431702997","245.25"
"","","","","","html-keyboard-response","107","207016","0.0-16.0-0.23","663cd0ab9a13d177b358f8f1","6790928bebf0b969fc839b02","679826c1e71d9d08ae4de998","passed","","","","","","","","","","","","","","","","","ballFalling","500","553.4711431702997","282.51","7","fallScene","false","","","","24","",""
"","","","","","html-keyboard-response","108","208018","0.0-16.0-1.23","663cd0ab9a13d177b358f8f1","6790928bebf0b969fc839b02","679826c1e71d9d08ae4de998","passed","","57","","","","","","","","","","","","","","f","yesOrNo","","","","7","","","gt","1000","","24","553.4711431702997","282.51"
"","","","","","html-keyboard-response","109","212521","0.0-17.0","663cd0ab9a13d177b358f8f1","6790928bebf0b969fc839b02","679826c1e71d9d08ae4de998","passed","","4502","","","","","","","","","","","","","<p><span style=""font-size:40px;"">BLOCK 2</span></p><p><span style=""font-size:25px;"">You have <b style=""color: #FF644F;""><strong>3 second(s)</strong></b> to respond to the following trials.</span><br></p><p></p> <!-- Blank line -->
                <p id=""blinking-text"" style=""font-weight; animation: blink 2s infinite;"">Press Space to continue</p>
                <style>
                    @keyframes blink {
                        50% {
                            opacity: 0;
                        }
                    }
                </style></p>"," ","","","","","","","","","","","","",""
"","","","","","html-keyboard-response","110","214079","0.0-18.0-0.0","663cd0ab9a13d177b358f8f1","6790928bebf0b969fc839b02","679826c1e71d9d08ae4de998","passed","","","","","","","","","","","","","","","","","ballFalling","322.3","356.42114317029973","357.87","4","fallScene","true","","","","25","",""
"","","","","","html-keyboard-response","111","217083","0.0-18.0-1.0","663cd0ab9a13d177b358f8f1","6790928bebf0b969fc839b02","679826c1e71d9d08ae4de998","passed","","409","","","","","","","","","","","","","","j","yesOrNo","","","","4","","","gt","3000","","25","356.42114317029973","357.87"
"","","","","","html-keyboard-response","112","218641","0.0-18.0-0.1","663cd0ab9a13d177b358f8f1","6790928bebf0b969fc839b02","679826c1e71d9d08ae4de998","passed","","","","","","","","","","","","","","","","","ballFalling","500","453.67114317029973","210.33","5","fallScene","true","","","","26","",""
"","","","","","html-keyboard-response","113","221645","0.0-18.0-1.1","663cd0ab9a13d177b358f8f1","6790928bebf0b969fc839b02","679826c1e71d9d08ae4de998","passed","","39","","","","","","","","","","","","","","f","yesOrNo","","","","5","","","gt","3000","","26","453.6711431702998","210.33"
"","","","","","html-keyboard-response","114","223203","0.0-18.0-0.2","663cd0ab9a13d177b358f8f1","6790928bebf0b969fc839b02","679826c1e71d9d08ae4de998","passed","","","","","","","","","","","","","","","","","ballFalling","322.3","296.07114317029976","371.46","3","fallScene","false","","","","27","",""
"","","","","","html-keyboard-response","115","226205","0.0-18.0-1.2","663cd0ab9a13d177b358f8f1","6790928bebf0b969fc839b02","679826c1e71d9d08ae4de998","passed","","888","","","","","","","","","","","","","","j","yesOrNo","","","","3","","","lp","3000","","27","321.3","287.3327096511259"
"","","","","","html-keyboard-response","116","228204","0.0-18.0-0.3","663cd0ab9a13d177b358f8f1","6790928bebf0b969fc839b02","679826c1e71d9d08ae4de998","passed","","","","","","","","","","","","","","","","","ballFalling","604.4000000000001","596.8711431702998","394.5","10","fallScene","true","","","","28","",""
"","","","","","html-keyboard-response","117","231206","0.0-18.0-1.3","663cd0ab9a13d177b358f8f1","6790928bebf0b969fc839b02","679826c1e71d9d08ae4de998","passed","","405","","","","","","","","","","","","","","j","yesOrNo","","","","10","","","mid","3000","","28","536.4288568297004","300"
"","","","","","html-keyboard-response","118","232781","0.0-18.0-0.4","663cd0ab9a13d177b358f8f1","6790928bebf0b969fc839b02","679826c1e71d9d08ae4de998","passed","","","","","","","","","","","","","","","","","ballFalling","500","553.4711431702997","282.51","7","fallScene","true","","","","29","",""
"","","","","","html-keyboard-response","119","235783","0.0-18.0-1.4","663cd0ab9a13d177b358f8f1","6790928bebf0b969fc839b02","679826c1e71d9d08ae4de998","passed","","404","","","","","","","","","","","","","","f","yesOrNo","","","","7","","","gt","3000","","29","553.4711431702997","282.51"
"","","","","","html-keyboard-response","120","237579","0.0-18.0-0.5","663cd0ab9a13d177b358f8f1","6790928bebf0b969fc839b02","679826c1e71d9d08ae4de998","passed","","","","","","","","","","","","","","","","","ballFalling","322.3","308.07114317029976","253.89","2","fallScene","false","","","","30","",""
"","","","","","html-keyboard-response","121","240581","0.0-18.0-1.5","663cd0ab9a13d177b358f8f1","6790928bebf0b969fc839b02","679826c1e71d9d08ae4de998","passed","","468","","","","","","","","","","","","","","f","yesOrNo","","","","2","","","lp","3000","","30","321.3","151"
"","","","","","html-keyboard-response","122","242143","0.0-18.0-0.6","663cd0ab9a13d177b358f8f1","6790928bebf0b969fc839b02","679826c1e71d9d08ae4de998","passed","","","","","","","","","","","","","","","","","ballFalling","604.4000000000001","575.4211431702997","266.76","12","fallScene","true","","","","31","",""
"","","","","","html-keyboard-response","123","245144","0.0-18.0-1.6","663cd0ab9a13d177b358f8f1","6790928bebf0b969fc839b02","679826c1e71d9d08ae4de998","passed","","397","","","","","","","","","","","","","","j","yesOrNo","","","","12","","","gt","3000","","31","575.4211431702997","266.76"
"","","","","","html-keyboard-response","124","246705","0.0-18.0-0.7","663cd0ab9a13d177b358f8f1","6790928bebf0b969fc839b02","679826c1e71d9d08ae4de998","passed","","","","","","","","","","","","","","","","","ballFalling","604.4000000000001","575.4211431702997","266.76","12","fallScene","false","","","","32","",""
"","","","","","html-keyboard-response","125","249707","0.0-18.0-1.7","663cd0ab9a13d177b358f8f1","6790928bebf0b969fc839b02","679826c1e71d9d08ae4de998","passed","","450","","","","","","","","","","","","","","j","yesOrNo","","","","12","","","gt","3000","","32","575.4211431702997","266.76"
"","","","","","html-keyboard-response","126","251188","0.0-18.0-0.8","663cd0ab9a13d177b358f8f1","6790928bebf0b969fc839b02","679826c1e71d9d08ae4de998","passed","","","","","","","","","","","","","","","","","ballFalling","604.4000000000001","667.6211431702998","201.78","9","fallScene","true","","","","33","",""
"","","","","","html-keyboard-response","127","254190","0.0-18.0-1.8","663cd0ab9a13d177b358f8f1","6790928bebf0b969fc839b02","679826c1e71d9d08ae4de998","passed","","372","","","","","","","","","","","","","","j","yesOrNo","","","","9","","","gt","3000","","33","667.6211431702998","201.78"
"","","","","","html-keyboard-response","128","256188","0.0-18.0-0.9","663cd0ab9a13d177b358f8f1","6790928bebf0b969fc839b02","679826c1e71d9d08ae4de998","passed","","","","","","","","","","","","","","","","","ballFalling","500","510.8711431702997","369.03","8","fallScene","true","","","","34","",""
"","","","","","html-keyboard-response","129","259190","0.0-18.0-1.9","663cd0ab9a13d177b358f8f1","6790928bebf0b969fc839b02","679826c1e71d9d08ae4de998","passed","","393","","","","","","","","","","","","","","j","yesOrNo","","","","8","","","mid","3000","","34","501","300"
"","","","","","html-keyboard-response","130","260751","0.0-18.0-0.10","663cd0ab9a13d177b358f8f1","6790928bebf0b969fc839b02","679826c1e71d9d08ae4de998","passed","","","","","","","","","","","","","","","","","ballFalling","322.3","356.42114317029973","357.87","4","fallScene","true","","","","35","",""
"","","","","","html-keyboard-response","131","263753","0.0-18.0-1.10","663cd0ab9a13d177b358f8f1","6790928bebf0b969fc839b02","679826c1e71d9d08ae4de998","passed","","null","","","","","","","","","","","","","","null","yesOrNo","","","","4","","","mid","3000","","35","390.27114317029975","300"
"","","","","","html-keyboard-response","132","265313","0.0-18.0-0.11","663cd0ab9a13d177b358f8f1","6790928bebf0b969fc839b02","679826c1e71d9d08ae4de998","passed","","","","","","","","","","","","","","","","","ballFalling","322.3","296.07114317029976","371.46","3","fallScene","false","","","","36","",""
"","","","","","html-keyboard-response","133","268316","0.0-18.0-1.11","663cd0ab9a13d177b358f8f1","6790928bebf0b969fc839b02","679826c1e71d9d08ae4de998","passed","","479","","","","","","","","","","","","","","f","yesOrNo","","","","3","","","mid","3000","","36","321.3","300"
"","","","","","html-keyboard-response","134","269875","0.0-18.0-0.12","663cd0ab9a13d177b358f8f1","6790928bebf0b969fc839b02","679826c1e71d9d08ae4de998","passed","","","","","","","","","","","","","","","","","ballFalling","500","453.67114317029973","210.33","5","fallScene","false","","","","37","",""
"","","","","","html-keyboard-response","135","272877","0.0-18.0-1.12","663cd0ab9a13d177b358f8f1","6790928bebf0b969fc839b02","679826c1e71d9d08ae4de998","passed","","347","","","","","","","","","","","","","","f","yesOrNo","","","","5","","","lp","3000","","37","499","151"
"","","","","","html-keyboard-response","136","274437","0.0-18.0-0.13","663cd0ab9a13d177b358f8f1","6790928bebf0b969fc839b02","679826c1e71d9d08ae4de998","passed","","","","","","","","","","","","","","","","","ballFalling","604.4000000000001","575.4211431702997","266.76","12","fallScene","false","","","","38","",""
"","","","","","html-keyboard-response","137","277439","0.0-18.0-1.13","663cd0ab9a13d177b358f8f1","6790928bebf0b969fc839b02","679826c1e71d9d08ae4de998","passed","","370","","","","","","","","","","","","","","j","yesOrNo","","","","12","","","mid","3000","","38","536.4288568297004","300"
"","","","","","html-keyboard-response","138","279001","0.0-18.0-0.14","663cd0ab9a13d177b358f8f1","6790928bebf0b969fc839b02","679826c1e71d9d08ae4de998","passed","","","","","","","","","","","","","","","","","ballFalling","322.3","356.42114317029973","357.87","4","fallScene","true","","","","39","",""
"","","","","","html-keyboard-response","139","282003","0.0-18.0-1.14","663cd0ab9a13d177b358f8f1","6790928bebf0b969fc839b02","679826c1e71d9d08ae4de998","passed","","361","","","","","","","","","","","","","","j","yesOrNo","","","","4","","","lp","3000","","39","323.3","297.4070551689986"
"","","","","","html-keyboard-response","140","283798","0.0-18.0-0.15","663cd0ab9a13d177b358f8f1","6790928bebf0b969fc839b02","679826c1e71d9d08ae4de998","passed","","","","","","","","","","","","","","","","","ballFalling","322.3","308.07114317029976","253.89","2","fallScene","true","","","","40","",""
"","","","","","html-keyboard-response","141","286800","0.0-18.0-1.15","663cd0ab9a13d177b358f8f1","6790928bebf0b969fc839b02","679826c1e71d9d08ae4de998","passed","","431","","","","","","","","","","","","","","j","yesOrNo","","","","2","","","gt","3000","","40","308.07114317029976","253.89"
"","","","","","html-keyboard-response","142","288360","0.0-18.0-0.16","663cd0ab9a13d177b358f8f1","6790928bebf0b969fc839b02","679826c1e71d9d08ae4de998","passed","","","","","","","","","","","","","","","","","ballFalling","322.3","296.07114317029976","371.46","3","fallScene","true","","","","41","",""
"","","","","","html-keyboard-response","143","291363","0.0-18.0-1.16","663cd0ab9a13d177b358f8f1","6790928bebf0b969fc839b02","679826c1e71d9d08ae4de998","passed","","353","","","","","","","","","","","","","","f","yesOrNo","","","","3","","","mid","3000","","41","321.3","300"
"","","","","","html-keyboard-response","144","292939","0.0-18.0-0.17","663cd0ab9a13d177b358f8f1","6790928bebf0b969fc839b02","679826c1e71d9d08ae4de998","passed","","","","","","","","","","","","","","","","","ballFalling","500","553.4711431702997","282.51","7","fallScene","false","","","","42","",""
"","","","","","html-keyboard-response","145","295942","0.0-18.0-1.17","663cd0ab9a13d177b358f8f1","6790928bebf0b969fc839b02","679826c1e71d9d08ae4de998","passed","","335","","","","","","","","","","","","","","f","yesOrNo","","","","7","","","gt","3000","","42","553.4711431702997","282.51"
"","","","","","html-keyboard-response","146","297517","0.0-18.0-0.18","663cd0ab9a13d177b358f8f1","6790928bebf0b969fc839b02","679826c1e71d9d08ae4de998","passed","","","","","","","","","","","","","","","","","ballFalling","500","553.4711431702997","282.51","7","fallScene","true","","","","43","",""
"","","","","","html-keyboard-response","147","300519","0.0-18.0-1.18","663cd0ab9a13d177b358f8f1","6790928bebf0b969fc839b02","679826c1e71d9d08ae4de998","passed","","390","","","","","","","","","","","","","","j","yesOrNo","","","","7","","","mid","3000","","43","501","300"
"","","","","","html-keyboard-response","148","302079","0.0-18.0-0.19","663cd0ab9a13d177b358f8f1","6790928bebf0b969fc839b02","679826c1e71d9d08ae4de998","passed","","","","","","","","","","","","","","","","","ballFalling","322.3","296.07114317029976","371.46","3","fallScene","false","","","","44","",""
"","","","","","html-keyboard-response","149","305080","0.0-18.0-1.19","663cd0ab9a13d177b358f8f1","6790928bebf0b969fc839b02","679826c1e71d9d08ae4de998","passed","","327","","","","","","","","","","","","","","j","yesOrNo","","","","3","","","lp","3000","","44","321.3","287.3327096511259"
"","","","","","html-keyboard-response","150","306564","0.0-18.0-0.20","663cd0ab9a13d177b358f8f1","6790928bebf0b969fc839b02","679826c1e71d9d08ae4de998","passed","","","","","","","","","","","","","","","","","ballFalling","604.4000000000001","667.6211431702998","201.78","9","fallScene","true","","","","45","",""
"","","","","","html-keyboard-response","151","309566","0.0-18.0-1.20","663cd0ab9a13d177b358f8f1","6790928bebf0b969fc839b02","679826c1e71d9d08ae4de998","passed","","299","","","","","","","","","","","","","","j","yesOrNo","","","","9","","","mid","3000","","45","605.4000000000001","300"
"","","","","","html-keyboard-response","152","311125","0.0-18.0-0.21","663cd0ab9a13d177b358f8f1","6790928bebf0b969fc839b02","679826c1e71d9d08ae4de998","passed","","","","","","","","","","","","","","","","","ballFalling","604.4000000000001","650.0211431702996","404.58000000000004","11","fallScene","false","","","","46","",""
"","","","","","html-keyboard-response","153","314128","0.0-18.0-1.21","663cd0ab9a13d177b358f8f1","6790928bebf0b969fc839b02","679826c1e71d9d08ae4de998","passed","","206","","","","","","","","","","","","","","j","yesOrNo","","","","11","","","lp","3000","","46","605.4000000000001","372.6340973215488"
"","","","","","html-keyboard-response","154","316126","0.0-18.0-0.22","663cd0ab9a13d177b358f8f1","6790928bebf0b969fc839b02","679826c1e71d9d08ae4de998","passed","","","","","","","","","","","","","","","","","ballFalling","500","510.8711431702997","369.03","8","fallScene","true","","","","47","",""
"","","","","","html-keyboard-response","155","319129","0.0-18.0-1.22","663cd0ab9a13d177b358f8f1","6790928bebf0b969fc839b02","679826c1e71d9d08ae4de998","passed","","657","","","","","","","","","","","","","","j","yesOrNo","","","","8","","","gt","3000","","47","510.8711431702997","369.03"
"","","","","","html-keyboard-response","156","321126","0.0-18.0-0.23","663cd0ab9a13d177b358f8f1","6790928bebf0b969fc839b02","679826c1e71d9d08ae4de998","passed","","","","","","","","","","","","","","","","","ballFalling","500","510.8711431702997","369.03","8","fallScene","true","","","","48","",""
"","","","","","html-keyboard-response","157","324128","0.0-18.0-1.23","663cd0ab9a13d177b358f8f1","6790928bebf0b969fc839b02","679826c1e71d9d08ae4de998","passed","","448","","","","","","","","","","","","","","j","yesOrNo","","","","8","","","mid","3000","","48","501","300"
"","","","","","html-keyboard-response","158","326128","0.0-19.0","663cd0ab9a13d177b358f8f1","6790928bebf0b969fc839b02","679826c1e71d9d08ae4de998","passed","","1998","","","","","","","","","","","","","<p><span style=""font-size:40px;"">BLOCK 3</span></p><p><span style=""font-size:25px;"">You have <b style=""color: #FF644F;""><strong>3 second(s)</strong></b> to respond to the following trials.</span><br></p><p></p> <!-- Blank line -->
                <p id=""blinking-text"" style=""font-weight; animation: blink 2s infinite;"">Press Space to continue</p>
                <style>
                    @keyframes blink {
                        50% {
                            opacity: 0;
                        }
                    }
                </style></p>"," ","","","","","","","","","","","","",""
"","","","","","html-keyboard-response","159","327610","0.0-20.0-0.0","663cd0ab9a13d177b358f8f1","6790928bebf0b969fc839b02","679826c1e71d9d08ae4de998","passed","","","","","","","","","","","","","","","","","ballFalling","604.4000000000001","667.6211431702998","201.78","9","fallScene","false","","","","49","",""
"","","","","","html-keyboard-response","160","330614","0.0-20.0-1.0","663cd0ab9a13d177b358f8f1","6790928bebf0b969fc839b02","679826c1e71d9d08ae4de998","passed","","416","","","","","","","","","","","","","","j","yesOrNo","","","","9","","","lp","3000","","49","605.4000000000001","151"
"","","","","","html-keyboard-response","161","332094","0.0-20.0-0.1","663cd0ab9a13d177b358f8f1","6790928bebf0b969fc839b02","679826c1e71d9d08ae4de998","passed","","","","","","","","","","","","","","","","","ballFalling","604.4000000000001","667.6211431702998","201.78","9","fallScene","true","","","","50","",""
"","","","","","html-keyboard-response","162","335097","0.0-20.0-1.1","663cd0ab9a13d177b358f8f1","6790928bebf0b969fc839b02","679826c1e71d9d08ae4de998","passed","","2","","","","","","","","","","","","","","j","yesOrNo","","","","9","","","lp","3000","","50","605.4000000000001","151"
"","","","","","html-keyboard-response","163","336675","0.0-20.0-0.2","663cd0ab9a13d177b358f8f1","6790928bebf0b969fc839b02","679826c1e71d9d08ae4de998","passed","","","","","","","","","","","","","","","","","ballFalling","500","553.4711431702997","282.51","7","fallScene","false","","","","51","",""
"","","","","","html-keyboard-response","164","339682","0.0-20.0-1.2","663cd0ab9a13d177b358f8f1","6790928bebf0b969fc839b02","679826c1e71d9d08ae4de998","passed","","null","","","","","","","","","","","","","","null","yesOrNo","","","","7","","","mid","3000","","51","501","300"
"","","","","","html-keyboard-response","165","341251","0.0-20.0-0.3","663cd0ab9a13d177b358f8f1","6790928bebf0b969fc839b02","679826c1e71d9d08ae4de998","passed","","","","","","","","","","","","","","","","","ballFalling","604.4000000000001","650.0211431702996","404.58000000000004","11","fallScene","false","","","","52","",""
"","","","","","html-keyboard-response","166","344254","0.0-20.0-1.3","663cd0ab9a13d177b358f8f1","6790928bebf0b969fc839b02","679826c1e71d9d08ae4de998","passed","","2579","","","","","","","","","","","","","","j","yesOrNo","","","","11","","","gt","3000","","52","650.0211431702996","404.58"
"","","","","","html-keyboard-response","167","345908","0.0-20.0-0.4","663cd0ab9a13d177b358f8f1","6790928bebf0b969fc839b02","679826c1e71d9d08ae4de998","passed","","","","","","","","","","","","","","","","","ballFalling","500","479.92114317029973","330.87","6","fallScene","false","","","","53","",""
"","","","","","html-keyboard-response","168","348911","0.0-20.0-1.4","663cd0ab9a13d177b358f8f1","6790928bebf0b969fc839b02","679826c1e71d9d08ae4de998","passed","","855","","","","","","","","","","","","","","j","yesOrNo","","","","6","","","gt","3000","","53","479.9211431702998","330.87"
"","","","","","html-keyboard-response","169","350907","0.0-20.0-0.5","663cd0ab9a13d177b358f8f1","6790928bebf0b969fc839b02","679826c1e71d9d08ae4de998","passed","","","","","","","","","","","","","","","","","ballFalling","604.4000000000001","596.8711431702998","394.5","10","fallScene","true","","","","54","",""
"","","","","","html-keyboard-response","170","353910","0.0-20.0-1.5","663cd0ab9a13d177b358f8f1","6790928bebf0b969fc839b02","679826c1e71d9d08ae4de998","passed","","751","","","","","","","","","","","","","","j","yesOrNo","","","","10","","","mid","3000","","54","536.4288568297004","300"
"","","","","","html-keyboard-response","171","355906","0.0-20.0-0.6","663cd0ab9a13d177b358f8f1","6790928bebf0b969fc839b02","679826c1e71d9d08ae4de998","passed","","","","","","","","","","","","","","","","","ballFalling","500","510.8711431702997","369.03","8","fallScene","false","","","","55","",""
"","","","","","html-keyboard-response","172","358909","0.0-20.0-1.6","663cd0ab9a13d177b358f8f1","6790928bebf0b969fc839b02","679826c1e71d9d08ae4de998","passed","","602","","","","","","","","","","","","","","j","yesOrNo","","","","8","","","lp","3000","","55","501","151"
"","","","","","html-keyboard-response","173","360469","0.0-20.0-0.7","663cd0ab9a13d177b358f8f1","6790928bebf0b969fc839b02","679826c1e71d9d08ae4de998","passed","","","","","","","","","","","","","","","","","ballFalling","500","453.67114317029973","210.33","5","fallScene","false","","","","56","",""
"","","","","","html-keyboard-response","174","363473","0.0-20.0-1.7","663cd0ab9a13d177b358f8f1","6790928bebf0b969fc839b02","679826c1e71d9d08ae4de998","passed","","636","","","","","","","","","","","","","","j","yesOrNo","","","","5","","","lp","3000","","56","499","151"
"","","","","","html-keyboard-response","175","365032","0.0-20.0-0.8","663cd0ab9a13d177b358f8f1","6790928bebf0b969fc839b02","679826c1e71d9d08ae4de998","passed","","","","","","","","","","","","","","","","","ballFalling","604.4000000000001","650.0211431702996","404.58000000000004","11","fallScene","true","","","","57","",""
"","","","","","html-keyboard-response","176","368035","0.0-20.0-1.8","663cd0ab9a13d177b358f8f1","6790928bebf0b969fc839b02","679826c1e71d9d08ae4de998","passed","","632","","","","","","","","","","","","","","j","yesOrNo","","","","11","","","mid","3000","","57","605.4000000000001","300"
"","","","","","html-keyboard-response","177","369516","0.0-20.0-0.9","663cd0ab9a13d177b358f8f1","6790928bebf0b969fc839b02","679826c1e71d9d08ae4de998","passed","","","","","","","","","","","","","","","","","ballFalling","604.4000000000001","667.6211431702998","201.78","9","fallScene","true","","","","58","",""
"","","","","","html-keyboard-response","178","372518","0.0-20.0-1.9","663cd0ab9a13d177b358f8f1","6790928bebf0b969fc839b02","679826c1e71d9d08ae4de998","passed","","null","","","","","","","","","","","","","","null","yesOrNo","","","","9","","","gt","3000","","58","667.6211431702998","201.78"
"","","","","","html-keyboard-response","179","374516","0.0-20.0-0.10","663cd0ab9a13d177b358f8f1","6790928bebf0b969fc839b02","679826c1e71d9d08ae4de998","passed","","","","","","","","","","","","","","","","","ballFalling","604.4000000000001","596.8711431702998","394.5","10","fallScene","false","","","","59","",""
"","","","","","html-keyboard-response","180","377518","0.0-20.0-1.10","663cd0ab9a13d177b358f8f1","6790928bebf0b969fc839b02","679826c1e71d9d08ae4de998","passed","","2790","","","","","","","","","","","","","","j","yesOrNo","","","","10","","","lp","3000","","59","603.4000000000001","215.50214355555383"
"","","","","","html-keyboard-response","181","379079","0.0-20.0-0.11","663cd0ab9a13d177b358f8f1","6790928bebf0b969fc839b02","679826c1e71d9d08ae4de998","passed","","","","","","","","","","","","","","","","","ballFalling","322.3","356.42114317029973","357.87","4","fallScene","false","","","","60","",""
"","","","","","html-keyboard-response","182","382081","0.0-20.0-1.11","663cd0ab9a13d177b358f8f1","6790928bebf0b969fc839b02","679826c1e71d9d08ae4de998","passed","","524","","","","","","","","","","","","","","j","yesOrNo","","","","4","","","mid","3000","","60","390.27114317029975","300"
"","","","","","html-keyboard-response","183","383640","0.0-20.0-0.12","663cd0ab9a13d177b358f8f1","6790928bebf0b969fc839b02","679826c1e71d9d08ae4de998","passed","","","","","","","","","","","","","","","","","ballFalling","604.4000000000001","650.0211431702996","404.58000000000004","11","fallScene","false","","","","61","",""
"","","","","","html-keyboard-response","184","386643","0.0-20.0-1.12","663cd0ab9a13d177b358f8f1","6790928bebf0b969fc839b02","679826c1e71d9d08ae4de998","passed","","1014","","","","","","","","","","","","","","f","yesOrNo","","","","11","","","mid","3000","","61","605.4000000000001","300"
"","","","","","html-keyboard-response","185","388204","0.0-20.0-0.13","663cd0ab9a13d177b358f8f1","6790928bebf0b969fc839b02","679826c1e71d9d08ae4de998","passed","","","","","","","","","","","","","","","","","ballFalling","322.3","296.07114317029976","371.46","3","fallScene","true","","","","62","",""
"","","","","","html-keyboard-response","186","391207","0.0-20.0-1.13","663cd0ab9a13d177b358f8f1","6790928bebf0b969fc839b02","679826c1e71d9d08ae4de998","passed","","710","","","","","","","","","","","","","","j","yesOrNo","","","","3","","","gt","3000","","62","296.07114317029976","371.46"
"","","","","","html-keyboard-response","187","393204","0.0-20.0-0.14","663cd0ab9a13d177b358f8f1","6790928bebf0b969fc839b02","679826c1e71d9d08ae4de998","passed","","","","","","","","","","","","","","","","","ballFalling","500","510.8711431702997","369.03","8","fallScene","false","","","","63","",""
"","","","","","html-keyboard-response","188","396206","0.0-20.0-1.14","663cd0ab9a13d177b358f8f1","6790928bebf0b969fc839b02","679826c1e71d9d08ae4de998","passed","","493","","","","","","","","","","","","","","j","yesOrNo","","","","8","","","gt","3000","","63","510.8711431702997","369.03"
"","","","","","html-keyboard-response","189","398204","0.0-20.0-0.15","663cd0ab9a13d177b358f8f1","6790928bebf0b969fc839b02","679826c1e71d9d08ae4de998","passed","","","","","","","","","","","","","","","","","ballFalling","604.4000000000001","596.8711431702998","394.5","10","fallScene","true","","","","64","",""
"","","","","","html-keyboard-response","190","401207","0.0-20.0-1.15","663cd0ab9a13d177b358f8f1","6790928bebf0b969fc839b02","679826c1e71d9d08ae4de998","passed","","477","","","","","","","","","","","","","","f","yesOrNo","","","","10","","","gt","3000","","64","596.8711431702998","394.5"
"","","","","","html-keyboard-response","191","402766","0.0-20.0-0.16","663cd0ab9a13d177b358f8f1","6790928bebf0b969fc839b02","679826c1e71d9d08ae4de998","passed","","","","","","","","","","","","","","","","","ballFalling","322.3","356.42114317029973","357.87","4","fallScene","true","","","","65","",""
"","","","","","html-keyboard-response","192","405769","0.0-20.0-1.16","663cd0ab9a13d177b358f8f1","6790928bebf0b969fc839b02","679826c1e71d9d08ae4de998","passed","","510","","","","","","","","","","","","","","f","yesOrNo","","","","4","","","gt","3000","","65","356.42114317029973","357.87"
"","","","","","html-keyboard-response","193","407564","0.0-20.0-0.17","663cd0ab9a13d177b358f8f1","6790928bebf0b969fc839b02","679826c1e71d9d08ae4de998","passed","","","","","","","","","","","","","","","","","ballFalling","322.3","308.07114317029976","253.89","2","fallScene","false","","","","66","",""
"","","","","","html-keyboard-response","194","410566","0.0-20.0-1.17","663cd0ab9a13d177b358f8f1","6790928bebf0b969fc839b02","679826c1e71d9d08ae4de998","passed","","554","","","","","","","","","","","","","","j","yesOrNo","","","","2","","","mid","3000","","66","321.3","300"
"","","","","","html-keyboard-response","195","412360","0.0-20.0-0.18","663cd0ab9a13d177b358f8f1","6790928bebf0b969fc839b02","679826c1e71d9d08ae4de998","passed","","","","","","","","","","","","","","","","","ballFalling","322.3","308.07114317029976","253.89","2","fallScene","false","","","","67","",""
"","","","","","html-keyboard-response","196","415362","0.0-20.0-1.18","663cd0ab9a13d177b358f8f1","6790928bebf0b969fc839b02","679826c1e71d9d08ae4de998","passed","","124","","","","","","","","","","","","","","j","yesOrNo","","","","2","","","lp","3000","","67","321.3","151"
"","","","","","html-keyboard-response","197","416922","0.0-20.0-0.19","663cd0ab9a13d177b358f8f1","6790928bebf0b969fc839b02","679826c1e71d9d08ae4de998","passed","","","","","","","","","","","","","","","","","ballFalling","604.4000000000001","650.0211431702996","404.58000000000004","11","fallScene","true","","","","68","",""
"","","","","","html-keyboard-response","198","419925","0.0-20.0-1.19","663cd0ab9a13d177b358f8f1","6790928bebf0b969fc839b02","679826c1e71d9d08ae4de998","passed","","588","","","","","","","","","","","","","","f","yesOrNo","","","","11","","","gt","3000","","68","650.0211431702996","404.58"
"","","","","","html-keyboard-response","199","421485","0.0-20.0-0.20","663cd0ab9a13d177b358f8f1","6790928bebf0b969fc839b02","679826c1e71d9d08ae4de998","passed","","","","","","","","","","","","","","","","","ballFalling","322.3","356.42114317029973","357.87","4","fallScene","true","","","","69","",""
"","","","","","html-keyboard-response","200","424488","0.0-20.0-1.20","663cd0ab9a13d177b358f8f1","6790928bebf0b969fc839b02","679826c1e71d9d08ae4de998","passed","","40","","","","","","","","","","","","","","j","yesOrNo","","","","4","","","lp","3000","","69","323.3","297.4070551689986"
"","","","","","html-keyboard-response","201","426486","0.0-20.0-0.21","663cd0ab9a13d177b358f8f1","6790928bebf0b969fc839b02","679826c1e71d9d08ae4de998","passed","","","","","","","","","","","","","","","","","ballFalling","500","510.8711431702997","369.03","8","fallScene","true","","","","70","",""
"","","","","","html-keyboard-response","202","429488","0.0-20.0-1.21","663cd0ab9a13d177b358f8f1","6790928bebf0b969fc839b02","679826c1e71d9d08ae4de998","passed","","853","","","","","","","","","","","","","","j","yesOrNo","","","","8","","","lp","3000","","70","501","151"
"","","","","","html-keyboard-response","203","431282","0.0-20.0-0.22","663cd0ab9a13d177b358f8f1","6790928bebf0b969fc839b02","679826c1e71d9d08ae4de998","passed","","","","","","","","","","","","","","","","","ballFalling","322.3","308.07114317029976","253.89","2","fallScene","true","","","","71","",""
"","","","","","html-keyboard-response","204","434284","0.0-20.0-1.22","663cd0ab9a13d177b358f8f1","6790928bebf0b969fc839b02","679826c1e71d9d08ae4de998","passed","","717","","","","","","","","","","","","","","j","yesOrNo","","","","2","","","mid","3000","","71","321.3","300"
"","","","","","html-keyboard-response","205","435859","0.0-20.0-0.23","663cd0ab9a13d177b358f8f1","6790928bebf0b969fc839b02","679826c1e71d9d08ae4de998","passed","","","","","","","","","","","","","","","","","ballFalling","500","553.4711431702997","282.51","7","fallScene","true","","","","72","",""
"","","","","","html-keyboard-response","206","438862","0.0-20.0-1.23","663cd0ab9a13d177b358f8f1","6790928bebf0b969fc839b02","679826c1e71d9d08ae4de998","passed","","425","","","","","","","","","","","","","","j","yesOrNo","","","","7","","","lp","3000","","72","501","227.2843295913261"
"","","","","","html-keyboard-response","207","440175","0.0-21.0","663cd0ab9a13d177b358f8f1","6790928bebf0b969fc839b02","679826c1e71d9d08ae4de998","passed","","1312","","","","","","","","","","","","","<p><span style=""font-size:40px;"">BLOCK 4</span></p><p><span style=""font-size:25px;"">You have <b style=""color: #FF644F;""><strong>1 second(s)</strong></b> to respond to the following trials.</span><br></p><p></p> <!-- Blank line -->
                <p id=""blinking-text"" style=""font-weight; animation: blink 2s infinite;"">Press Space to continue</p>
                <style>
                    @keyframes blink {
                        50% {
                            opacity: 0;
                        }
                    }
                </style></p>"," ","","","","","","","","","","","","",""
"","","","","","html-keyboard-response","208","441970","0.0-22.0-0.0","663cd0ab9a13d177b358f8f1","6790928bebf0b969fc839b02","679826c1e71d9d08ae4de998","passed","","","","","","","","","","","","","","","","","ballFalling","322.3","308.07114317029976","253.89","2","fallScene","false","","","","73","",""
"","","","","","html-keyboard-response","209","442972","0.0-22.0-1.0","663cd0ab9a13d177b358f8f1","6790928bebf0b969fc839b02","679826c1e71d9d08ae4de998","passed","","437","","","","","","","","","","","","","","j","yesOrNo","","","","2","","","gt","1000","","73","308.07114317029976","253.89"
"","","","","","html-keyboard-response","210","444533","0.0-22.0-0.1","663cd0ab9a13d177b358f8f1","6790928bebf0b969fc839b02","679826c1e71d9d08ae4de998","passed","","","","","","","","","","","","","","","","","ballFalling","322.3","356.42114317029973","357.87","4","fallScene","false","","","","74","",""
"","","","","","html-keyboard-response","211","445536","0.0-22.0-1.1","663cd0ab9a13d177b358f8f1","6790928bebf0b969fc839b02","679826c1e71d9d08ae4de998","passed","","null","","","","","","","","","","","","","","null","yesOrNo","","","","4","","","lp","1000","","74","323.3","297.4070551689986"
"","","","","","html-keyboard-response","212","447094","0.0-22.0-0.2","663cd0ab9a13d177b358f8f1","6790928bebf0b969fc839b02","679826c1e71d9d08ae4de998","passed","","","","","","","","","","","","","","","","","ballFalling","500","453.67114317029973","210.33","5","fallScene","false","","","","75","",""
"","","","","","html-keyboard-response","213","448098","0.0-22.0-1.2","663cd0ab9a13d177b358f8f1","6790928bebf0b969fc839b02","679826c1e71d9d08ae4de998","passed","","562","","","","","","","","","","","","","","j","yesOrNo","","","","5","","","gt","1000","","75","453.6711431702998","210.33"
"","","","","","html-keyboard-response","214","449752","0.0-22.0-0.3","663cd0ab9a13d177b358f8f1","6790928bebf0b969fc839b02","679826c1e71d9d08ae4de998","passed","","","","","","","","","","","","","","","","","ballFalling","500","479.92114317029973","330.87","6","fallScene","true","","","","76","",""
"","","","","","html-keyboard-response","215","450761","0.0-22.0-1.3","663cd0ab9a13d177b358f8f1","6790928bebf0b969fc839b02","679826c1e71d9d08ae4de998","passed","","null","","","","","","","","","","","","","","null","yesOrNo","","","","6","","","gt","1000","","76","479.9211431702998","330.87"
"","","","","","html-keyboard-response","216","452330","0.0-22.0-0.4","663cd0ab9a13d177b358f8f1","6790928bebf0b969fc839b02","679826c1e71d9d08ae4de998","passed","","","","","","","","","","","","","","","","","ballFalling","604.4000000000001","650.0211431702996","404.58000000000004","11","fallScene","true","","","","77","",""
"","","","","","html-keyboard-response","217","453332","0.0-22.0-1.4","663cd0ab9a13d177b358f8f1","6790928bebf0b969fc839b02","679826c1e71d9d08ae4de998","passed","","342","","","","","","","","","","","","","","j","yesOrNo","","","","11","","","lp","1000","","77","605.4000000000001","372.6340973215488"
"","","","","","html-keyboard-response","218","454892","0.0-22.0-0.5","663cd0ab9a13d177b358f8f1","6790928bebf0b969fc839b02","679826c1e71d9d08ae4de998","passed","","","","","","","","","","","","","","","","","ballFalling","604.4000000000001","650.0211431702996","404.58000000000004","11","fallScene","false","","","","78","",""
"","","","","","html-keyboard-response","219","455895","0.0-22.0-1.5","663cd0ab9a13d177b358f8f1","6790928bebf0b969fc839b02","679826c1e71d9d08ae4de998","passed","","602","","","","","","","","","","","","","","j","yesOrNo","","","","11","","","mid","1000","","78","605.4000000000001","300"
"","","","","","html-keyboard-response","220","457689","0.0-22.0-0.6","663cd0ab9a13d177b358f8f1","6790928bebf0b969fc839b02","679826c1e71d9d08ae4de998","passed","","","","","","","","","","","","","","","","","ballFalling","322.3","308.07114317029976","253.89","2","fallScene","true","","","","79","",""
"","","","","","html-keyboard-response","221","458692","0.0-22.0-1.6","663cd0ab9a13d177b358f8f1","6790928bebf0b969fc839b02","679826c1e71d9d08ae4de998","passed","","527","","","","","","","","","","","","","","j","yesOrNo","","","","2","","","lp","1000","","79","321.3","151"
"","","","","","html-keyboard-response","222","460484","0.0-22.0-0.7","663cd0ab9a13d177b358f8f1","6790928bebf0b969fc839b02","679826c1e71d9d08ae4de998","passed","","","","","","","","","","","","","","","","","ballFalling","322.3","308.07114317029976","253.89","2","fallScene","false","","","","80","",""
"","","","","","html-keyboard-response","223","461486","0.0-22.0-1.7","663cd0ab9a13d177b358f8f1","6790928bebf0b969fc839b02","679826c1e71d9d08ae4de998","passed","","376","","","","","","","","","","","","","","j","yesOrNo","","","","2","","","gt","1000","","80","308.07114317029976","253.89"
"","","","","","html-keyboard-response","224","463485","0.0-22.0-0.8","663cd0ab9a13d177b358f8f1","6790928bebf0b969fc839b02","679826c1e71d9d08ae4de998","passed","","","","","","","","","","","","","","","","","ballFalling","500","510.8711431702997","369.03","8","fallScene","true","","","","81","",""
"","","","","","html-keyboard-response","225","464487","0.0-22.0-1.8","663cd0ab9a13d177b358f8f1","6790928bebf0b969fc839b02","679826c1e71d9d08ae4de998","passed","","516","","","","","","","","","","","","","","j","yesOrNo","","","","8","","","lp","1000","","81","501","151"
"","","","","","html-keyboard-response","226","466484","0.0-22.0-0.9","663cd0ab9a13d177b358f8f1","6790928bebf0b969fc839b02","679826c1e71d9d08ae4de998","passed","","","","","","","","","","","","","","","","","ballFalling","500","510.8711431702997","369.03","8","fallScene","false","","","","82","",""
"","","","","","html-keyboard-response","227","467486","0.0-22.0-1.9","663cd0ab9a13d177b358f8f1","6790928bebf0b969fc839b02","679826c1e71d9d08ae4de998","passed","","317","","","","","","","","","","","","","","j","yesOrNo","","","","8","","","mid","1000","","82","501","300"
"","","","","","html-keyboard-response","228","469063","0.0-22.0-0.10","663cd0ab9a13d177b358f8f1","6790928bebf0b969fc839b02","679826c1e71d9d08ae4de998","passed","","","","","","","","","","","","","","","","","ballFalling","500","553.4711431702997","282.51","7","fallScene","false","","","","83","",""
"","","","","","html-keyboard-response","229","470065","0.0-22.0-1.10","663cd0ab9a13d177b358f8f1","6790928bebf0b969fc839b02","679826c1e71d9d08ae4de998","passed","","260","","","","","","","","","","","","","","j","yesOrNo","","","","7","","","gt","1000","","83","553.4711431702997","282.51"
"","","","","","html-keyboard-response","230","471626","0.0-22.0-0.11","663cd0ab9a13d177b358f8f1","6790928bebf0b969fc839b02","679826c1e71d9d08ae4de998","passed","","","","","","","","","","","","","","","","","ballFalling","604.4000000000001","575.4211431702997","266.76","12","fallScene","false","","","","84","",""
"","","","","","html-keyboard-response","231","472628","0.0-22.0-1.11","663cd0ab9a13d177b358f8f1","6790928bebf0b969fc839b02","679826c1e71d9d08ae4de998","passed","","406","","","","","","","","","","","","","","f","yesOrNo","","","","12","","","mid","1000","","84","536.4288568297004","300"
"","","","","","html-keyboard-response","232","474422","0.0-22.0-0.12","663cd0ab9a13d177b358f8f1","6790928bebf0b969fc839b02","679826c1e71d9d08ae4de998","passed","","","","","","","","","","","","","","","","","ballFalling","322.3","308.07114317029976","253.89","2","fallScene","false","","","","85","",""
"","","","","","html-keyboard-response","233","475424","0.0-22.0-1.12","663cd0ab9a13d177b358f8f1","6790928bebf0b969fc839b02","679826c1e71d9d08ae4de998","passed","","236","","","","","","","","","","","","","","j","yesOrNo","","","","2","","","mid","1000","","85","321.3","300"
"","","","","","html-keyboard-response","234","477078","0.0-22.0-0.13","663cd0ab9a13d177b358f8f1","6790928bebf0b969fc839b02","679826c1e71d9d08ae4de998","passed","","","","","","","","","","","","","","","","","ballFalling","500","479.92114317029973","330.87","6","fallScene","true","","","","86","",""
"","","","","","html-keyboard-response","235","478081","0.0-22.0-1.13","663cd0ab9a13d177b358f8f1","6790928bebf0b969fc839b02","679826c1e71d9d08ae4de998","passed","","275","","","","","","","","","","","","","","j","yesOrNo","","","","6","","","lp","1000","","86","499","189.92909825697632"
"","","","","","html-keyboard-response","236","479641","0.0-22.0-0.14","663cd0ab9a13d177b358f8f1","6790928bebf0b969fc839b02","679826c1e71d9d08ae4de998","passed","","","","","","","","","","","","","","","","","ballFalling","604.4000000000001","650.0211431702996","404.58000000000004","11","fallScene","false","","","","87","",""
"","","","","","html-keyboard-response","237","480644","0.0-22.0-1.14","663cd0ab9a13d177b358f8f1","6790928bebf0b969fc839b02","679826c1e71d9d08ae4de998","passed","","360","","","","","","","","","","","","","","j","yesOrNo","","","","11","","","lp","1000","","87","605.4000000000001","372.6340973215488"
"","","","","","html-keyboard-response","238","482204","0.0-22.0-0.15","663cd0ab9a13d177b358f8f1","6790928bebf0b969fc839b02","679826c1e71d9d08ae4de998","passed","","","","","","","","","","","","","","","","","ballFalling","322.3","356.42114317029973","357.87","4","fallScene","false","","","","88","",""
"","","","","","html-keyboard-response","239","483205","0.0-22.0-1.15","663cd0ab9a13d177b358f8f1","6790928bebf0b969fc839b02","679826c1e71d9d08ae4de998","passed","","323","","","","","","","","","","","","","","j","yesOrNo","","","","4","","","mid","1000","","88","390.27114317029975","300"
"","","","","","html-keyboard-response","240","484767","0.0-22.0-0.16","663cd0ab9a13d177b358f8f1","6790928bebf0b969fc839b02","679826c1e71d9d08ae4de998","passed","","","","","","","","","","","","","","","","","ballFalling","322.3","379.3711431702997","245.25","1","fallScene","false","","","","89","",""
"","","","","","html-keyboard-response","241","485769","0.0-22.0-1.16","663cd0ab9a13d177b358f8f1","6790928bebf0b969fc839b02","679826c1e71d9d08ae4de998","passed","","236","","","","","","","","","","","","","","f","yesOrNo","","","","1","","","lp","1000","","89","323.3","217.74551669457017"
"","","","","","html-keyboard-response","242","487344","0.0-22.0-0.17","663cd0ab9a13d177b358f8f1","6790928bebf0b969fc839b02","679826c1e71d9d08ae4de998","passed","","","","","","","","","","","","","","","","","ballFalling","500","553.4711431702997","282.51","7","fallScene","true","","","","90","",""
"","","","","","html-keyboard-response","243","488347","0.0-22.0-1.17","663cd0ab9a13d177b358f8f1","6790928bebf0b969fc839b02","679826c1e71d9d08ae4de998","passed","","259","","","","","","","","","","","","","","j","yesOrNo","","","","7","","","lp","1000","","90","501","227.2843295913261"
"","","","","","html-keyboard-response","244","490001","0.0-22.0-0.18","663cd0ab9a13d177b358f8f1","6790928bebf0b969fc839b02","679826c1e71d9d08ae4de998","passed","","","","","","","","","","","","","","","","","ballFalling","500","479.92114317029973","330.87","6","fallScene","false","","","","91","",""
"","","","","","html-keyboard-response","245","491004","0.0-22.0-1.18","663cd0ab9a13d177b358f8f1","6790928bebf0b969fc839b02","679826c1e71d9d08ae4de998","passed","","508","","","","","","","","","","","","","","j","yesOrNo","","","","6","","","lp","1000","","91","499","189.92909825697632"
"","","","","","html-keyboard-response","246","492485","0.0-22.0-0.19","663cd0ab9a13d177b358f8f1","6790928bebf0b969fc839b02","679826c1e71d9d08ae4de998","passed","","","","","","","","","","","","","","","","","ballFalling","604.4000000000001","667.6211431702998","201.78","9","fallScene","false","","","","92","",""
"","","","","","html-keyboard-response","247","493488","0.0-22.0-1.19","663cd0ab9a13d177b358f8f1","6790928bebf0b969fc839b02","679826c1e71d9d08ae4de998","passed","","421","","","","","","","","","","","","","","j","yesOrNo","","","","9","","","mid","1000","","92","605.4000000000001","300"
"","","","","","html-keyboard-response","248","494970","0.0-22.0-0.20","663cd0ab9a13d177b358f8f1","6790928bebf0b969fc839b02","679826c1e71d9d08ae4de998","passed","","","","","","","","","","","","","","","","","ballFalling","604.4000000000001","667.6211431702998","201.78","9","fallScene","true","","","","93","",""
"","","","","","html-keyboard-response","249","495973","0.0-22.0-1.20","663cd0ab9a13d177b358f8f1","6790928bebf0b969fc839b02","679826c1e71d9d08ae4de998","passed","","429","","","","","","","","","","","","","","j","yesOrNo","","","","9","","","gt","1000","","93","667.6211431702998","201.78"
"","","","","","html-keyboard-response","250","497532","0.0-22.0-0.21","663cd0ab9a13d177b358f8f1","6790928bebf0b969fc839b02","679826c1e71d9d08ae4de998","passed","","","","","","","","","","","","","","","","","ballFalling","322.3","296.07114317029976","371.46","3","fallScene","false","","","","94","",""
"","","","","","html-keyboard-response","251","498534","0.0-22.0-1.21","663cd0ab9a13d177b358f8f1","6790928bebf0b969fc839b02","679826c1e71d9d08ae4de998","passed","","227","","","","","","","","","","","","","","f","yesOrNo","","","","3","","","gt","1000","","94","296.07114317029976","371.46"
"","","","","","html-keyboard-response","252","500094","0.0-22.0-0.22","663cd0ab9a13d177b358f8f1","6790928bebf0b969fc839b02","679826c1e71d9d08ae4de998","passed","","","","","","","","","","","","","","","","","ballFalling","322.3","379.3711431702997","245.25","1","fallScene","false","","","","95","",""
"","","","","","html-keyboard-response","253","501096","0.0-22.0-1.22","663cd0ab9a13d177b358f8f1","6790928bebf0b969fc839b02","679826c1e71d9d08ae4de998","passed","","277","","","","","","","","","","","","","","f","yesOrNo","","","","1","","","lp","1000","","95","323.3","217.74551669457017"
"","","","","","html-keyboard-response","254","502659","0.0-22.0-0.23","663cd0ab9a13d177b358f8f1","6790928bebf0b969fc839b02","679826c1e71d9d08ae4de998","passed","","","","","","","","","","","","","","","","","ballFalling","322.3","356.42114317029973","357.87","4","fallScene","true","","","","96","",""
"","","","","","html-keyboard-response","255","503662","0.0-22.0-1.23","663cd0ab9a13d177b358f8f1","6790928bebf0b969fc839b02","679826c1e71d9d08ae4de998","passed","","278","","","","","","","","","","","","","","f","yesOrNo","","","","4","","","lp","1000","","96","323.3","297.4070551689986"
"","","","","","html-keyboard-response","256","506112","0.0-23.0","663cd0ab9a13d177b358f8f1","6790928bebf0b969fc839b02","679826c1e71d9d08ae4de998","passed","","2450","","","","","","","","","","","","","<p><span style=""font-size:40px;"">BLOCK 5</span></p><p><span style=""font-size:25px;"">You have <b style=""color: #FF644F;""><strong>1 second(s)</strong></b> to respond to the following trials.</span><br></p><p></p> <!-- Blank line -->
                <p id=""blinking-text"" style=""font-weight; animation: blink 2s infinite;"">Press Space to continue</p>
                <style>
                    @keyframes blink {
                        50% {
                            opacity: 0;
                        }
                    }
                </style></p>"," ","","","","","","","","","","","","",""
"","","","","","html-keyboard-response","257","507673","0.0-24.0-0.0","663cd0ab9a13d177b358f8f1","6790928bebf0b969fc839b02","679826c1e71d9d08ae4de998","passed","","","","","","","","","","","","","","","","","ballFalling","604.4000000000001","575.4211431702997","266.76","12","fallScene","true","","","","97","",""
"","","","","","html-keyboard-response","258","508675","0.0-24.0-1.0","663cd0ab9a13d177b358f8f1","6790928bebf0b969fc839b02","679826c1e71d9d08ae4de998","passed","","400","","","","","","","","","","","","","","j","yesOrNo","","","","12","","","lp","1000","","97","603.4000000000001","151"
"","","","","","html-keyboard-response","259","510251","0.0-24.0-0.1","663cd0ab9a13d177b358f8f1","6790928bebf0b969fc839b02","679826c1e71d9d08ae4de998","passed","","","","","","","","","","","","","","","","","ballFalling","500","553.4711431702997","282.51","7","fallScene","true","","","","98","",""
"","","","","","html-keyboard-response","260","511254","0.0-24.0-1.1","663cd0ab9a13d177b358f8f1","6790928bebf0b969fc839b02","679826c1e71d9d08ae4de998","passed","","6","","","","","","","","","","","","","","f","yesOrNo","","","","7","","","lp","1000","","98","501","227.2843295913261"
"","","","","","html-keyboard-response","261","512814","0.0-24.0-0.2","663cd0ab9a13d177b358f8f1","6790928bebf0b969fc839b02","679826c1e71d9d08ae4de998","passed","","","","","","","","","","","","","","","","","ballFalling","322.3","379.3711431702997","245.25","1","fallScene","false","","","","99","",""
"","","","","","html-keyboard-response","262","513816","0.0-24.0-1.2","663cd0ab9a13d177b358f8f1","6790928bebf0b969fc839b02","679826c1e71d9d08ae4de998","passed","","null","","","","","","","","","","","","","","null","yesOrNo","","","","1","","","mid","1000","","99","390.27114317029975","300"
"","","","","","html-keyboard-response","263","515376","0.0-24.0-0.3","663cd0ab9a13d177b358f8f1","6790928bebf0b969fc839b02","679826c1e71d9d08ae4de998","passed","","","","","","","","","","","","","","","","","ballFalling","604.4000000000001","575.4211431702997","266.76","12","fallScene","true","","","","100","",""
"","","","","","html-keyboard-response","264","516378","0.0-24.0-1.3","663cd0ab9a13d177b358f8f1","6790928bebf0b969fc839b02","679826c1e71d9d08ae4de998","passed","","87","","","","","","","","","","","","","","f","yesOrNo","","","","12","","","gt","1000","","100","575.4211431702997","266.76"
"","","","","","html-keyboard-response","265","518375","0.0-24.0-0.4","663cd0ab9a13d177b358f8f1","6790928bebf0b969fc839b02","679826c1e71d9d08ae4de998","passed","","","","","","","","","","","","","","","","","ballFalling","500","510.8711431702997","369.03","8","fallScene","true","","","","101","",""
"","","","","","html-keyboard-response","266","519378","0.0-24.0-1.4","663cd0ab9a13d177b358f8f1","6790928bebf0b969fc839b02","679826c1e71d9d08ae4de998","passed","","231","","","","","","","","","","","","","","f","yesOrNo","","","","8","","","lp","1000","","101","501","151"
"","","","","","html-keyboard-response","267","520938","0.0-24.0-0.5","663cd0ab9a13d177b358f8f1","6790928bebf0b969fc839b02","679826c1e71d9d08ae4de998","passed","","","","","","","","","","","","","","","","","ballFalling","322.3","356.42114317029973","357.87","4","fallScene","false","","","","102","",""
"","","","","","html-keyboard-response","268","521941","0.0-24.0-1.5","663cd0ab9a13d177b358f8f1","6790928bebf0b969fc839b02","679826c1e71d9d08ae4de998","passed","","88","","","","","","","","","","","","","","j","yesOrNo","","","","4","","","mid","1000","","102","390.27114317029975","300"
"","","","","","html-keyboard-response","269","523423","0.0-24.0-0.6","663cd0ab9a13d177b358f8f1","6790928bebf0b969fc839b02","679826c1e71d9d08ae4de998","passed","","","","","","","","","","","","","","","","","ballFalling","604.4000000000001","667.6211431702998","201.78","9","fallScene","false","","","","103","",""
"","","","","","html-keyboard-response","270","524426","0.0-24.0-1.6","663cd0ab9a13d177b358f8f1","6790928bebf0b969fc839b02","679826c1e71d9d08ae4de998","passed","","320","","","","","","","","","","","","","","j","yesOrNo","","","","9","","","lp","1000","","103","605.4000000000001","151"
"","","","","","html-keyboard-response","271","526423","0.0-24.0-0.7","663cd0ab9a13d177b358f8f1","6790928bebf0b969fc839b02","679826c1e71d9d08ae4de998","passed","","","","","","","","","","","","","","","","","ballFalling","604.4000000000001","596.8711431702998","394.5","10","fallScene","true","","","","104","",""
"","","","","","html-keyboard-response","272","527425","0.0-24.0-1.7","663cd0ab9a13d177b358f8f1","6790928bebf0b969fc839b02","679826c1e71d9d08ae4de998","passed","","322","","","","","","","","","","","","","","j","yesOrNo","","","","10","","","mid","1000","","104","536.4288568297004","300"
"","","","","","html-keyboard-response","273","529079","0.0-24.0-0.8","663cd0ab9a13d177b358f8f1","6790928bebf0b969fc839b02","679826c1e71d9d08ae4de998","passed","","","","","","","","","","","","","","","","","ballFalling","500","479.92114317029973","330.87","6","fallScene","false","","","","105","",""
"","","","","","html-keyboard-response","274","530081","0.0-24.0-1.8","663cd0ab9a13d177b358f8f1","6790928bebf0b969fc839b02","679826c1e71d9d08ae4de998","passed","","405","","","","","","","","","","","","","","f","yesOrNo","","","","6","","","mid","1000","","105","499","300"
"","","","","","html-keyboard-response","275","531641","0.0-24.0-0.9","663cd0ab9a13d177b358f8f1","6790928bebf0b969fc839b02","679826c1e71d9d08ae4de998","passed","","","","","","","","","","","","","","","","","ballFalling","322.3","356.42114317029973","357.87","4","fallScene","true","","","","106","",""
"","","","","","html-keyboard-response","276","532644","0.0-24.0-1.9","663cd0ab9a13d177b358f8f1","6790928bebf0b969fc839b02","679826c1e71d9d08ae4de998","passed","","400","","","","","","","","","","","","","","f","yesOrNo","","","","4","","","gt","1000","","106","356.42114317029973","357.87"
"","","","","","html-keyboard-response","277","534204","0.0-24.0-0.10","663cd0ab9a13d177b358f8f1","6790928bebf0b969fc839b02","679826c1e71d9d08ae4de998","passed","","","","","","","","","","","","","","","","","ballFalling","500","453.67114317029973","210.33","5","fallScene","true","","","","107","",""
"","","","","","html-keyboard-response","278","535206","0.0-24.0-1.10","663cd0ab9a13d177b358f8f1","6790928bebf0b969fc839b02","679826c1e71d9d08ae4de998","passed","","118","","","","","","","","","","","","","","j","yesOrNo","","","","5","","","mid","1000","","107","499","300"
"","","","","","html-keyboard-response","279","536689","0.0-24.0-0.11","663cd0ab9a13d177b358f8f1","6790928bebf0b969fc839b02","679826c1e71d9d08ae4de998","passed","","","","","","","","","","","","","","","","","ballFalling","604.4000000000001","667.6211431702998","201.78","9","fallScene","false","","","","108","",""
"","","","","","html-keyboard-response","280","537692","0.0-24.0-1.11","663cd0ab9a13d177b358f8f1","6790928bebf0b969fc839b02","679826c1e71d9d08ae4de998","passed","","468","","","","","","","","","","","","","","j","yesOrNo","","","","9","","","mid","1000","","108","605.4000000000001","300"
"","","","","","html-keyboard-response","281","539688","0.0-24.0-0.12","663cd0ab9a13d177b358f8f1","6790928bebf0b969fc839b02","679826c1e71d9d08ae4de998","passed","","","","","","","","","","","","","","","","","ballFalling","604.4000000000001","596.8711431702998","394.5","10","fallScene","true","","","","109","",""
"","","","","","html-keyboard-response","282","540690","0.0-24.0-1.12","663cd0ab9a13d177b358f8f1","6790928bebf0b969fc839b02","679826c1e71d9d08ae4de998","passed","","null","","","","","","","","","","","","","","null","yesOrNo","","","","10","","","lp","1000","","109","603.4000000000001","215.50214355555383"
"","","","","","html-keyboard-response","283","542689","0.0-24.0-0.13","663cd0ab9a13d177b358f8f1","6790928bebf0b969fc839b02","679826c1e71d9d08ae4de998","passed","","","","","","","","","","","","","","","","","ballFalling","604.4000000000001","596.8711431702998","394.5","10","fallScene","true","","","","110","",""
"","","","","","html-keyboard-response","284","543691","0.0-24.0-1.13","663cd0ab9a13d177b358f8f1","6790928bebf0b969fc839b02","679826c1e71d9d08ae4de998","passed","","462","","","","","","","","","","","","","","j","yesOrNo","","","","10","","","gt","1000","","110","596.8711431702998","394.5"
"","","","","","html-keyboard-response","285","545689","0.0-24.0-0.14","663cd0ab9a13d177b358f8f1","6790928bebf0b969fc839b02","679826c1e71d9d08ae4de998","passed","","","","","","","","","","","","","","","","","ballFalling","500","510.8711431702997","369.03","8","fallScene","true","","","","111","",""
"","","","","","html-keyboard-response","286","546691","0.0-24.0-1.14","663cd0ab9a13d177b358f8f1","6790928bebf0b969fc839b02","679826c1e71d9d08ae4de998","passed","","null","","","","","","","","","","","","","","null","yesOrNo","","","","8","","","gt","1000","","111","510.8711431702997","369.03"
"","","","","","html-keyboard-response","287","548251","0.0-24.0-0.15","663cd0ab9a13d177b358f8f1","6790928bebf0b969fc839b02","679826c1e71d9d08ae4de998","passed","","","","","","","","","","","","","","","","","ballFalling","604.4000000000001","650.0211431702996","404.58000000000004","11","fallScene","true","","","","112","",""
"","","","","","html-keyboard-response","288","549253","0.0-24.0-1.15","663cd0ab9a13d177b358f8f1","6790928bebf0b969fc839b02","679826c1e71d9d08ae4de998","passed","","383","","","","","","","","","","","","","","j","yesOrNo","","","","11","","","mid","1000","","112","605.4000000000001","300"
"","","","","","html-keyboard-response","289","550907","0.0-24.0-0.16","663cd0ab9a13d177b358f8f1","6790928bebf0b969fc839b02","679826c1e71d9d08ae4de998","passed","","","","","","","","","","","","","","","","","ballFalling","500","479.92114317029973","330.87","6","fallScene","true","","","","113","",""
"","","","","","html-keyboard-response","290","551911","0.0-24.0-1.16","663cd0ab9a13d177b358f8f1","6790928bebf0b969fc839b02","679826c1e71d9d08ae4de998","passed","","null","","","","","","","","","","","","","","null","yesOrNo","","","","6","","","gt","1000","","113","479.9211431702998","330.87"
"","","","","","html-keyboard-response","291","553704","0.0-24.0-0.17","663cd0ab9a13d177b358f8f1","6790928bebf0b969fc839b02","679826c1e71d9d08ae4de998","passed","","","","","","","","","","","","","","","","","ballFalling","322.3","308.07114317029976","253.89","2","fallScene","true","","","","114","",""
"","","","","","html-keyboard-response","292","554707","0.0-24.0-1.17","663cd0ab9a13d177b358f8f1","6790928bebf0b969fc839b02","679826c1e71d9d08ae4de998","passed","","null","","","","","","","","","","","","","","null","yesOrNo","","","","2","","","lp","1000","","114","321.3","151"
"","","","","","html-keyboard-response","293","556266","0.0-24.0-0.18","663cd0ab9a13d177b358f8f1","6790928bebf0b969fc839b02","679826c1e71d9d08ae4de998","passed","","","","","","","","","","","","","","","","","ballFalling","500","453.67114317029973","210.33","5","fallScene","true","","","","115","",""
"","","","","","html-keyboard-response","294","557268","0.0-24.0-1.18","663cd0ab9a13d177b358f8f1","6790928bebf0b969fc839b02","679826c1e71d9d08ae4de998","passed","","null","","","","","","","","","","","","","","null","yesOrNo","","","","5","","","lp","1000","","115","499","151"
"","","","","","html-keyboard-response","295","558830","0.0-24.0-0.19","663cd0ab9a13d177b358f8f1","6790928bebf0b969fc839b02","679826c1e71d9d08ae4de998","passed","","","","","","","","","","","","","","","","","ballFalling","500","453.67114317029973","210.33","5","fallScene","true","","","","116","",""
"","","","","","html-keyboard-response","296","559835","0.0-24.0-1.19","663cd0ab9a13d177b358f8f1","6790928bebf0b969fc839b02","679826c1e71d9d08ae4de998","passed","","null","","","","","","","","","","","","","","null","yesOrNo","","","","5","","","lp","1000","","116","499","151"
"","","","","","html-keyboard-response","297","561408","0.0-24.0-0.20","663cd0ab9a13d177b358f8f1","6790928bebf0b969fc839b02","679826c1e71d9d08ae4de998","passed","","","","","","","","","","","","","","","","","ballFalling","500","553.4711431702997","282.51","7","fallScene","false","","","","117","",""
"","","","","","html-keyboard-response","298","562410","0.0-24.0-1.20","663cd0ab9a13d177b358f8f1","6790928bebf0b969fc839b02","679826c1e71d9d08ae4de998","passed","","320","","","","","","","","","","","","","","j","yesOrNo","","","","7","","","mid","1000","","117","501","300"
"","","","","","html-keyboard-response","299","564063","0.0-24.0-0.21","663cd0ab9a13d177b358f8f1","6790928bebf0b969fc839b02","679826c1e71d9d08ae4de998","passed","","","","","","","","","","","","","","","","","ballFalling","500","479.92114317029973","330.87","6","fallScene","false","","","","118","",""
"","","","","","html-keyboard-response","300","565065","0.0-24.0-1.21","663cd0ab9a13d177b358f8f1","6790928bebf0b969fc839b02","679826c1e71d9d08ae4de998","passed","","473","","","","","","","","","","","","","","j","yesOrNo","","","","6","","","mid","1000","","118","499","300"
"","","","","","html-keyboard-response","301","566625","0.0-24.0-0.22","663cd0ab9a13d177b358f8f1","6790928bebf0b969fc839b02","679826c1e71d9d08ae4de998","passed","","","","","","","","","","","","","","","","","ballFalling","322.3","296.07114317029976","371.46","3","fallScene","true","","","","119","",""
"","","","","","html-keyboard-response","302","567629","0.0-24.0-1.22","663cd0ab9a13d177b358f8f1","6790928bebf0b969fc839b02","679826c1e71d9d08ae4de998","passed","","483","","","","","","","","","","","","","","f","yesOrNo","","","","3","","","lp","1000","","119","321.3","287.3327096511259"
"","","","","","html-keyboard-response","303","569627","0.0-24.0-0.23","663cd0ab9a13d177b358f8f1","6790928bebf0b969fc839b02","679826c1e71d9d08ae4de998","passed","","","","","","","","","","","","","","","","","ballFalling","604.4000000000001","596.8711431702998","394.5","10","fallScene","false","","","","120","",""
"","","","","","html-keyboard-response","304","570630","0.0-24.0-1.23","663cd0ab9a13d177b358f8f1","6790928bebf0b969fc839b02","679826c1e71d9d08ae4de998","passed","","null","","","","","","","","","","","","","","null","yesOrNo","","","","10","","","gt","1000","","120","596.8711431702998","394.5"
"","","","","","html-keyboard-response","305","573281","0.0-25.0","663cd0ab9a13d177b358f8f1","6790928bebf0b969fc839b02","679826c1e71d9d08ae4de998","passed","","2651","","","","","","","","","","","","","<p><span style=""font-size:40px;"">BLOCK 6</span></p><p><span style=""font-size:25px;"">You have <b style=""color: #FF644F;""><strong>3 second(s)</strong></b> to respond to the following trials.</span><br></p><p></p> <!-- Blank line -->
                <p id=""blinking-text"" style=""font-weight; animation: blink 2s infinite;"">Press Space to continue</p>
                <style>
                    @keyframes blink {
                        50% {
                            opacity: 0;
                        }
                    }
                </style></p>"," ","","","","","","","","","","","","",""
"","","","","","html-keyboard-response","306","575282","0.0-26.0-0.0","663cd0ab9a13d177b358f8f1","6790928bebf0b969fc839b02","679826c1e71d9d08ae4de998","passed","","","","","","","","","","","","","","","","","ballFalling","604.4000000000001","596.8711431702998","394.5","10","fallScene","true","","","","121","",""
"","","","","","html-keyboard-response","307","578284","0.0-26.0-1.0","663cd0ab9a13d177b358f8f1","6790928bebf0b969fc839b02","679826c1e71d9d08ae4de998","passed","","4","","","","","","","","","","","","","","j","yesOrNo","","","","10","","","lp","3000","","121","603.4000000000001","215.50214355555383"
