"success","timeout","failed_images","failed_audio","failed_video","trial_type","trial_index","time_elapsed","internal_node_id","subject_id","study_id","session_id","practiceTestResult","view_history","rt","width","height","webaudio","browser","browser_version","mobile","os","fullscreen","vsync_rate","webcam","microphone","url","stimulus","response","task","ball_X","obstacle_groundTruth_x","obstacle_groundTruth_y","stimulus_idx","trial_name","flipped","choice","timeLimit","question_order","comprehensionCheck","currentTrial","obstacle_choice_x","obstacle_choice_y"
"true","false","[]","[]","[]","preload","0","77","0.0-0.0","6643c5d1c53f7ffbef7b96e0","6790928bebf0b969fc839b02","67982629c12147cf2473e87e","passed","","","","","","","","","","","","","","","","","","","","","","","","","","","","","",""
"","","","","","instructions","1","1823","0.0-1.0","6643c5d1c53f7ffbef7b96e0","6790928bebf0b969fc839b02","67982629c12147cf2473e87e","passed","[{""page_index"":0,""viewing_time"":1745}]","1745","","","","","","","","","","","","","","","","","","","","","","","","","","","",""
"","","","","","browser-check","2","2818","0.0-2.0","6643c5d1c53f7ffbef7b96e0","6790928bebf0b969fc839b02","67982629c12147cf2473e87e","passed","","","1528","800","true","edge-chromium","132.0.0","false","Windows 10","true","60.65","true","true","","","","","","","","","","","","","","","","",""
"","","","","","external-html","3","5893","0.0-3.0","6643c5d1c53f7ffbef7b96e0","6790928bebf0b969fc839b02","67982629c12147cf2473e87e","passed","","3049","","","","","","","","","","","","consent.html","","","","","","","","","","","","","","","",""
"true","","","","","fullscreen","4","9616","0.0-4.0","6643c5d1c53f7ffbef7b96e0","6790928bebf0b969fc839b02","67982629c12147cf2473e87e","passed","","3421","","","","","","","","","","","","","","","","","","","","","","","","","","","",""
"","","","","","browser-check","5","10621","0.0-5.0","6643c5d1c53f7ffbef7b96e0","6790928bebf0b969fc839b02","67982629c12147cf2473e87e","passed","","","1536","960","true","edge-chromium","132.0.0","false","Windows 10","true","59.83","true","true","","","","","","","","","","","","","","","","",""
"","","","","","html-keyboard-response","6","17920","0.0-6.0","6643c5d1c53f7ffbef7b96e0","6790928bebf0b969fc839b02","67982629c12147cf2473e87e","passed","","7299","","","","","","","","","","","","","<p><b>This experiment requires keyboard input.</b></p> 
        <p><b>To ensure your response will be recorded successfully, please press 'Space' to continue.</b></p>
        <p>If you can't proceed, you won't be able to complete this study.</p>
        <p></p> <!-- Blank line -->
        <p id=""blinking-text"" style=""font-weight; animation: blink 2s infinite;"">Press Space to continue</p>
        <style>
            @keyframes blink {
                50% {
                    opacity: 0;
                }
            }
        </style>"," ","","","","","","","","","","","","","",""
"","","","","","html-keyboard-response","7","20170","0.0-7.0","6643c5d1c53f7ffbef7b96e0","6790928bebf0b969fc839b02","67982629c12147cf2473e87e","passed","","2249","","","","","","","","","","","","","<p><b>This experiment requires keyboard input.</b></p> 
        <p><b>To ensure your response will be recorded successfully, please press the 'f' key to continue.</b></p>
        <p>If you can't proceed, you won't be able to complete this study.</p>
        <p></p> <!-- Blank line -->
        <p id=""blinking-text"" style=""font-weight; animation: blink 2s infinite;"">Press f to continue</p>
        <style>
            @keyframes blink {
                50% {
                    opacity: 0;
                }
            }
        </style>","f","","","","","","","","","","","","","",""
"","","","","","html-keyboard-response","8","22213","0.0-8.0","6643c5d1c53f7ffbef7b96e0","6790928bebf0b969fc839b02","67982629c12147cf2473e87e","passed","","2042","","","","","","","","","","","","","<p><b>This experiment requires keyboard input.</b></p> 
        <p><b>To ensure your response will be recorded successfully, please press the 'j' key to continue.</b></p>
        <p>If you can't proceed, you won't be able to complete this study.</p>
        <p></p> <!-- Blank line -->
        <p id=""blinking-text"" style=""font-weight; animation: blink 2s infinite;"">Press j to continue</p>
        <style>
            @keyframes blink {
                50% {
                    opacity: 0;
                }
            }
        </style>","j","","","","","","","","","","","","","",""
"","","","","","browser-check","9","23218","0.0-9.0","6643c5d1c53f7ffbef7b96e0","6790928bebf0b969fc839b02","67982629c12147cf2473e87e","passed","","","1528","800","true","edge-chromium","132.0.0","false","Windows 10","true","59.96","true","true","","","","","","","","","","","","","","","","",""
"","","","","","survey-text","10","76189","0.0-10.0","6643c5d1c53f7ffbef7b96e0","6790928bebf0b969fc839b02","67982629c12147cf2473e87e","passed","","52966","","","","","","","","","","","","","","{""prolificID"":""6643c5d1c53f7ffbef7b96e0""}","","","","","","","","","","","","","",""
"","","","","","instructions","11","126275","0.0-11.0-0.0-0.0","6643c5d1c53f7ffbef7b96e0","6790928bebf0b969fc839b02","67982629c12147cf2473e87e","passed","[{""page_index"":0,""viewing_time"":17854},{""page_index"":1,""viewing_time"":13555},{""page_index"":2,""viewing_time"":8841},{""page_index"":3,""viewing_time"":9834}]","50085","","","","","","","","","","","","","","","","","","","","","","","","","","","",""
"","","","","","html-keyboard-response","12","133639","0.0-11.0-0.0-1.0","6643c5d1c53f7ffbef7b96e0","6790928bebf0b969fc839b02","67982629c12147cf2473e87e","passed","","6846","","","","","","","","","","","","","<br>Remember! After a ball falls, the screen will disappear, and you'll decide if the proposed position is where the hidden triangle was. <br>You will now practice this by watching a few videos and making decisions.<p>To respond:<br style=""margin-bottom: 5px; text-indent: -20px; padding-left: 20px;"">- Press <b style=""color: #12AD2B;"">J for Yes</b>, if you think the triangle is in the correct position.<br style=""margin-top: 0; text-indent: -20px; padding-left: 20px;"">- Press <b style=""color: orange;"">F for No</b>, if you think the triangle is not in the correct position.</p><p>In this practice round, there is no time limit. Focus on getting comfortable with the task first.<br>Press either J or F to begin your practice trials.</p><img src = ""YesOrNo_instruction.png"" style=""width: 65%;""></img>","f","","","","","","","","","","","","","",""
"","","","","","html-keyboard-response","13","135197","0.0-11.0-0.0-2.0-0.0","6643c5d1c53f7ffbef7b96e0","6790928bebf0b969fc839b02","67982629c12147cf2473e87e","passed","","","","","","","","","","","","","","","","","ballFalling_prac","441","414","302","5","fallScene","true","","","","","","",""
"","","","","","html-keyboard-response","14","137722","0.0-11.0-0.0-2.0-1.0","6643c5d1c53f7ffbef7b96e0","6790928bebf0b969fc839b02","67982629c12147cf2473e87e","passed","","2516","","","","","","","","","","","","","","j","yesOrNo_prac_noTimed","","","","5","","","close gt","NA","","","","",""
"","","","","","html-keyboard-response","15","139832","0.0-11.0-0.0-2.0-0.1","6643c5d1c53f7ffbef7b96e0","6790928bebf0b969fc839b02","67982629c12147cf2473e87e","passed","","","","","","","","","","","","","","","","","ballFalling_prac","660","666","350","3","fallScene","false","","","","","","",""
"","","","","","html-keyboard-response","16","144573","0.0-11.0-0.0-2.0-1.1","6643c5d1c53f7ffbef7b96e0","6790928bebf0b969fc839b02","67982629c12147cf2473e87e","passed","","4738","","","","","","","","","","","","","","f","yesOrNo_prac_noTimed","","","","3","","","wrong direction","NA","","","","",""
"","","","","","html-keyboard-response","17","146130","0.0-11.0-0.0-2.0-0.2","6643c5d1c53f7ffbef7b96e0","6790928bebf0b969fc839b02","67982629c12147cf2473e87e","passed","","","","","","","","","","","","","","","","","ballFalling_prac","416","464","296","1","fallScene","false","","","","","","",""
"","","","","","html-keyboard-response","18","147831","0.0-11.0-0.0-2.0-1.2","6643c5d1c53f7ffbef7b96e0","6790928bebf0b969fc839b02","67982629c12147cf2473e87e","passed","","1697","","","","","","","","","","","","","","j","yesOrNo_prac_noTimed","","","","1","","","gt","NA","","","","",""
"","","","","","instructions","19","154757","0.0-11.0-0.0-3.0","6643c5d1c53f7ffbef7b96e0","6790928bebf0b969fc839b02","67982629c12147cf2473e87e","passed","[{""page_index"":0,""viewing_time"":4926},{""page_index"":1,""viewing_time"":2000}]","6925","","","","","","","","","","","","","","","","","","","","","","","","","","","",""
"","","","","","html-button-response","20","156776","0.0-11.0-0.0-4.0","6643c5d1c53f7ffbef7b96e0","6790928bebf0b969fc839b02","67982629c12147cf2473e87e","passed","","1515","","","","","","","","","","","","","<p>To make sure you understood the task, we just have a <b>brief quiz</b> here.</p><p>If you need to review the instructions, click 'Previous'.</p><p>It's important to understand the task to do the study, so you have to pass the quiz to move to the study.</p>","1","","","","","","","","","","","","","",""
"","","","","","survey-multi-choice","21","166854","0.0-11.0-1.0-0.0","6643c5d1c53f7ffbef7b96e0","6790928bebf0b969fc839b02","67982629c12147cf2473e87e","passed","","10076","","","","","","","","","","","","","","{""generalProcedure"":""Watch a video of a ball falling, some of it behind a gray screen. After each video, decide if the triangle is at the spot where the ball hit the triangle behind the screen. There is time limit for the response.""}","","","","","","","","","","[0]","","","",""
"","","","","","survey-multi-choice","22","169642","0.0-11.0-1.0-1.0","6643c5d1c53f7ffbef7b96e0","6790928bebf0b969fc839b02","67982629c12147cf2473e87e","passed","","2787","","","","","","","","","","","","","","{""checkBallHitObstacle"":""Yes.""}","","","","","","","","","","[0]","","","",""
"","","","","","survey-multi-choice","23","172669","0.0-11.0-1.0-2.0","6643c5d1c53f7ffbef7b96e0","6790928bebf0b969fc839b02","67982629c12147cf2473e87e","passed","","3027","","","","","","","","","","","","","","{""checkTriangleVisibility"":""No, the triangle is hidden behind the gray screen.""}","","","","","","","","","","[0]","","","",""
"","","","","","survey-multi-choice","24","180204","0.0-11.0-1.0-3.0","6643c5d1c53f7ffbef7b96e0","6790928bebf0b969fc839b02","67982629c12147cf2473e87e","passed","","7533","","","","","","","","","","","","","","{""checkTimedResponse"":""Your response will not be recorded, and the trial will move to the next one.""}","","","","","","","","","","[0]","","","",""
"","","","","","survey-multi-choice","25","185260","0.0-11.0-1.0-4.0","6643c5d1c53f7ffbef7b96e0","6790928bebf0b969fc839b02","67982629c12147cf2473e87e","passed","","5055","","","","","","","","","","","","","","{""checkTimeBlockNotice"":""Before every individual trial.""}","","","","","","","","","","[0]","","","",""
"","","","","","survey-multi-choice","26","192077","0.0-11.0-1.0-5.0","6643c5d1c53f7ffbef7b96e0","6790928bebf0b969fc839b02","67982629c12147cf2473e87e","passed","","6815","","","","","","","","","","","","","","{""checkTimeBlockSameness"":""Yes, the time limit is the same for all trials within a block.""}","","","","","","","","","","[0]","","","",""
"","","","","","survey-multi-choice","27","204587","0.0-11.0-1.0-6.0","6643c5d1c53f7ffbef7b96e0","6790928bebf0b969fc839b02","67982629c12147cf2473e87e","passed","","12507","","","","","","","","","","","","","","{""checkTrianglePrecision"":""Yes. The proposed purple triangle is very close to the correct position, so I should choose 'Yes.'""}","","","","","","","","","","[0]","","","",""
"","","","","","html-button-response","28","206180","0.0-11.0-2.0-0.0","6643c5d1c53f7ffbef7b96e0","6790928bebf0b969fc839b02","67982629c12147cf2473e87e","passed","","1591","","","","","","","","","","","","","<p>Oops! You did not pass the quiz.</p><p>You will now repeat the instructions and practice.</p>","0","","","","","","","","","","","failed","","",""
"","","","","","instructions","29","211955","0.0-11.1-0.1-0.1","6643c5d1c53f7ffbef7b96e0","6790928bebf0b969fc839b02","67982629c12147cf2473e87e","passed","[{""page_index"":0,""viewing_time"":1449},{""page_index"":1,""viewing_time"":1117},{""page_index"":2,""viewing_time"":1569},{""page_index"":3,""viewing_time"":1639}]","5774","","","","","","","","","","","","","","","","","","","","","","","","","","","",""
"","","","","","html-keyboard-response","30","218460","0.0-11.1-0.1-1.1","6643c5d1c53f7ffbef7b96e0","6790928bebf0b969fc839b02","67982629c12147cf2473e87e","passed","","5999","","","","","","","","","","","","","<br>Remember! After a ball falls, the screen will disappear, and you'll decide if the proposed position is where the hidden triangle was. <br>You will now practice this by watching a few videos and making decisions.<p>To respond:<br style=""margin-bottom: 5px; text-indent: -20px; padding-left: 20px;"">- Press <b style=""color: #12AD2B;"">J for Yes</b>, if you think the triangle is in the correct position.<br style=""margin-top: 0; text-indent: -20px; padding-left: 20px;"">- Press <b style=""color: orange;"">F for No</b>, if you think the triangle is not in the correct position.</p><p>In this practice round, there is no time limit. Focus on getting comfortable with the task first.<br>Press either J or F to begin your practice trials.</p><img src = ""YesOrNo_instruction.png"" style=""width: 65%;""></img>","f","","","","","","","","","","","","","",""
"","","","","","html-keyboard-response","31","220561","0.0-11.1-0.1-2.1-0.3","6643c5d1c53f7ffbef7b96e0","6790928bebf0b969fc839b02","67982629c12147cf2473e87e","passed","","","","","","","","","","","","","","","","","ballFalling_prac","660","666","350","3","fallScene","false","","","","","","",""
"","","","","","html-keyboard-response","32","222800","0.0-11.1-0.1-2.1-1.3","6643c5d1c53f7ffbef7b96e0","6790928bebf0b969fc839b02","67982629c12147cf2473e87e","passed","","2235","","","","","","","","","","","","","","f","yesOrNo_prac_noTimed","","","","3","","","wrong direction","NA","","","","",""
"","","","","","html-keyboard-response","33","224376","0.0-11.1-0.1-2.1-0.4","6643c5d1c53f7ffbef7b96e0","6790928bebf0b969fc839b02","67982629c12147cf2473e87e","passed","","","","","","","","","","","","","","","","","ballFalling_prac","441","414","302","5","fallScene","true","","","","","","",""
"","","","","","html-keyboard-response","34","225350","0.0-11.1-0.1-2.1-1.4","6643c5d1c53f7ffbef7b96e0","6790928bebf0b969fc839b02","67982629c12147cf2473e87e","passed","","974","","","","","","","","","","","","","","j","yesOrNo_prac_noTimed","","","","5","","","close gt","NA","","","","",""
"","","","","","html-keyboard-response","35","226911","0.0-11.1-0.1-2.1-0.5","6643c5d1c53f7ffbef7b96e0","6790928bebf0b969fc839b02","67982629c12147cf2473e87e","passed","","","","","","","","","","","","","","","","","ballFalling_prac","416","464","296","1","fallScene","false","","","","","","",""
"","","","","","html-keyboard-response","36","229496","0.0-11.1-0.1-2.1-1.5","6643c5d1c53f7ffbef7b96e0","6790928bebf0b969fc839b02","67982629c12147cf2473e87e","passed","","2581","","","","","","","","","","","","","","j","yesOrNo_prac_noTimed","","","","1","","","gt","NA","","","","",""
"","","","","","instructions","37","238299","0.0-11.1-0.1-3.1","6643c5d1c53f7ffbef7b96e0","6790928bebf0b969fc839b02","67982629c12147cf2473e87e","passed","[{""page_index"":0,""viewing_time"":2451},{""page_index"":1,""viewing_time"":1323},{""page_index"":0,""viewing_time"":2139},{""page_index"":1,""viewing_time"":2889}]","8803","","","","","","","","","","","","","","","","","","","","","","","","","","","",""
"","","","","","html-button-response","38","239904","0.0-11.1-0.1-4.1","6643c5d1c53f7ffbef7b96e0","6790928bebf0b969fc839b02","67982629c12147cf2473e87e","passed","","1097","","","","","","","","","","","","","<p>To make sure you understood the task, we just have a <b>brief quiz</b> here.</p><p>If you need to review the instructions, click 'Previous'.</p><p>It's important to understand the task to do the study, so you have to pass the quiz to move to the study.</p>","1","","","","","","","","","","","","","",""
"","","","","","survey-multi-choice","39","242168","0.0-11.1-1.1-0.1","6643c5d1c53f7ffbef7b96e0","6790928bebf0b969fc839b02","67982629c12147cf2473e87e","passed","","2263","","","","","","","","","","","","","","{""generalProcedure"":""Watch a video of a ball falling, some of it behind a gray screen. After each video, decide if the triangle is at the spot where the ball hit the triangle behind the screen. There is time limit for the response.""}","","","","","","","","","","[0]","","","",""
"","","","","","survey-multi-choice","40","244303","0.0-11.1-1.1-1.1","6643c5d1c53f7ffbef7b96e0","6790928bebf0b969fc839b02","67982629c12147cf2473e87e","passed","","2134","","","","","","","","","","","","","","{""checkBallHitObstacle"":""Yes.""}","","","","","","","","","","[0]","","","",""
"","","","","","survey-multi-choice","41","246891","0.0-11.1-1.1-2.1","6643c5d1c53f7ffbef7b96e0","6790928bebf0b969fc839b02","67982629c12147cf2473e87e","passed","","2586","","","","","","","","","","","","","","{""checkTriangleVisibility"":""No, the triangle is hidden behind the gray screen.""}","","","","","","","","","","[0]","","","",""
"","","","","","survey-multi-choice","42","249014","0.0-11.1-1.1-3.1","6643c5d1c53f7ffbef7b96e0","6790928bebf0b969fc839b02","67982629c12147cf2473e87e","passed","","2122","","","","","","","","","","","","","","{""checkTimedResponse"":""Your response will not be recorded, and the trial will move to the next one.""}","","","","","","","","","","[0]","","","",""
"","","","","","survey-multi-choice","43","254090","0.0-11.1-1.1-4.1","6643c5d1c53f7ffbef7b96e0","6790928bebf0b969fc839b02","67982629c12147cf2473e87e","passed","","5074","","","","","","","","","","","","","","{""checkTimeBlockNotice"":""At the beginning of each block.""}","","","","","","","","","","[0]","","","",""
"","","","","","survey-multi-choice","44","260297","0.0-11.1-1.1-5.1","6643c5d1c53f7ffbef7b96e0","6790928bebf0b969fc839b02","67982629c12147cf2473e87e","passed","","6206","","","","","","","","","","","","","","{""checkTimeBlockSameness"":""Yes, the time limit is the same for all trials within a block.""}","","","","","","","","","","[0]","","","",""
"","","","","","survey-multi-choice","45","268937","0.0-11.1-1.1-6.1","6643c5d1c53f7ffbef7b96e0","6790928bebf0b969fc839b02","67982629c12147cf2473e87e","passed","","8638","","","","","","","","","","","","","","{""checkTrianglePrecision"":""No. The proposed purple triangle is not in the correct position because it doesn't match the location of the white triangle exactly.""}","","","","","","","","","","[0]","","","",""
"","","","","","instructions","46","283697","0.0-12.0","6643c5d1c53f7ffbef7b96e0","6790928bebf0b969fc839b02","67982629c12147cf2473e87e","passed","[{""page_index"":0,""viewing_time"":1307},{""page_index"":1,""viewing_time"":3868},{""page_index"":2,""viewing_time"":3719},{""page_index"":3,""viewing_time"":5866}]","14760","","","","","","","","","","","","","","","","","","","","","","","","","","","",""
"","","","","","instructions","47","285788","0.0-13.0-0.0","6643c5d1c53f7ffbef7b96e0","6790928bebf0b969fc839b02","67982629c12147cf2473e87e","passed","[{""page_index"":0,""viewing_time"":2090}]","2091","","","","","","","","","","","","","","","","","","","","","","","","","","","",""
"","","","","","html-keyboard-response","48","288586","0.0-13.0-1.0","6643c5d1c53f7ffbef7b96e0","6790928bebf0b969fc839b02","67982629c12147cf2473e87e","passed","","2796","","","","","","","","","","","","","<p><span style=""font-size:40px;"">Practice BLOCK 1</span></p><p><span style=""font-size:25px;"">You have <b style=""color: #FF644F;""><strong>3 second(s)</strong></b> to respond to the following trials.</span><br></p><p id=""blinking-text"" style=""font-weight; animation: blink 2s infinite;"">Press Space to continue</p><style>
                    @keyframes blink {
                        50% {
                            opacity: 0;
                        }
                    }
                </style>"," ","","","","","","","","","","","","","",""
"","","","","","html-keyboard-response","49","290155","0.0-13.0-2.0-0.0","6643c5d1c53f7ffbef7b96e0","6790928bebf0b969fc839b02","67982629c12147cf2473e87e","passed","","","","","","","","","","","","","","","","","ballFalling_prac","416","464","296","1","fallScene","false","","","","","","",""
"","","","","","html-keyboard-response","50","293172","0.0-13.0-2.0-1.0","6643c5d1c53f7ffbef7b96e0","6790928bebf0b969fc839b02","67982629c12147cf2473e87e","passed","","874","","","","","","","","","","","","","","j","yesOrNo_prac","","","","1","","","far gt","3000","","","","",""
"","","","","","html-keyboard-response","51","294725","0.0-13.0-2.0-0.1","6643c5d1c53f7ffbef7b96e0","6790928bebf0b969fc839b02","67982629c12147cf2473e87e","passed","","","","","","","","","","","","","","","","","ballFalling_prac","584","536","296","1","fallScene","true","","","","","","",""
"","","","","","html-keyboard-response","52","297727","0.0-13.0-2.0-1.1","6643c5d1c53f7ffbef7b96e0","6790928bebf0b969fc839b02","67982629c12147cf2473e87e","passed","","1227","","","","","","","","","","","","","","f","yesOrNo_prac","","","","1","","","close gt","3000","","","","",""
"","","","","","html-keyboard-response","53","299321","0.0-13.0-2.0-0.2","6643c5d1c53f7ffbef7b96e0","6790928bebf0b969fc839b02","67982629c12147cf2473e87e","passed","","","","","","","","","","","","","","","","","ballFalling_prac","660","610","263","4","fallScene","false","","","","","","",""
"","","","","","html-keyboard-response","54","302327","0.0-13.0-2.0-1.2","6643c5d1c53f7ffbef7b96e0","6790928bebf0b969fc839b02","67982629c12147cf2473e87e","passed","","975","","","","","","","","","","","","","","j","yesOrNo_prac","","","","4","","","gt","3000","","","","",""
"","","","","","html-keyboard-response","55","304347","0.0-13.0-3.0","6643c5d1c53f7ffbef7b96e0","6790928bebf0b969fc839b02","67982629c12147cf2473e87e","passed","","2019","","","","","","","","","","","","","<p><span style=""font-size:40px;"">Practice BLOCK 2</span></p><p><span style=""font-size:25px;"">You have <b style=""color: #FF644F;""><strong>1 second(s)</strong></b> to respond to the following trials.</span><br></p><p id=""blinking-text"" style=""font-weight; animation: blink 2s infinite;"">Press Space to continue</p><style>
                    @keyframes blink {
                        50% {
                            opacity: 0;
                        }
                    }
                </style>"," ","","","","","","","","","","","","","",""
"","","","","","html-keyboard-response","56","305925","0.0-13.0-4.0-0.0","6643c5d1c53f7ffbef7b96e0","6790928bebf0b969fc839b02","67982629c12147cf2473e87e","passed","","","","","","","","","","","","","","","","","ballFalling_prac","660","610","263","4","fallScene","false","","","","","","",""
"","","","","","html-keyboard-response","57","306940","0.0-13.0-4.0-1.0","6643c5d1c53f7ffbef7b96e0","6790928bebf0b969fc839b02","67982629c12147cf2473e87e","passed","","972","","","","","","","","","","","","","","j","yesOrNo_prac","","","","4","","","far gt","1000","","","","",""
"","","","","","html-keyboard-response","58","308492","0.0-13.0-4.0-0.1","6643c5d1c53f7ffbef7b96e0","6790928bebf0b969fc839b02","67982629c12147cf2473e87e","passed","","","","","","","","","","","","","","","","","ballFalling_prac","441","500","317","6","fallScene","true","","","","","","",""
"","","","","","html-keyboard-response","59","309506","0.0-13.0-4.0-1.1","6643c5d1c53f7ffbef7b96e0","6790928bebf0b969fc839b02","67982629c12147cf2473e87e","passed","","563","","","","","","","","","","","","","","j","yesOrNo_prac","","","","6","","","gt","1000","","","","",""
"","","","","","html-keyboard-response","60","311621","0.0-13.0-4.0-0.2","6643c5d1c53f7ffbef7b96e0","6790928bebf0b969fc839b02","67982629c12147cf2473e87e","passed","","","","","","","","","","","","","","","","","ballFalling_prac","340","334","350","3","fallScene","true","","","","","","",""
"","","","","","html-keyboard-response","61","312625","0.0-13.0-4.0-1.2","6643c5d1c53f7ffbef7b96e0","6790928bebf0b969fc839b02","67982629c12147cf2473e87e","passed","","705","","","","","","","","","","","","","","j","yesOrNo_prac","","","","3","","","close gt","1000","","","","",""
"","","","","","instructions","62","314383","0.0-13.0-5.0","6643c5d1c53f7ffbef7b96e0","6790928bebf0b969fc839b02","67982629c12147cf2473e87e","passed","[{""page_index"":0,""viewing_time"":1756}]","1757","","","","","","","","","","","","","","","","","","","","","","","","","","","",""
"","","","","","html-keyboard-response","63","315534","0.0-13.0-6.0","6643c5d1c53f7ffbef7b96e0","6790928bebf0b969fc839b02","67982629c12147cf2473e87e","passed","","1150","","","","","","","","","","","","","<p><span style=""font-size:40px;"">Practice Test BLOCK 1</span></p><p><span style=""font-size:25px;"">You have <b style=""color: #FF644F;""><strong>1 second(s)</strong></b> to respond to the following trials.</span><br></p><p id=""blinking-text"" style=""font-weight; animation: blink 2s infinite;"">Press Space to continue</p><style>
                    @keyframes blink {
                        50% {
                            opacity: 0;
                        }
                    }
                </style>"," ","","","","","","","","","","","","","",""
"","","","","","html-keyboard-response","64","317107","0.0-13.0-7.0-0.0","6643c5d1c53f7ffbef7b96e0","6790928bebf0b969fc839b02","67982629c12147cf2473e87e","passed","","","","","","","","","","","","","","","","","ballFalling_prac","340","390","263","4","fallScene","true","","","","","","",""
"","","","","","html-keyboard-response","65","318120","0.0-13.0-7.0-1.0","6643c5d1c53f7ffbef7b96e0","6790928bebf0b969fc839b02","67982629c12147cf2473e87e","passed","","790","","","","","","","","","","","","","","j","yesOrNo_prac","","","","4","","","far gt","1000","","","","",""
"","","","","","html-keyboard-response","66","319673","0.0-13.0-7.0-0.1","6643c5d1c53f7ffbef7b96e0","6790928bebf0b969fc839b02","67982629c12147cf2473e87e","passed","","","","","","","","","","","","","","","","","ballFalling_prac","441","500","317","6","fallScene","true","","","","","","",""
"","","","","","html-keyboard-response","67","320687","0.0-13.0-7.0-1.1","6643c5d1c53f7ffbef7b96e0","6790928bebf0b969fc839b02","67982629c12147cf2473e87e","passed","","523","","","","","","","","","","","","","","j","yesOrNo_prac","","","","6","","","close gt","1000","","","","",""
"","","","","","html-keyboard-response","68","322257","0.0-13.0-7.0-0.2","6643c5d1c53f7ffbef7b96e0","6790928bebf0b969fc839b02","67982629c12147cf2473e87e","passed","","","","","","","","","","","","","","","","","ballFalling_prac","559","586","302","5","fallScene","false","","","","","","",""
"","","","","","html-keyboard-response","69","323272","0.0-13.0-7.0-1.2","6643c5d1c53f7ffbef7b96e0","6790928bebf0b969fc839b02","67982629c12147cf2473e87e","passed","","524","","","","","","","","","","","","","","j","yesOrNo_prac","","","","5","","","gt","1000","","","","",""
"","","","","","html-keyboard-response","70","324409","0.0-13.0-8.0","6643c5d1c53f7ffbef7b96e0","6790928bebf0b969fc839b02","67982629c12147cf2473e87e","passed","","1136","","","","","","","","","","","","","<p><span style=""font-size:40px;"">Practice Test BLOCK 2</span></p><p><span style=""font-size:25px;"">You have <b style=""color: #FF644F;""><strong>3 second(s)</strong></b> to respond to the following trials.</span><br></p><p id=""blinking-text"" style=""font-weight; animation: blink 2s infinite;"">Press Space to continue</p><style>
                    @keyframes blink {
                        50% {
                            opacity: 0;
                        }
                    }
                </style>"," ","","","","","","","","","","","","","",""
"","","","","","html-keyboard-response","71","325989","0.0-13.0-9.0-0.0","6643c5d1c53f7ffbef7b96e0","6790928bebf0b969fc839b02","67982629c12147cf2473e87e","passed","","","","","","","","","","","","","","","","","ballFalling_prac","340","390","263","4","fallScene","true","","","","","","",""
"","","","","","html-keyboard-response","72","329004","0.0-13.0-9.0-1.0","6643c5d1c53f7ffbef7b96e0","6790928bebf0b969fc839b02","67982629c12147cf2473e87e","passed","","879","","","","","","","","","","","","","","j","yesOrNo_prac","","","","4","","","close gt","3000","","","","",""
"","","","","","html-keyboard-response","73","330572","0.0-13.0-9.0-0.1","6643c5d1c53f7ffbef7b96e0","6790928bebf0b969fc839b02","67982629c12147cf2473e87e","passed","","","","","","","","","","","","","","","","","ballFalling_prac","416","365","249","2","fallScene","false","","","","","","",""
"","","","","","html-keyboard-response","74","333587","0.0-13.0-9.0-1.1","6643c5d1c53f7ffbef7b96e0","6790928bebf0b969fc839b02","67982629c12147cf2473e87e","passed","","1138","","","","","","","","","","","","","","j","yesOrNo_prac","","","","2","","","gt","3000","","","","",""
"","","","","","html-keyboard-response","75","335153","0.0-13.0-9.0-0.2","6643c5d1c53f7ffbef7b96e0","6790928bebf0b969fc839b02","67982629c12147cf2473e87e","passed","","","","","","","","","","","","","","","","","ballFalling_prac","559","586","302","5","fallScene","false","","","","","","",""
"","","","","","html-keyboard-response","76","338156","0.0-13.0-9.0-1.2","6643c5d1c53f7ffbef7b96e0","6790928bebf0b969fc839b02","67982629c12147cf2473e87e","passed","","1291","","","","","","","","","","","","","","f","yesOrNo_prac","","","","5","","","far gt","3000","","","","",""
"","","","","","instructions","77","341933","0.0-14.0","6643c5d1c53f7ffbef7b96e0","6790928bebf0b969fc839b02","67982629c12147cf2473e87e","passed","[{""page_index"":0,""viewing_time"":3774}]","3775","","","","","","","","","","","","","","","","","","","","","","","","","","","",""
"","","","","","html-keyboard-response","78","348529","0.0-15.0","6643c5d1c53f7ffbef7b96e0","6790928bebf0b969fc839b02","67982629c12147cf2473e87e","passed","","6595","","","","","","","","","","","","","<p><span style=""font-size:40px;"">BLOCK 1</span></p><p><span style=""font-size:25px;"">You have <b style=""color: #FF644F;""><strong>3 second(s)</strong></b> to respond to the following trials.</span><br></p><p></p> <!-- Blank line -->
                <p id=""blinking-text"" style=""font-weight; animation: blink 2s infinite;"">Press Space to continue</p>
                <style>
                    @keyframes blink {
                        50% {
                            opacity: 0;
                        }
                    }
                </style></p>"," ","","","","","","","","","","","","","",""
"","","","","","html-keyboard-response","79","350537","0.0-16.0-0.0","6643c5d1c53f7ffbef7b96e0","6790928bebf0b969fc839b02","67982629c12147cf2473e87e","passed","","","","","","","","","","","","","","","","","ballFalling","604.4000000000001","596.8711431702998","394.5","10","fallScene","true","","","","","1","",""
"","","","","","html-keyboard-response","80","353540","0.0-16.0-1.0","6643c5d1c53f7ffbef7b96e0","6790928bebf0b969fc839b02","67982629c12147cf2473e87e","passed","","845","","","","","","","","","","","","","","f","yesOrNo","","","","10","","","mid","3000","","","1","536.4288568297004","300"
"","","","","","html-keyboard-response","81","355104","0.0-16.0-0.1","6643c5d1c53f7ffbef7b96e0","6790928bebf0b969fc839b02","67982629c12147cf2473e87e","passed","","","","","","","","","","","","","","","","","ballFalling","322.3","379.3711431702997","245.25","1","fallScene","true","","","","","2","",""
"","","","","","html-keyboard-response","82","358107","0.0-16.0-1.1","6643c5d1c53f7ffbef7b96e0","6790928bebf0b969fc839b02","67982629c12147cf2473e87e","passed","","743","","","","","","","","","","","","","","f","yesOrNo","","","","1","","","mid","3000","","","2","390.27114317029975","300"
"","","","","","html-keyboard-response","83","359670","0.0-16.0-0.2","6643c5d1c53f7ffbef7b96e0","6790928bebf0b969fc839b02","67982629c12147cf2473e87e","passed","","","","","","","","","","","","","","","","","ballFalling","322.3","296.07114317029976","371.46","3","fallScene","false","","","","","3","",""
"","","","","","html-keyboard-response","84","362673","0.0-16.0-1.2","6643c5d1c53f7ffbef7b96e0","6790928bebf0b969fc839b02","67982629c12147cf2473e87e","passed","","771","","","","","","","","","","","","","","j","yesOrNo","","","","3","","","mid","3000","","","3","321.3","300"
"","","","","","html-keyboard-response","85","364171","0.0-16.0-0.3","6643c5d1c53f7ffbef7b96e0","6790928bebf0b969fc839b02","67982629c12147cf2473e87e","passed","","","","","","","","","","","","","","","","","ballFalling","604.4000000000001","667.6211431702998","201.78","9","fallScene","true","","","","","4","",""
"","","","","","html-keyboard-response","86","367188","0.0-16.0-1.3","6643c5d1c53f7ffbef7b96e0","6790928bebf0b969fc839b02","67982629c12147cf2473e87e","passed","","1034","","","","","","","","","","","","","","f","yesOrNo","","","","9","","","lp","3000","","","4","605.4000000000001","151"
"","","","","","html-keyboard-response","87","368755","0.0-16.0-0.4","6643c5d1c53f7ffbef7b96e0","6790928bebf0b969fc839b02","67982629c12147cf2473e87e","passed","","","","","","","","","","","","","","","","","ballFalling","604.4000000000001","575.4211431702997","266.76","12","fallScene","true","","","","","5","",""
"","","","","","html-keyboard-response","88","371770","0.0-16.0-1.4","6643c5d1c53f7ffbef7b96e0","6790928bebf0b969fc839b02","67982629c12147cf2473e87e","passed","","585","","","","","","","","","","","","","","j","yesOrNo","","","","12","","","gt","3000","","","5","575.4211431702997","266.76"
"","","","","","html-keyboard-response","89","373336","0.0-16.0-0.5","6643c5d1c53f7ffbef7b96e0","6790928bebf0b969fc839b02","67982629c12147cf2473e87e","passed","","","","","","","","","","","","","","","","","ballFalling","500","553.4711431702997","282.51","7","fallScene","false","","","","","6","",""
"","","","","","html-keyboard-response","90","376340","0.0-16.0-1.5","6643c5d1c53f7ffbef7b96e0","6790928bebf0b969fc839b02","67982629c12147cf2473e87e","passed","","825","","","","","","","","","","","","","","j","yesOrNo","","","","7","","","lp","3000","","","6","501","227.2843295913261"
"","","","","","html-keyboard-response","91","377904","0.0-16.0-0.6","6643c5d1c53f7ffbef7b96e0","6790928bebf0b969fc839b02","67982629c12147cf2473e87e","passed","","","","","","","","","","","","","","","","","ballFalling","322.3","296.07114317029976","371.46","3","fallScene","true","","","","","7","",""
"","","","","","html-keyboard-response","92","380919","0.0-16.0-1.6","6643c5d1c53f7ffbef7b96e0","6790928bebf0b969fc839b02","67982629c12147cf2473e87e","passed","","622","","","","","","","","","","","","","","j","yesOrNo","","","","3","","","mid","3000","","","7","321.3","300"
"","","","","","html-keyboard-response","93","382469","0.0-16.0-0.7","6643c5d1c53f7ffbef7b96e0","6790928bebf0b969fc839b02","67982629c12147cf2473e87e","passed","","","","","","","","","","","","","","","","","ballFalling","604.4000000000001","650.0211431702996","404.58000000000004","11","fallScene","true","","","","","8","",""
"","","","","","html-keyboard-response","94","385485","0.0-16.0-1.7","6643c5d1c53f7ffbef7b96e0","6790928bebf0b969fc839b02","67982629c12147cf2473e87e","passed","","718","","","","","","","","","","","","","","j","yesOrNo","","","","11","","","gt","3000","","","8","650.0211431702996","404.58"
"","","","","","html-keyboard-response","95","387034","0.0-16.0-0.8","6643c5d1c53f7ffbef7b96e0","6790928bebf0b969fc839b02","67982629c12147cf2473e87e","passed","","","","","","","","","","","","","","","","","ballFalling","500","453.67114317029973","210.33","5","fallScene","true","","","","","9","",""
"","","","","","html-keyboard-response","96","390036","0.0-16.0-1.8","6643c5d1c53f7ffbef7b96e0","6790928bebf0b969fc839b02","67982629c12147cf2473e87e","passed","","1238","","","","","","","","","","","","","","j","yesOrNo","","","","5","","","lp","3000","","","9","499","151"
"","","","","","html-keyboard-response","97","391604","0.0-16.0-0.9","6643c5d1c53f7ffbef7b96e0","6790928bebf0b969fc839b02","67982629c12147cf2473e87e","passed","","","","","","","","","","","","","","","","","ballFalling","322.3","356.42114317029973","357.87","4","fallScene","true","","","","","10","",""
"","","","","","html-keyboard-response","98","394618","0.0-16.0-1.9","6643c5d1c53f7ffbef7b96e0","6790928bebf0b969fc839b02","67982629c12147cf2473e87e","passed","","984","","","","","","","","","","","","","","j","yesOrNo","","","","4","","","gt","3000","","","10","356.42114317029973","357.87"
"","","","","","html-keyboard-response","99","396169","0.0-16.0-0.10","6643c5d1c53f7ffbef7b96e0","6790928bebf0b969fc839b02","67982629c12147cf2473e87e","passed","","","","","","","","","","","","","","","","","ballFalling","500","453.67114317029973","210.33","5","fallScene","false","","","","","11","",""
"","","","","","html-keyboard-response","100","399173","0.0-16.0-1.10","6643c5d1c53f7ffbef7b96e0","6790928bebf0b969fc839b02","67982629c12147cf2473e87e","passed","","775","","","","","","","","","","","","","","j","yesOrNo","","","","5","","","mid","3000","","","11","499","300"
"","","","","","html-keyboard-response","101","400984","0.0-16.0-0.11","6643c5d1c53f7ffbef7b96e0","6790928bebf0b969fc839b02","67982629c12147cf2473e87e","passed","","","","","","","","","","","","","","","","","ballFalling","322.3","308.07114317029976","253.89","2","fallScene","true","","","","","12","",""
"","","","","","html-keyboard-response","102","403986","0.0-16.0-1.11","6643c5d1c53f7ffbef7b96e0","6790928bebf0b969fc839b02","67982629c12147cf2473e87e","passed","","571","","","","","","","","","","","","","","j","yesOrNo","","","","2","","","gt","3000","","","12","308.07114317029976","253.89"
"","","","","","html-keyboard-response","103","405568","0.0-16.0-0.12","6643c5d1c53f7ffbef7b96e0","6790928bebf0b969fc839b02","67982629c12147cf2473e87e","passed","","","","","","","","","","","","","","","","","ballFalling","604.4000000000001","650.0211431702996","404.58000000000004","11","fallScene","true","","","","","13","",""
"","","","","","html-keyboard-response","104","408584","0.0-16.0-1.12","6643c5d1c53f7ffbef7b96e0","6790928bebf0b969fc839b02","67982629c12147cf2473e87e","passed","","1070","","","","","","","","","","","","","","j","yesOrNo","","","","11","","","gt","3000","","","13","650.0211431702996","404.58"
"","","","","","html-keyboard-response","105","410583","0.0-16.0-0.13","6643c5d1c53f7ffbef7b96e0","6790928bebf0b969fc839b02","67982629c12147cf2473e87e","passed","","","","","","","","","","","","","","","","","ballFalling","500","510.8711431702997","369.03","8","fallScene","true","","","","","14","",""
"","","","","","html-keyboard-response","106","413586","0.0-16.0-1.13","6643c5d1c53f7ffbef7b96e0","6790928bebf0b969fc839b02","67982629c12147cf2473e87e","passed","","652","","","","","","","","","","","","","","j","yesOrNo","","","","8","","","gt","3000","","","14","510.8711431702997","369.03"
"","","","","","html-keyboard-response","107","415152","0.0-16.0-0.14","6643c5d1c53f7ffbef7b96e0","6790928bebf0b969fc839b02","67982629c12147cf2473e87e","passed","","","","","","","","","","","","","","","","","ballFalling","322.3","356.42114317029973","357.87","4","fallScene","true","","","","","15","",""
"","","","","","html-keyboard-response","108","418167","0.0-16.0-1.14","6643c5d1c53f7ffbef7b96e0","6790928bebf0b969fc839b02","67982629c12147cf2473e87e","passed","","825","","","","","","","","","","","","","","j","yesOrNo","","","","4","","","lp","3000","","","15","323.3","297.4070551689986"
"","","","","","html-keyboard-response","109","419653","0.0-16.0-0.15","6643c5d1c53f7ffbef7b96e0","6790928bebf0b969fc839b02","67982629c12147cf2473e87e","passed","","","","","","","","","","","","","","","","","ballFalling","604.4000000000001","667.6211431702998","201.78","9","fallScene","false","","","","","16","",""
"","","","","","html-keyboard-response","110","422666","0.0-16.0-1.15","6643c5d1c53f7ffbef7b96e0","6790928bebf0b969fc839b02","67982629c12147cf2473e87e","passed","","1014","","","","","","","","","","","","","","f","yesOrNo","","","","9","","","mid","3000","","","16","605.4000000000001","300"
"","","","","","html-keyboard-response","111","424453","0.0-16.0-0.16","6643c5d1c53f7ffbef7b96e0","6790928bebf0b969fc839b02","67982629c12147cf2473e87e","passed","","","","","","","","","","","","","","","","","ballFalling","322.3","308.07114317029976","253.89","2","fallScene","true","","","","","17","",""
"","","","","","html-keyboard-response","112","427469","0.0-16.0-1.16","6643c5d1c53f7ffbef7b96e0","6790928bebf0b969fc839b02","67982629c12147cf2473e87e","passed","","1172","","","","","","","","","","","","","","f","yesOrNo","","","","2","","","mid","3000","","","17","321.3","300"
"","","","","","html-keyboard-response","113","429051","0.0-16.0-0.17","6643c5d1c53f7ffbef7b96e0","6790928bebf0b969fc839b02","67982629c12147cf2473e87e","passed","","","","","","","","","","","","","","","","","ballFalling","500","553.4711431702997","282.51","7","fallScene","false","","","","","18","",""
"","","","","","html-keyboard-response","114","432066","0.0-16.0-1.17","6643c5d1c53f7ffbef7b96e0","6790928bebf0b969fc839b02","67982629c12147cf2473e87e","passed","","620","","","","","","","","","","","","","","j","yesOrNo","","","","7","","","mid","3000","","","18","501","300"
"","","","","","html-keyboard-response","115","433618","0.0-16.0-0.18","6643c5d1c53f7ffbef7b96e0","6790928bebf0b969fc839b02","67982629c12147cf2473e87e","passed","","","","","","","","","","","","","","","","","ballFalling","604.4000000000001","575.4211431702997","266.76","12","fallScene","false","","","","","19","",""
"","","","","","html-keyboard-response","116","436632","0.0-16.0-1.18","6643c5d1c53f7ffbef7b96e0","6790928bebf0b969fc839b02","67982629c12147cf2473e87e","passed","","987","","","","","","","","","","","","","","f","yesOrNo","","","","12","","","lp","3000","","","19","603.4000000000001","151"
"","","","","","html-keyboard-response","117","438185","0.0-16.0-0.19","6643c5d1c53f7ffbef7b96e0","6790928bebf0b969fc839b02","67982629c12147cf2473e87e","passed","","","","","","","","","","","","","","","","","ballFalling","322.3","356.42114317029973","357.87","4","fallScene","false","","","","","20","",""
"","","","","","html-keyboard-response","118","441198","0.0-16.0-1.19","6643c5d1c53f7ffbef7b96e0","6790928bebf0b969fc839b02","67982629c12147cf2473e87e","passed","","801","","","","","","","","","","","","","","j","yesOrNo","","","","4","","","lp","3000","","","20","323.3","297.4070551689986"
"","","","","","html-keyboard-response","119","443202","0.0-16.0-0.20","6643c5d1c53f7ffbef7b96e0","6790928bebf0b969fc839b02","67982629c12147cf2473e87e","passed","","","","","","","","","","","","","","","","","ballFalling","604.4000000000001","596.8711431702998","394.5","10","fallScene","false","","","","","21","",""
"","","","","","html-keyboard-response","120","446205","0.0-16.0-1.20","6643c5d1c53f7ffbef7b96e0","6790928bebf0b969fc839b02","67982629c12147cf2473e87e","passed","","801","","","","","","","","","","","","","","j","yesOrNo","","","","10","","","lp","3000","","","21","603.4000000000001","215.50214355555383"
"","","","","","html-keyboard-response","121","447766","0.0-16.0-0.21","6643c5d1c53f7ffbef7b96e0","6790928bebf0b969fc839b02","67982629c12147cf2473e87e","passed","","","","","","","","","","","","","","","","","ballFalling","322.3","379.3711431702997","245.25","1","fallScene","false","","","","","22","",""
"","","","","","html-keyboard-response","122","450782","0.0-16.0-1.21","6643c5d1c53f7ffbef7b96e0","6790928bebf0b969fc839b02","67982629c12147cf2473e87e","passed","","1292","","","","","","","","","","","","","","j","yesOrNo","","","","1","","","lp","3000","","","22","323.3","217.74551669457017"
"","","","","","html-keyboard-response","123","452782","0.0-16.0-0.22","6643c5d1c53f7ffbef7b96e0","6790928bebf0b969fc839b02","67982629c12147cf2473e87e","passed","","","","","","","","","","","","","","","","","ballFalling","500","510.8711431702997","369.03","8","fallScene","false","","","","","23","",""
"","","","","","html-keyboard-response","124","455785","0.0-16.0-1.22","6643c5d1c53f7ffbef7b96e0","6790928bebf0b969fc839b02","67982629c12147cf2473e87e","passed","","637","","","","","","","","","","","","","","j","yesOrNo","","","","8","","","mid","3000","","","23","501","300"
"","","","","","html-keyboard-response","125","457351","0.0-16.0-0.23","6643c5d1c53f7ffbef7b96e0","6790928bebf0b969fc839b02","67982629c12147cf2473e87e","passed","","","","","","","","","","","","","","","","","ballFalling","322.3","296.07114317029976","371.46","3","fallScene","true","","","","","24","",""
"","","","","","html-keyboard-response","126","460354","0.0-16.0-1.23","6643c5d1c53f7ffbef7b96e0","6790928bebf0b969fc839b02","67982629c12147cf2473e87e","passed","","687","","","","","","","","","","","","","","j","yesOrNo","","","","3","","","lp","3000","","","24","321.3","287.3327096511259"
"","","","","","html-keyboard-response","127","461692","0.0-17.0","6643c5d1c53f7ffbef7b96e0","6790928bebf0b969fc839b02","67982629c12147cf2473e87e","passed","","1336","","","","","","","","","","","","","<p><span style=""font-size:40px;"">BLOCK 2</span></p><p><span style=""font-size:25px;"">You have <b style=""color: #FF644F;""><strong>3 second(s)</strong></b> to respond to the following trials.</span><br></p><p></p> <!-- Blank line -->
                <p id=""blinking-text"" style=""font-weight; animation: blink 2s infinite;"">Press Space to continue</p>
                <style>
                    @keyframes blink {
                        50% {
                            opacity: 0;
                        }
                    }
                </style></p>"," ","","","","","","","","","","","","","",""
"","","","","","html-keyboard-response","128","463700","0.0-18.0-0.0","6643c5d1c53f7ffbef7b96e0","6790928bebf0b969fc839b02","67982629c12147cf2473e87e","passed","","","","","","","","","","","","","","","","","ballFalling","500","510.8711431702997","369.03","8","fallScene","false","","","","","25","",""
"","","","","","html-keyboard-response","129","466714","0.0-18.0-1.0","6643c5d1c53f7ffbef7b96e0","6790928bebf0b969fc839b02","67982629c12147cf2473e87e","passed","","1366","","","","","","","","","","","","","","f","yesOrNo","","","","8","","","lp","3000","","","25","501","151"
"","","","","","html-keyboard-response","130","468266","0.0-18.0-0.1","6643c5d1c53f7ffbef7b96e0","6790928bebf0b969fc839b02","67982629c12147cf2473e87e","passed","","","","","","","","","","","","","","","","","ballFalling","322.3","356.42114317029973","357.87","4","fallScene","true","","","","","26","",""
"","","","","","html-keyboard-response","131","471281","0.0-18.0-1.1","6643c5d1c53f7ffbef7b96e0","6790928bebf0b969fc839b02","67982629c12147cf2473e87e","passed","","1066","","","","","","","","","","","","","","j","yesOrNo","","","","4","","","mid","3000","","","26","390.27114317029975","300"
"","","","","","html-keyboard-response","132","472834","0.0-18.0-0.2","6643c5d1c53f7ffbef7b96e0","6790928bebf0b969fc839b02","67982629c12147cf2473e87e","passed","","","","","","","","","","","","","","","","","ballFalling","604.4000000000001","575.4211431702997","266.76","12","fallScene","true","","","","","27","",""
"","","","","","html-keyboard-response","133","475848","0.0-18.0-1.2","6643c5d1c53f7ffbef7b96e0","6790928bebf0b969fc839b02","67982629c12147cf2473e87e","passed","","717","","","","","","","","","","","","","","f","yesOrNo","","","","12","","","mid","3000","","","27","536.4288568297004","300"
"","","","","","html-keyboard-response","134","477415","0.0-18.0-0.3","6643c5d1c53f7ffbef7b96e0","6790928bebf0b969fc839b02","67982629c12147cf2473e87e","passed","","","","","","","","","","","","","","","","","ballFalling","500","453.67114317029973","210.33","5","fallScene","true","","","","","28","",""
"","","","","","html-keyboard-response","135","480418","0.0-18.0-1.3","6643c5d1c53f7ffbef7b96e0","6790928bebf0b969fc839b02","67982629c12147cf2473e87e","passed","","1153","","","","","","","","","","","","","","j","yesOrNo","","","","5","","","lp","3000","","","28","499","151"
"","","","","","html-keyboard-response","136","481983","0.0-18.0-0.4","6643c5d1c53f7ffbef7b96e0","6790928bebf0b969fc839b02","67982629c12147cf2473e87e","passed","","","","","","","","","","","","","","","","","ballFalling","322.3","379.3711431702997","245.25","1","fallScene","false","","","","","29","",""
"","","","","","html-keyboard-response","137","484998","0.0-18.0-1.4","6643c5d1c53f7ffbef7b96e0","6790928bebf0b969fc839b02","67982629c12147cf2473e87e","passed","","670","","","","","","","","","","","","","","f","yesOrNo","","","","1","","","mid","3000","","","29","390.27114317029975","300"
"","","","","","html-keyboard-response","138","486999","0.0-18.0-0.5","6643c5d1c53f7ffbef7b96e0","6790928bebf0b969fc839b02","67982629c12147cf2473e87e","passed","","","","","","","","","","","","","","","","","ballFalling","604.4000000000001","596.8711431702998","394.5","10","fallScene","true","","","","","30","",""
"","","","","","html-keyboard-response","139","490013","0.0-18.0-1.5","6643c5d1c53f7ffbef7b96e0","6790928bebf0b969fc839b02","67982629c12147cf2473e87e","passed","","800","","","","","","","","","","","","","","j","yesOrNo","","","","10","","","gt","3000","","","30","596.8711431702998","394.5"
"","","","","","html-keyboard-response","140","491500","0.0-18.0-0.6","6643c5d1c53f7ffbef7b96e0","6790928bebf0b969fc839b02","67982629c12147cf2473e87e","passed","","","","","","","","","","","","","","","","","ballFalling","604.4000000000001","667.6211431702998","201.78","9","fallScene","false","","","","","31","",""
"","","","","","html-keyboard-response","141","494513","0.0-18.0-1.6","6643c5d1c53f7ffbef7b96e0","6790928bebf0b969fc839b02","67982629c12147cf2473e87e","passed","","1399","","","","","","","","","","","","","","j","yesOrNo","","","","9","","","mid","3000","","","31","605.4000000000001","300"
"","","","","","html-keyboard-response","142","496063","0.0-18.0-0.7","6643c5d1c53f7ffbef7b96e0","6790928bebf0b969fc839b02","67982629c12147cf2473e87e","passed","","","","","","","","","","","","","","","","","ballFalling","322.3","356.42114317029973","357.87","4","fallScene","true","","","","","32","",""
"","","","","","html-keyboard-response","143","499080","0.0-18.0-1.7","6643c5d1c53f7ffbef7b96e0","6790928bebf0b969fc839b02","67982629c12147cf2473e87e","passed","","1510","","","","","","","","","","","","","","f","yesOrNo","","","","4","","","mid","3000","","","32","390.27114317029975","300"
"","","","","","html-keyboard-response","144","500661","0.0-18.0-0.8","6643c5d1c53f7ffbef7b96e0","6790928bebf0b969fc839b02","67982629c12147cf2473e87e","passed","","","","","","","","","","","","","","","","","ballFalling","322.3","356.42114317029973","357.87","4","fallScene","false","","","","","33","",""
"","","","","","html-keyboard-response","145","503663","0.0-18.0-1.8","6643c5d1c53f7ffbef7b96e0","6790928bebf0b969fc839b02","67982629c12147cf2473e87e","passed","","660","","","","","","","","","","","","","","j","yesOrNo","","","","4","","","gt","3000","","","33","356.42114317029973","357.87"
"","","","","","html-keyboard-response","146","505213","0.0-18.0-0.9","6643c5d1c53f7ffbef7b96e0","6790928bebf0b969fc839b02","67982629c12147cf2473e87e","passed","","","","","","","","","","","","","","","","","ballFalling","322.3","379.3711431702997","245.25","1","fallScene","false","","","","","34","",""
"","","","","","html-keyboard-response","147","508216","0.0-18.0-1.9","6643c5d1c53f7ffbef7b96e0","6790928bebf0b969fc839b02","67982629c12147cf2473e87e","passed","","966","","","","","","","","","","","","","","f","yesOrNo","","","","1","","","lp","3000","","","34","323.3","217.74551669457017"
"","","","","","html-keyboard-response","148","509782","0.0-18.0-0.10","6643c5d1c53f7ffbef7b96e0","6790928bebf0b969fc839b02","67982629c12147cf2473e87e","passed","","","","","","","","","","","","","","","","","ballFalling","604.4000000000001","650.0211431702996","404.58000000000004","11","fallScene","false","","","","","35","",""
"","","","","","html-keyboard-response","149","512796","0.0-18.0-1.10","6643c5d1c53f7ffbef7b96e0","6790928bebf0b969fc839b02","67982629c12147cf2473e87e","passed","","967","","","","","","","","","","","","","","j","yesOrNo","","","","11","","","lp","3000","","","35","605.4000000000001","372.6340973215488"
"","","","","","html-keyboard-response","150","514580","0.0-18.0-0.11","6643c5d1c53f7ffbef7b96e0","6790928bebf0b969fc839b02","67982629c12147cf2473e87e","passed","","","","","","","","","","","","","","","","","ballFalling","322.3","308.07114317029976","253.89","2","fallScene","false","","","","","36","",""
"","","","","","html-keyboard-response","151","517596","0.0-18.0-1.11","6643c5d1c53f7ffbef7b96e0","6790928bebf0b969fc839b02","67982629c12147cf2473e87e","passed","","1324","","","","","","","","","","","","","","f","yesOrNo","","","","2","","","lp","3000","","","36","321.3","151"
"","","","","","html-keyboard-response","152","519380","0.0-18.0-0.12","6643c5d1c53f7ffbef7b96e0","6790928bebf0b969fc839b02","67982629c12147cf2473e87e","passed","","","","","","","","","","","","","","","","","ballFalling","322.3","308.07114317029976","253.89","2","fallScene","true","","","","","37","",""
"","","","","","html-keyboard-response","153","522382","0.0-18.0-1.12","6643c5d1c53f7ffbef7b96e0","6790928bebf0b969fc839b02","67982629c12147cf2473e87e","passed","","984","","","","","","","","","","","","","","f","yesOrNo","","","","2","","","lp","3000","","","37","321.3","151"
"","","","","","html-keyboard-response","154","524396","0.0-18.0-0.13","6643c5d1c53f7ffbef7b96e0","6790928bebf0b969fc839b02","67982629c12147cf2473e87e","passed","","","","","","","","","","","","","","","","","ballFalling","604.4000000000001","596.8711431702998","394.5","10","fallScene","true","","","","","38","",""
"","","","","","html-keyboard-response","155","527412","0.0-18.0-1.13","6643c5d1c53f7ffbef7b96e0","6790928bebf0b969fc839b02","67982629c12147cf2473e87e","passed","","620","","","","","","","","","","","","","","j","yesOrNo","","","","10","","","lp","3000","","","38","603.4000000000001","215.50214355555383"
"","","","","","html-keyboard-response","156","528963","0.0-18.0-0.14","6643c5d1c53f7ffbef7b96e0","6790928bebf0b969fc839b02","67982629c12147cf2473e87e","passed","","","","","","","","","","","","","","","","","ballFalling","604.4000000000001","575.4211431702997","266.76","12","fallScene","true","","","","","39","",""
"","","","","","html-keyboard-response","157","531979","0.0-18.0-1.14","6643c5d1c53f7ffbef7b96e0","6790928bebf0b969fc839b02","67982629c12147cf2473e87e","passed","","773","","","","","","","","","","","","","","f","yesOrNo","","","","12","","","mid","3000","","","39","536.4288568297004","300"
"","","","","","html-keyboard-response","158","533464","0.0-18.0-0.15","6643c5d1c53f7ffbef7b96e0","6790928bebf0b969fc839b02","67982629c12147cf2473e87e","passed","","","","","","","","","","","","","","","","","ballFalling","604.4000000000001","667.6211431702998","201.78","9","fallScene","false","","","","","40","",""
"","","","","","html-keyboard-response","159","536480","0.0-18.0-1.15","6643c5d1c53f7ffbef7b96e0","6790928bebf0b969fc839b02","67982629c12147cf2473e87e","passed","","1174","","","","","","","","","","","","","","f","yesOrNo","","","","9","","","gt","3000","","","40","667.6211431702998","201.78"
"","","","","","html-keyboard-response","160","538146","0.0-18.0-0.16","6643c5d1c53f7ffbef7b96e0","6790928bebf0b969fc839b02","67982629c12147cf2473e87e","passed","","","","","","","","","","","","","","","","","ballFalling","500","479.92114317029973","330.87","6","fallScene","true","","","","","41","",""
"","","","","","html-keyboard-response","161","541161","0.0-18.0-1.16","6643c5d1c53f7ffbef7b96e0","6790928bebf0b969fc839b02","67982629c12147cf2473e87e","passed","","1190","","","","","","","","","","","","","","j","yesOrNo","","","","6","","","lp","3000","","","41","499","189.92909825697632"
"","","","","","html-keyboard-response","162","542826","0.0-18.0-0.17","6643c5d1c53f7ffbef7b96e0","6790928bebf0b969fc839b02","67982629c12147cf2473e87e","passed","","","","","","","","","","","","","","","","","ballFalling","500","479.92114317029973","330.87","6","fallScene","true","","","","","42","",""
"","","","","","html-keyboard-response","163","545830","0.0-18.0-1.17","6643c5d1c53f7ffbef7b96e0","6790928bebf0b969fc839b02","67982629c12147cf2473e87e","passed","","526","","","","","","","","","","","","","","j","yesOrNo","","","","6","","","gt","3000","","","42","479.9211431702998","330.87"
"","","","","","html-keyboard-response","164","547329","0.0-18.0-0.18","6643c5d1c53f7ffbef7b96e0","6790928bebf0b969fc839b02","67982629c12147cf2473e87e","passed","","","","","","","","","","","","","","","","","ballFalling","604.4000000000001","667.6211431702998","201.78","9","fallScene","true","","","","","43","",""
"","","","","","html-keyboard-response","165","550332","0.0-18.0-1.18","6643c5d1c53f7ffbef7b96e0","6790928bebf0b969fc839b02","67982629c12147cf2473e87e","passed","","678","","","","","","","","","","","","","","f","yesOrNo","","","","9","","","lp","3000","","","43","605.4000000000001","151"
"","","","","","html-keyboard-response","166","551896","0.0-18.0-0.19","6643c5d1c53f7ffbef7b96e0","6790928bebf0b969fc839b02","67982629c12147cf2473e87e","passed","","","","","","","","","","","","","","","","","ballFalling","322.3","296.07114317029976","371.46","3","fallScene","false","","","","","44","",""
"","","","","","html-keyboard-response","167","554913","0.0-18.0-1.19","6643c5d1c53f7ffbef7b96e0","6790928bebf0b969fc839b02","67982629c12147cf2473e87e","passed","","882","","","","","","","","","","","","","","j","yesOrNo","","","","3","","","lp","3000","","","44","321.3","287.3327096511259"
"","","","","","html-keyboard-response","168","556480","0.0-18.0-0.20","6643c5d1c53f7ffbef7b96e0","6790928bebf0b969fc839b02","67982629c12147cf2473e87e","passed","","","","","","","","","","","","","","","","","ballFalling","604.4000000000001","575.4211431702997","266.76","12","fallScene","true","","","","","45","",""
"","","","","","html-keyboard-response","169","559497","0.0-18.0-1.20","6643c5d1c53f7ffbef7b96e0","6790928bebf0b969fc839b02","67982629c12147cf2473e87e","passed","","1044","","","","","","","","","","","","","","f","yesOrNo","","","","12","","","lp","3000","","","45","603.4000000000001","151"
"","","","","","html-keyboard-response","170","560995","0.0-18.0-0.21","6643c5d1c53f7ffbef7b96e0","6790928bebf0b969fc839b02","67982629c12147cf2473e87e","passed","","","","","","","","","","","","","","","","","ballFalling","604.4000000000001","667.6211431702998","201.78","9","fallScene","true","","","","","46","",""
"","","","","","html-keyboard-response","171","563998","0.0-18.0-1.21","6643c5d1c53f7ffbef7b96e0","6790928bebf0b969fc839b02","67982629c12147cf2473e87e","passed","","1374","","","","","","","","","","","","","","j","yesOrNo","","","","9","","","gt","3000","","","46","667.6211431702998","201.78"
"","","","","","html-keyboard-response","172","566013","0.0-18.0-0.22","6643c5d1c53f7ffbef7b96e0","6790928bebf0b969fc839b02","67982629c12147cf2473e87e","passed","","","","","","","","","","","","","","","","","ballFalling","500","510.8711431702997","369.03","8","fallScene","true","","","","","47","",""
"","","","","","html-keyboard-response","173","569028","0.0-18.0-1.22","6643c5d1c53f7ffbef7b96e0","6790928bebf0b969fc839b02","67982629c12147cf2473e87e","passed","","780","","","","","","","","","","","","","","j","yesOrNo","","","","8","","","gt","3000","","","47","510.8711431702997","369.03"
"","","","","","html-keyboard-response","174","570596","0.0-18.0-0.23","6643c5d1c53f7ffbef7b96e0","6790928bebf0b969fc839b02","67982629c12147cf2473e87e","passed","","","","","","","","","","","","","","","","","ballFalling","322.3","379.3711431702997","245.25","1","fallScene","true","","","","","48","",""
"","","","","","html-keyboard-response","175","573608","0.0-18.0-1.23","6643c5d1c53f7ffbef7b96e0","6790928bebf0b969fc839b02","67982629c12147cf2473e87e","passed","","1736","","","","","","","","","","","","","","j","yesOrNo","","","","1","","","gt","3000","","","48","379.3711431702997","245.25"
"","","","","","html-keyboard-response","176","574867","0.0-19.0","6643c5d1c53f7ffbef7b96e0","6790928bebf0b969fc839b02","67982629c12147cf2473e87e","passed","","1258","","","","","","","","","","","","","<p><span style=""font-size:40px;"">BLOCK 3</span></p><p><span style=""font-size:25px;"">You have <b style=""color: #FF644F;""><strong>3 second(s)</strong></b> to respond to the following trials.</span><br></p><p></p> <!-- Blank line -->
                <p id=""blinking-text"" style=""font-weight; animation: blink 2s infinite;"">Press Space to continue</p>
                <style>
                    @keyframes blink {
                        50% {
                            opacity: 0;
                        }
                    }
                </style></p>"," ","","","","","","","","","","","","","",""
"","","","","","html-keyboard-response","177","576428","0.0-20.0-0.0","6643c5d1c53f7ffbef7b96e0","6790928bebf0b969fc839b02","67982629c12147cf2473e87e","passed","","","","","","","","","","","","","","","","","ballFalling","500","453.67114317029973","210.33","5","fallScene","false","","","","","49","",""
"","","","","","html-keyboard-response","178","579443","0.0-20.0-1.0","6643c5d1c53f7ffbef7b96e0","6790928bebf0b969fc839b02","67982629c12147cf2473e87e","passed","","676","","","","","","","","","","","","","","j","yesOrNo","","","","5","","","gt","3000","","","49","453.6711431702998","210.33"
"","","","","","html-keyboard-response","179","581458","0.0-20.0-0.1","6643c5d1c53f7ffbef7b96e0","6790928bebf0b969fc839b02","67982629c12147cf2473e87e","passed","","","","","","","","","","","","","","","","","ballFalling","500","510.8711431702997","369.03","8","fallScene","false","","","","","50","",""
"","","","","","html-keyboard-response","180","584461","0.0-20.0-1.1","6643c5d1c53f7ffbef7b96e0","6790928bebf0b969fc839b02","67982629c12147cf2473e87e","passed","","897","","","","","","","","","","","","","","f","yesOrNo","","","","8","","","lp","3000","","","50","501","151"
"","","","","","html-keyboard-response","181","586263","0.0-20.0-0.2","6643c5d1c53f7ffbef7b96e0","6790928bebf0b969fc839b02","67982629c12147cf2473e87e","passed","","","","","","","","","","","","","","","","","ballFalling","322.3","308.07114317029976","253.89","2","fallScene","true","","","","","51","",""
"","","","","","html-keyboard-response","182","589277","0.0-20.0-1.2","6643c5d1c53f7ffbef7b96e0","6790928bebf0b969fc839b02","67982629c12147cf2473e87e","passed","","550","","","","","","","","","","","","","","j","yesOrNo","","","","2","","","gt","3000","","","51","308.07114317029976","253.89"
"","","","","","html-keyboard-response","183","590845","0.0-20.0-0.3","6643c5d1c53f7ffbef7b96e0","6790928bebf0b969fc839b02","67982629c12147cf2473e87e","passed","","","","","","","","","","","","","","","","","ballFalling","322.3","296.07114317029976","371.46","3","fallScene","true","","","","","52","",""
"","","","","","html-keyboard-response","184","593862","0.0-20.0-1.3","6643c5d1c53f7ffbef7b96e0","6790928bebf0b969fc839b02","67982629c12147cf2473e87e","passed","","476","","","","","","","","","","","","","","j","yesOrNo","","","","3","","","gt","3000","","","52","296.07114317029976","371.46"
"","","","","","html-keyboard-response","185","595428","0.0-20.0-0.4","6643c5d1c53f7ffbef7b96e0","6790928bebf0b969fc839b02","67982629c12147cf2473e87e","passed","","","","","","","","","","","","","","","","","ballFalling","500","453.67114317029973","210.33","5","fallScene","false","","","","","53","",""
"","","","","","html-keyboard-response","186","598444","0.0-20.0-1.4","6643c5d1c53f7ffbef7b96e0","6790928bebf0b969fc839b02","67982629c12147cf2473e87e","passed","","953","","","","","","","","","","","","","","f","yesOrNo","","","","5","","","mid","3000","","","53","499","300"
"","","","","","html-keyboard-response","187","600461","0.0-20.0-0.5","6643c5d1c53f7ffbef7b96e0","6790928bebf0b969fc839b02","67982629c12147cf2473e87e","passed","","","","","","","","","","","","","","","","","ballFalling","500","510.8711431702997","369.03","8","fallScene","true","","","","","54","",""
"","","","","","html-keyboard-response","188","603476","0.0-20.0-1.5","6643c5d1c53f7ffbef7b96e0","6790928bebf0b969fc839b02","67982629c12147cf2473e87e","passed","","592","","","","","","","","","","","","","","j","yesOrNo","","","","8","","","mid","3000","","","54","501","300"
"","","","","","html-keyboard-response","189","605128","0.0-20.0-0.6","6643c5d1c53f7ffbef7b96e0","6790928bebf0b969fc839b02","67982629c12147cf2473e87e","passed","","","","","","","","","","","","","","","","","ballFalling","500","479.92114317029973","330.87","6","fallScene","true","","","","","55","",""
"","","","","","html-keyboard-response","190","608140","0.0-20.0-1.6","6643c5d1c53f7ffbef7b96e0","6790928bebf0b969fc839b02","67982629c12147cf2473e87e","passed","","617","","","","","","","","","","","","","","j","yesOrNo","","","","6","","","mid","3000","","","55","499","300"
"","","","","","html-keyboard-response","191","609927","0.0-20.0-0.7","6643c5d1c53f7ffbef7b96e0","6790928bebf0b969fc839b02","67982629c12147cf2473e87e","passed","","","","","","","","","","","","","","","","","ballFalling","322.3","308.07114317029976","253.89","2","fallScene","true","","","","","56","",""
"","","","","","html-keyboard-response","192","612930","0.0-20.0-1.7","6643c5d1c53f7ffbef7b96e0","6790928bebf0b969fc839b02","67982629c12147cf2473e87e","passed","","651","","","","","","","","","","","","","","j","yesOrNo","","","","2","","","mid","3000","","","56","321.3","300"
"","","","","","html-keyboard-response","193","614943","0.0-20.0-0.8","6643c5d1c53f7ffbef7b96e0","6790928bebf0b969fc839b02","67982629c12147cf2473e87e","passed","","","","","","","","","","","","","","","","","ballFalling","604.4000000000001","596.8711431702998","394.5","10","fallScene","true","","","","","57","",""
"","","","","","html-keyboard-response","194","617957","0.0-20.0-1.8","6643c5d1c53f7ffbef7b96e0","6790928bebf0b969fc839b02","67982629c12147cf2473e87e","passed","","936","","","","","","","","","","","","","","f","yesOrNo","","","","10","","","gt","3000","","","57","596.8711431702998","394.5"
"","","","","","html-keyboard-response","195","619607","0.0-20.0-0.9","6643c5d1c53f7ffbef7b96e0","6790928bebf0b969fc839b02","67982629c12147cf2473e87e","passed","","","","","","","","","","","","","","","","","ballFalling","500","479.92114317029973","330.87","6","fallScene","false","","","","","58","",""
"","","","","","html-keyboard-response","196","622609","0.0-20.0-1.9","6643c5d1c53f7ffbef7b96e0","6790928bebf0b969fc839b02","67982629c12147cf2473e87e","passed","","959","","","","","","","","","","","","","","f","yesOrNo","","","","6","","","lp","3000","","","58","499","189.92909825697632"
"","","","","","html-keyboard-response","197","624177","0.0-20.0-0.10","6643c5d1c53f7ffbef7b96e0","6790928bebf0b969fc839b02","67982629c12147cf2473e87e","passed","","","","","","","","","","","","","","","","","ballFalling","322.3","379.3711431702997","245.25","1","fallScene","true","","","","","59","",""
"","","","","","html-keyboard-response","198","627188","0.0-20.0-1.10","6643c5d1c53f7ffbef7b96e0","6790928bebf0b969fc839b02","67982629c12147cf2473e87e","passed","","400","","","","","","","","","","","","","","j","yesOrNo","","","","1","","","gt","3000","","","59","379.3711431702997","245.25"
"","","","","","html-keyboard-response","199","628756","0.0-20.0-0.11","6643c5d1c53f7ffbef7b96e0","6790928bebf0b969fc839b02","67982629c12147cf2473e87e","passed","","","","","","","","","","","","","","","","","ballFalling","604.4000000000001","650.0211431702996","404.58000000000004","11","fallScene","false","","","","","60","",""
"","","","","","html-keyboard-response","200","631758","0.0-20.0-1.11","6643c5d1c53f7ffbef7b96e0","6790928bebf0b969fc839b02","67982629c12147cf2473e87e","passed","","636","","","","","","","","","","","","","","j","yesOrNo","","","","11","","","lp","3000","","","60","605.4000000000001","372.6340973215488"
"","","","","","html-keyboard-response","201","633327","0.0-20.0-0.12","6643c5d1c53f7ffbef7b96e0","6790928bebf0b969fc839b02","67982629c12147cf2473e87e","passed","","","","","","","","","","","","","","","","","ballFalling","604.4000000000001","575.4211431702997","266.76","12","fallScene","false","","","","","61","",""
"","","","","","html-keyboard-response","202","636340","0.0-20.0-1.12","6643c5d1c53f7ffbef7b96e0","6790928bebf0b969fc839b02","67982629c12147cf2473e87e","passed","","508","","","","","","","","","","","","","","j","yesOrNo","","","","12","","","gt","3000","","","61","575.4211431702997","266.76"
"","","","","","html-keyboard-response","203","637909","0.0-20.0-0.13","6643c5d1c53f7ffbef7b96e0","6790928bebf0b969fc839b02","67982629c12147cf2473e87e","passed","","","","","","","","","","","","","","","","","ballFalling","604.4000000000001","650.0211431702996","404.58000000000004","11","fallScene","false","","","","","62","",""
"","","","","","html-keyboard-response","204","640924","0.0-20.0-1.13","6643c5d1c53f7ffbef7b96e0","6790928bebf0b969fc839b02","67982629c12147cf2473e87e","passed","","824","","","","","","","","","","","","","","j","yesOrNo","","","","11","","","mid","3000","","","62","605.4000000000001","300"
"","","","","","html-keyboard-response","205","642492","0.0-20.0-0.14","6643c5d1c53f7ffbef7b96e0","6790928bebf0b969fc839b02","67982629c12147cf2473e87e","passed","","","","","","","","","","","","","","","","","ballFalling","500","553.4711431702997","282.51","7","fallScene","false","","","","","63","",""
"","","","","","html-keyboard-response","206","645495","0.0-20.0-1.14","6643c5d1c53f7ffbef7b96e0","6790928bebf0b969fc839b02","67982629c12147cf2473e87e","passed","","1341","","","","","","","","","","","","","","f","yesOrNo","","","","7","","","gt","3000","","","63","553.4711431702997","282.51"
"","","","","","html-keyboard-response","207","647059","0.0-20.0-0.15","6643c5d1c53f7ffbef7b96e0","6790928bebf0b969fc839b02","67982629c12147cf2473e87e","passed","","","","","","","","","","","","","","","","","ballFalling","604.4000000000001","650.0211431702996","404.58000000000004","11","fallScene","true","","","","","64","",""
"","","","","","html-keyboard-response","208","650072","0.0-20.0-1.15","6643c5d1c53f7ffbef7b96e0","6790928bebf0b969fc839b02","67982629c12147cf2473e87e","passed","","556","","","","","","","","","","","","","","j","yesOrNo","","","","11","","","mid","3000","","","64","605.4000000000001","300"
"","","","","","html-keyboard-response","209","651625","0.0-20.0-0.16","6643c5d1c53f7ffbef7b96e0","6790928bebf0b969fc839b02","67982629c12147cf2473e87e","passed","","","","","","","","","","","","","","","","","ballFalling","500","453.67114317029973","210.33","5","fallScene","true","","","","","65","",""
"","","","","","html-keyboard-response","210","654640","0.0-20.0-1.16","6643c5d1c53f7ffbef7b96e0","6790928bebf0b969fc839b02","67982629c12147cf2473e87e","passed","","919","","","","","","","","","","","","","","j","yesOrNo","","","","5","","","gt","3000","","","65","453.6711431702998","210.33"
"","","","","","html-keyboard-response","211","656223","0.0-20.0-0.17","6643c5d1c53f7ffbef7b96e0","6790928bebf0b969fc839b02","67982629c12147cf2473e87e","passed","","","","","","","","","","","","","","","","","ballFalling","500","553.4711431702997","282.51","7","fallScene","true","","","","","66","",""
"","","","","","html-keyboard-response","212","659225","0.0-20.0-1.17","6643c5d1c53f7ffbef7b96e0","6790928bebf0b969fc839b02","67982629c12147cf2473e87e","passed","","804","","","","","","","","","","","","","","j","yesOrNo","","","","7","","","gt","3000","","","66","553.4711431702997","282.51"
"","","","","","html-keyboard-response","213","660806","0.0-20.0-0.18","6643c5d1c53f7ffbef7b96e0","6790928bebf0b969fc839b02","67982629c12147cf2473e87e","passed","","","","","","","","","","","","","","","","","ballFalling","500","553.4711431702997","282.51","7","fallScene","true","","","","","67","",""
"","","","","","html-keyboard-response","214","663810","0.0-20.0-1.18","6643c5d1c53f7ffbef7b96e0","6790928bebf0b969fc839b02","67982629c12147cf2473e87e","passed","","1069","","","","","","","","","","","","","","f","yesOrNo","","","","7","","","mid","3000","","","67","501","300"
"","","","","","html-keyboard-response","215","665825","0.0-20.0-0.19","6643c5d1c53f7ffbef7b96e0","6790928bebf0b969fc839b02","67982629c12147cf2473e87e","passed","","","","","","","","","","","","","","","","","ballFalling","604.4000000000001","596.8711431702998","394.5","10","fallScene","false","","","","","68","",""
"","","","","","html-keyboard-response","216","668839","0.0-20.0-1.19","6643c5d1c53f7ffbef7b96e0","6790928bebf0b969fc839b02","67982629c12147cf2473e87e","passed","","854","","","","","","","","","","","","","","f","yesOrNo","","","","10","","","mid","3000","","","68","536.4288568297004","300"
"","","","","","html-keyboard-response","217","670491","0.0-20.0-0.20","6643c5d1c53f7ffbef7b96e0","6790928bebf0b969fc839b02","67982629c12147cf2473e87e","passed","","","","","","","","","","","","","","","","","ballFalling","500","479.92114317029973","330.87","6","fallScene","true","","","","","69","",""
"","","","","","html-keyboard-response","218","673504","0.0-20.0-1.20","6643c5d1c53f7ffbef7b96e0","6790928bebf0b969fc839b02","67982629c12147cf2473e87e","passed","","554","","","","","","","","","","","","","","j","yesOrNo","","","","6","","","mid","3000","","","69","499","300"
"","","","","","html-keyboard-response","219","675089","0.0-20.0-0.21","6643c5d1c53f7ffbef7b96e0","6790928bebf0b969fc839b02","67982629c12147cf2473e87e","passed","","","","","","","","","","","","","","","","","ballFalling","500","553.4711431702997","282.51","7","fallScene","true","","","","","70","",""
"","","","","","html-keyboard-response","220","678105","0.0-20.0-1.21","6643c5d1c53f7ffbef7b96e0","6790928bebf0b969fc839b02","67982629c12147cf2473e87e","passed","","604","","","","","","","","","","","","","","j","yesOrNo","","","","7","","","lp","3000","","","70","501","227.2843295913261"
"","","","","","html-keyboard-response","221","679757","0.0-20.0-0.22","6643c5d1c53f7ffbef7b96e0","6790928bebf0b969fc839b02","67982629c12147cf2473e87e","passed","","","","","","","","","","","","","","","","","ballFalling","500","479.92114317029973","330.87","6","fallScene","false","","","","","71","",""
"","","","","","html-keyboard-response","222","682774","0.0-20.0-1.22","6643c5d1c53f7ffbef7b96e0","6790928bebf0b969fc839b02","67982629c12147cf2473e87e","passed","","507","","","","","","","","","","","","","","j","yesOrNo","","","","6","","","gt","3000","","","71","479.9211431702998","330.87"
"","","","","","html-keyboard-response","223","684341","0.0-20.0-0.23","6643c5d1c53f7ffbef7b96e0","6790928bebf0b969fc839b02","67982629c12147cf2473e87e","passed","","","","","","","","","","","","","","","","","ballFalling","322.3","296.07114317029976","371.46","3","fallScene","true","","","","","72","",""
"","","","","","html-keyboard-response","224","687342","0.0-20.0-1.23","6643c5d1c53f7ffbef7b96e0","6790928bebf0b969fc839b02","67982629c12147cf2473e87e","passed","","477","","","","","","","","","","","","","","j","yesOrNo","","","","3","","","gt","3000","","","72","296.07114317029976","371.46"
"","","","","","html-keyboard-response","225","688283","0.0-21.0","6643c5d1c53f7ffbef7b96e0","6790928bebf0b969fc839b02","67982629c12147cf2473e87e","passed","","939","","","","","","","","","","","","","<p><span style=""font-size:40px;"">BLOCK 4</span></p><p><span style=""font-size:25px;"">You have <b style=""color: #FF644F;""><strong>1 second(s)</strong></b> to respond to the following trials.</span><br></p><p></p> <!-- Blank line -->
                <p id=""blinking-text"" style=""font-weight; animation: blink 2s infinite;"">Press Space to continue</p>
                <style>
                    @keyframes blink {
                        50% {
                            opacity: 0;
                        }
                    }
                </style></p>"," ","","","","","","","","","","","","","",""
"","","","","","html-keyboard-response","226","689838","0.0-22.0-0.0","6643c5d1c53f7ffbef7b96e0","6790928bebf0b969fc839b02","67982629c12147cf2473e87e","passed","","","","","","","","","","","","","","","","","ballFalling","322.3","379.3711431702997","245.25","1","fallScene","true","","","","","73","",""
"","","","","","html-keyboard-response","227","690840","0.0-22.0-1.0","6643c5d1c53f7ffbef7b96e0","6790928bebf0b969fc839b02","67982629c12147cf2473e87e","passed","","885","","","","","","","","","","","","","","f","yesOrNo","","","","1","","","mid","1000","","","73","390.27114317029975","300"
"","","","","","html-keyboard-response","228","692338","0.0-22.0-0.1","6643c5d1c53f7ffbef7b96e0","6790928bebf0b969fc839b02","67982629c12147cf2473e87e","passed","","","","","","","","","","","","","","","","","ballFalling","604.4000000000001","667.6211431702998","201.78","9","fallScene","false","","","","","74","",""
"","","","","","html-keyboard-response","229","693341","0.0-22.0-1.1","6643c5d1c53f7ffbef7b96e0","6790928bebf0b969fc839b02","67982629c12147cf2473e87e","passed","","527","","","","","","","","","","","","","","j","yesOrNo","","","","9","","","mid","1000","","","74","605.4000000000001","300"
"","","","","","html-keyboard-response","230","694903","0.0-22.0-0.2","6643c5d1c53f7ffbef7b96e0","6790928bebf0b969fc839b02","67982629c12147cf2473e87e","passed","","","","","","","","","","","","","","","","","ballFalling","322.3","356.42114317029973","357.87","4","fallScene","false","","","","","75","",""
"","","","","","html-keyboard-response","231","695907","0.0-22.0-1.2","6643c5d1c53f7ffbef7b96e0","6790928bebf0b969fc839b02","67982629c12147cf2473e87e","passed","","511","","","","","","","","","","","","","","j","yesOrNo","","","","4","","","lp","1000","","","75","323.3","297.4070551689986"
"","","","","","html-keyboard-response","232","697473","0.0-22.0-0.3","6643c5d1c53f7ffbef7b96e0","6790928bebf0b969fc839b02","67982629c12147cf2473e87e","passed","","","","","","","","","","","","","","","","","ballFalling","322.3","296.07114317029976","371.46","3","fallScene","true","","","","","76","",""
"","","","","","html-keyboard-response","233","698486","0.0-22.0-1.3","6643c5d1c53f7ffbef7b96e0","6790928bebf0b969fc839b02","67982629c12147cf2473e87e","passed","","409","","","","","","","","","","","","","","j","yesOrNo","","","","3","","","gt","1000","","","76","296.07114317029976","371.46"
"","","","","","html-keyboard-response","234","700040","0.0-22.0-0.4","6643c5d1c53f7ffbef7b96e0","6790928bebf0b969fc839b02","67982629c12147cf2473e87e","passed","","","","","","","","","","","","","","","","","ballFalling","604.4000000000001","650.0211431702996","404.58000000000004","11","fallScene","true","","","","","77","",""
"","","","","","html-keyboard-response","235","701055","0.0-22.0-1.4","6643c5d1c53f7ffbef7b96e0","6790928bebf0b969fc839b02","67982629c12147cf2473e87e","passed","","null","","","","","","","","","","","","","","null","yesOrNo","","","","11","","","lp","1000","","","77","605.4000000000001","372.6340973215488"
"","","","","","html-keyboard-response","236","702653","0.0-22.0-0.5","6643c5d1c53f7ffbef7b96e0","6790928bebf0b969fc839b02","67982629c12147cf2473e87e","passed","","","","","","","","","","","","","","","","","ballFalling","500","553.4711431702997","282.51","7","fallScene","true","","","","","78","",""
"","","","","","html-keyboard-response","237","703656","0.0-22.0-1.5","6643c5d1c53f7ffbef7b96e0","6790928bebf0b969fc839b02","67982629c12147cf2473e87e","passed","","429","","","","","","","","","","","","","","j","yesOrNo","","","","7","","","mid","1000","","","78","501","300"
"","","","","","html-keyboard-response","238","705470","0.0-22.0-0.6","6643c5d1c53f7ffbef7b96e0","6790928bebf0b969fc839b02","67982629c12147cf2473e87e","passed","","","","","","","","","","","","","","","","","ballFalling","322.3","308.07114317029976","253.89","2","fallScene","false","","","","","79","",""
"","","","","","html-keyboard-response","239","706473","0.0-22.0-1.6","6643c5d1c53f7ffbef7b96e0","6790928bebf0b969fc839b02","67982629c12147cf2473e87e","passed","","558","","","","","","","","","","","","","","j","yesOrNo","","","","2","","","lp","1000","","","79","321.3","151"
"","","","","","html-keyboard-response","240","708039","0.0-22.0-0.7","6643c5d1c53f7ffbef7b96e0","6790928bebf0b969fc839b02","67982629c12147cf2473e87e","passed","","","","","","","","","","","","","","","","","ballFalling","604.4000000000001","575.4211431702997","266.76","12","fallScene","true","","","","","80","",""
"","","","","","html-keyboard-response","241","709041","0.0-22.0-1.7","6643c5d1c53f7ffbef7b96e0","6790928bebf0b969fc839b02","67982629c12147cf2473e87e","passed","","684","","","","","","","","","","","","","","j","yesOrNo","","","","12","","","gt","1000","","","80","575.4211431702997","266.76"
"","","","","","html-keyboard-response","242","710603","0.0-22.0-0.8","6643c5d1c53f7ffbef7b96e0","6790928bebf0b969fc839b02","67982629c12147cf2473e87e","passed","","","","","","","","","","","","","","","","","ballFalling","322.3","356.42114317029973","357.87","4","fallScene","false","","","","","81","",""
"","","","","","html-keyboard-response","243","711605","0.0-22.0-1.8","6643c5d1c53f7ffbef7b96e0","6790928bebf0b969fc839b02","67982629c12147cf2473e87e","passed","","504","","","","","","","","","","","","","","j","yesOrNo","","","","4","","","gt","1000","","","81","356.42114317029973","357.87"
"","","","","","html-keyboard-response","244","713188","0.0-22.0-0.9","6643c5d1c53f7ffbef7b96e0","6790928bebf0b969fc839b02","67982629c12147cf2473e87e","passed","","","","","","","","","","","","","","","","","ballFalling","500","553.4711431702997","282.51","7","fallScene","false","","","","","82","",""
"","","","","","html-keyboard-response","245","714192","0.0-22.0-1.9","6643c5d1c53f7ffbef7b96e0","6790928bebf0b969fc839b02","67982629c12147cf2473e87e","passed","","729","","","","","","","","","","","","","","f","yesOrNo","","","","7","","","gt","1000","","","82","553.4711431702997","282.51"
"","","","","","html-keyboard-response","246","715757","0.0-22.0-0.10","6643c5d1c53f7ffbef7b96e0","6790928bebf0b969fc839b02","67982629c12147cf2473e87e","passed","","","","","","","","","","","","","","","","","ballFalling","604.4000000000001","575.4211431702997","266.76","12","fallScene","true","","","","","83","",""
"","","","","","html-keyboard-response","247","716768","0.0-22.0-1.10","6643c5d1c53f7ffbef7b96e0","6790928bebf0b969fc839b02","67982629c12147cf2473e87e","passed","","568","","","","","","","","","","","","","","j","yesOrNo","","","","12","","","lp","1000","","","83","603.4000000000001","151"
"","","","","","html-keyboard-response","248","718323","0.0-22.0-0.11","6643c5d1c53f7ffbef7b96e0","6790928bebf0b969fc839b02","67982629c12147cf2473e87e","passed","","","","","","","","","","","","","","","","","ballFalling","322.3","356.42114317029973","357.87","4","fallScene","true","","","","","84","",""
"","","","","","html-keyboard-response","249","719337","0.0-22.0-1.11","6643c5d1c53f7ffbef7b96e0","6790928bebf0b969fc839b02","67982629c12147cf2473e87e","passed","","681","","","","","","","","","","","","","","f","yesOrNo","","","","4","","","lp","1000","","","84","323.3","297.4070551689986"
"","","","","","html-keyboard-response","250","720888","0.0-22.0-0.12","6643c5d1c53f7ffbef7b96e0","6790928bebf0b969fc839b02","67982629c12147cf2473e87e","passed","","","","","","","","","","","","","","","","","ballFalling","322.3","296.07114317029976","371.46","3","fallScene","true","","","","","85","",""
"","","","","","html-keyboard-response","251","721891","0.0-22.0-1.12","6643c5d1c53f7ffbef7b96e0","6790928bebf0b969fc839b02","67982629c12147cf2473e87e","passed","","567","","","","","","","","","","","","","","j","yesOrNo","","","","3","","","mid","1000","","","85","321.3","300"
"","","","","","html-keyboard-response","252","723404","0.0-22.0-0.13","6643c5d1c53f7ffbef7b96e0","6790928bebf0b969fc839b02","67982629c12147cf2473e87e","passed","","","","","","","","","","","","","","","","","ballFalling","604.4000000000001","667.6211431702998","201.78","9","fallScene","true","","","","","86","",""
"","","","","","html-keyboard-response","253","724407","0.0-22.0-1.13","6643c5d1c53f7ffbef7b96e0","6790928bebf0b969fc839b02","67982629c12147cf2473e87e","passed","","722","","","","","","","","","","","","","","f","yesOrNo","","","","9","","","mid","1000","","","86","605.4000000000001","300"
"","","","","","html-keyboard-response","254","726419","0.0-22.0-0.14","6643c5d1c53f7ffbef7b96e0","6790928bebf0b969fc839b02","67982629c12147cf2473e87e","passed","","","","","","","","","","","","","","","","","ballFalling","500","510.8711431702997","369.03","8","fallScene","true","","","","","87","",""
"","","","","","html-keyboard-response","255","727421","0.0-22.0-1.14","6643c5d1c53f7ffbef7b96e0","6790928bebf0b969fc839b02","67982629c12147cf2473e87e","passed","","519","","","","","","","","","","","","","","j","yesOrNo","","","","8","","","gt","1000","","","87","510.8711431702997","369.03"
"","","","","","html-keyboard-response","256","728988","0.0-22.0-0.15","6643c5d1c53f7ffbef7b96e0","6790928bebf0b969fc839b02","67982629c12147cf2473e87e","passed","","","","","","","","","","","","","","","","","ballFalling","322.3","296.07114317029976","371.46","3","fallScene","true","","","","","88","",""
"","","","","","html-keyboard-response","257","730003","0.0-22.0-1.15","6643c5d1c53f7ffbef7b96e0","6790928bebf0b969fc839b02","67982629c12147cf2473e87e","passed","","520","","","","","","","","","","","","","","j","yesOrNo","","","","3","","","mid","1000","","","88","321.3","300"
"","","","","","html-keyboard-response","258","731488","0.0-22.0-0.16","6643c5d1c53f7ffbef7b96e0","6790928bebf0b969fc839b02","67982629c12147cf2473e87e","passed","","","","","","","","","","","","","","","","","ballFalling","604.4000000000001","667.6211431702998","201.78","9","fallScene","false","","","","","89","",""
"","","","","","html-keyboard-response","259","732502","0.0-22.0-1.16","6643c5d1c53f7ffbef7b96e0","6790928bebf0b969fc839b02","67982629c12147cf2473e87e","passed","","703","","","","","","","","","","","","","","f","yesOrNo","","","","9","","","gt","1000","","","89","667.6211431702998","201.78"
"","","","","","html-keyboard-response","260","733987","0.0-22.0-0.17","6643c5d1c53f7ffbef7b96e0","6790928bebf0b969fc839b02","67982629c12147cf2473e87e","passed","","","","","","","","","","","","","","","","","ballFalling","604.4000000000001","667.6211431702998","201.78","9","fallScene","true","","","","","90","",""
"","","","","","html-keyboard-response","261","734990","0.0-22.0-1.17","6643c5d1c53f7ffbef7b96e0","6790928bebf0b969fc839b02","67982629c12147cf2473e87e","passed","","577","","","","","","","","","","","","","","j","yesOrNo","","","","9","","","gt","1000","","","90","667.6211431702998","201.78"
"","","","","","html-keyboard-response","262","736555","0.0-22.0-0.18","6643c5d1c53f7ffbef7b96e0","6790928bebf0b969fc839b02","67982629c12147cf2473e87e","passed","","","","","","","","","","","","","","","","","ballFalling","604.4000000000001","650.0211431702996","404.58000000000004","11","fallScene","true","","","","","91","",""
"","","","","","html-keyboard-response","263","737567","0.0-22.0-1.18","6643c5d1c53f7ffbef7b96e0","6790928bebf0b969fc839b02","67982629c12147cf2473e87e","passed","","589","","","","","","","","","","","","","","j","yesOrNo","","","","11","","","gt","1000","","","91","650.0211431702996","404.58"
"","","","","","html-keyboard-response","264","739121","0.0-22.0-0.19","6643c5d1c53f7ffbef7b96e0","6790928bebf0b969fc839b02","67982629c12147cf2473e87e","passed","","","","","","","","","","","","","","","","","ballFalling","500","453.67114317029973","210.33","5","fallScene","true","","","","","92","",""
"","","","","","html-keyboard-response","265","740124","0.0-22.0-1.19","6643c5d1c53f7ffbef7b96e0","6790928bebf0b969fc839b02","67982629c12147cf2473e87e","passed","","436","","","","","","","","","","","","","","j","yesOrNo","","","","5","","","mid","1000","","","92","499","300"
"","","","","","html-keyboard-response","266","741690","0.0-22.0-0.20","6643c5d1c53f7ffbef7b96e0","6790928bebf0b969fc839b02","67982629c12147cf2473e87e","passed","","","","","","","","","","","","","","","","","ballFalling","322.3","356.42114317029973","357.87","4","fallScene","false","","","","","93","",""
"","","","","","html-keyboard-response","267","742704","0.0-22.0-1.20","6643c5d1c53f7ffbef7b96e0","6790928bebf0b969fc839b02","67982629c12147cf2473e87e","passed","","724","","","","","","","","","","","","","","f","yesOrNo","","","","4","","","mid","1000","","","93","390.27114317029975","300"
"","","","","","html-keyboard-response","268","744721","0.0-22.0-0.21","6643c5d1c53f7ffbef7b96e0","6790928bebf0b969fc839b02","67982629c12147cf2473e87e","passed","","","","","","","","","","","","","","","","","ballFalling","604.4000000000001","596.8711431702998","394.5","10","fallScene","false","","","","","94","",""
"","","","","","html-keyboard-response","269","745738","0.0-22.0-1.21","6643c5d1c53f7ffbef7b96e0","6790928bebf0b969fc839b02","67982629c12147cf2473e87e","passed","","653","","","","","","","","","","","","","","j","yesOrNo","","","","10","","","gt","1000","","","94","596.8711431702998","394.5"
"","","","","","html-keyboard-response","270","747304","0.0-22.0-0.22","6643c5d1c53f7ffbef7b96e0","6790928bebf0b969fc839b02","67982629c12147cf2473e87e","passed","","","","","","","","","","","","","","","","","ballFalling","322.3","356.42114317029973","357.87","4","fallScene","false","","","","","95","",""
"","","","","","html-keyboard-response","271","748319","0.0-22.0-1.22","6643c5d1c53f7ffbef7b96e0","6790928bebf0b969fc839b02","67982629c12147cf2473e87e","passed","","719","","","","","","","","","","","","","","f","yesOrNo","","","","4","","","mid","1000","","","95","390.27114317029975","300"
"","","","","","html-keyboard-response","272","749885","0.0-22.0-0.23","6643c5d1c53f7ffbef7b96e0","6790928bebf0b969fc839b02","67982629c12147cf2473e87e","passed","","","","","","","","","","","","","","","","","ballFalling","322.3","296.07114317029976","371.46","3","fallScene","false","","","","","96","",""
"","","","","","html-keyboard-response","273","750887","0.0-22.0-1.23","6643c5d1c53f7ffbef7b96e0","6790928bebf0b969fc839b02","67982629c12147cf2473e87e","passed","","607","","","","","","","","","","","","","","f","yesOrNo","","","","3","","","lp","1000","","","96","321.3","287.3327096511259"
"","","","","","html-keyboard-response","274","751778","0.0-23.0","6643c5d1c53f7ffbef7b96e0","6790928bebf0b969fc839b02","67982629c12147cf2473e87e","passed","","889","","","","","","","","","","","","","<p><span style=""font-size:40px;"">BLOCK 5</span></p><p><span style=""font-size:25px;"">You have <b style=""color: #FF644F;""><strong>1 second(s)</strong></b> to respond to the following trials.</span><br></p><p></p> <!-- Blank line -->
                <p id=""blinking-text"" style=""font-weight; animation: blink 2s infinite;"">Press Space to continue</p>
                <style>
                    @keyframes blink {
                        50% {
                            opacity: 0;
                        }
                    }
                </style></p>"," ","","","","","","","","","","","","","",""
"","","","","","html-keyboard-response","275","753572","0.0-24.0-0.0","6643c5d1c53f7ffbef7b96e0","6790928bebf0b969fc839b02","67982629c12147cf2473e87e","passed","","","","","","","","","","","","","","","","","ballFalling","322.3","308.07114317029976","253.89","2","fallScene","true","","","","","97","",""
"","","","","","html-keyboard-response","276","754587","0.0-24.0-1.0","6643c5d1c53f7ffbef7b96e0","6790928bebf0b969fc839b02","67982629c12147cf2473e87e","passed","","608","","","","","","","","","","","","","","j","yesOrNo","","","","2","","","gt","1000","","","97","308.07114317029976","253.89"
"","","","","","html-keyboard-response","277","756603","0.0-24.0-0.1","6643c5d1c53f7ffbef7b96e0","6790928bebf0b969fc839b02","67982629c12147cf2473e87e","passed","","","","","","","","","","","","","","","","","ballFalling","500","510.8711431702997","369.03","8","fallScene","false","","","","","98","",""
"","","","","","html-keyboard-response","278","757619","0.0-24.0-1.1","6643c5d1c53f7ffbef7b96e0","6790928bebf0b969fc839b02","67982629c12147cf2473e87e","passed","","null","","","","","","","","","","","","","","null","yesOrNo","","","","8","","","lp","1000","","","98","501","151"
"","","","","","html-keyboard-response","279","759271","0.0-24.0-0.2","6643c5d1c53f7ffbef7b96e0","6790928bebf0b969fc839b02","67982629c12147cf2473e87e","passed","","","","","","","","","","","","","","","","","ballFalling","500","479.92114317029973","330.87","6","fallScene","true","","","","","99","",""
"","","","","","html-keyboard-response","280","760287","0.0-24.0-1.2","6643c5d1c53f7ffbef7b96e0","6790928bebf0b969fc839b02","67982629c12147cf2473e87e","passed","","666","","","","","","","","","","","","","","j","yesOrNo","","","","6","","","gt","1000","","","99","479.9211431702998","330.87"
"","","","","","html-keyboard-response","281","761953","0.0-24.0-0.3","6643c5d1c53f7ffbef7b96e0","6790928bebf0b969fc839b02","67982629c12147cf2473e87e","passed","","","","","","","","","","","","","","","","","ballFalling","500","479.92114317029973","330.87","6","fallScene","true","","","","","100","",""
"","","","","","html-keyboard-response","282","762956","0.0-24.0-1.3","6643c5d1c53f7ffbef7b96e0","6790928bebf0b969fc839b02","67982629c12147cf2473e87e","passed","","468","","","","","","","","","","","","","","j","yesOrNo","","","","6","","","gt","1000","","","100","479.9211431702998","330.87"
"","","","","","html-keyboard-response","283","764453","0.0-24.0-0.4","6643c5d1c53f7ffbef7b96e0","6790928bebf0b969fc839b02","67982629c12147cf2473e87e","passed","","","","","","","","","","","","","","","","","ballFalling","604.4000000000001","667.6211431702998","201.78","9","fallScene","true","","","","","101","",""
"","","","","","html-keyboard-response","284","765468","0.0-24.0-1.4","6643c5d1c53f7ffbef7b96e0","6790928bebf0b969fc839b02","67982629c12147cf2473e87e","passed","","673","","","","","","","","","","","","","","f","yesOrNo","","","","9","","","lp","1000","","","101","605.4000000000001","151"
"","","","","","html-keyboard-response","285","767252","0.0-24.0-0.5","6643c5d1c53f7ffbef7b96e0","6790928bebf0b969fc839b02","67982629c12147cf2473e87e","passed","","","","","","","","","","","","","","","","","ballFalling","322.3","308.07114317029976","253.89","2","fallScene","false","","","","","102","",""
"","","","","","html-keyboard-response","286","768254","0.0-24.0-1.5","6643c5d1c53f7ffbef7b96e0","6790928bebf0b969fc839b02","67982629c12147cf2473e87e","passed","","640","","","","","","","","","","","","","","j","yesOrNo","","","","2","","","mid","1000","","","102","321.3","300"
"","","","","","html-keyboard-response","287","769849","0.0-24.0-0.6","6643c5d1c53f7ffbef7b96e0","6790928bebf0b969fc839b02","67982629c12147cf2473e87e","passed","","","","","","","","","","","","","","","","","ballFalling","500","553.4711431702997","282.51","7","fallScene","true","","","","","103","",""
"","","","","","html-keyboard-response","288","770850","0.0-24.0-1.6","6643c5d1c53f7ffbef7b96e0","6790928bebf0b969fc839b02","67982629c12147cf2473e87e","passed","","null","","","","","","","","","","","","","","null","yesOrNo","","","","7","","","gt","1000","","","103","553.4711431702997","282.51"
"","","","","","html-keyboard-response","289","772852","0.0-24.0-0.7","6643c5d1c53f7ffbef7b96e0","6790928bebf0b969fc839b02","67982629c12147cf2473e87e","passed","","","","","","","","","","","","","","","","","ballFalling","604.4000000000001","596.8711431702998","394.5","10","fallScene","false","","","","","104","",""
"","","","","","html-keyboard-response","290","773857","0.0-24.0-1.7","6643c5d1c53f7ffbef7b96e0","6790928bebf0b969fc839b02","67982629c12147cf2473e87e","passed","","538","","","","","","","","","","","","","","j","yesOrNo","","","","10","","","mid","1000","","","104","536.4288568297004","300"
"","","","","","html-keyboard-response","291","775666","0.0-24.0-0.8","6643c5d1c53f7ffbef7b96e0","6790928bebf0b969fc839b02","67982629c12147cf2473e87e","passed","","","","","","","","","","","","","","","","","ballFalling","322.3","308.07114317029976","253.89","2","fallScene","true","","","","","105","",""
"","","","","","html-keyboard-response","292","776670","0.0-24.0-1.8","6643c5d1c53f7ffbef7b96e0","6790928bebf0b969fc839b02","67982629c12147cf2473e87e","passed","","null","","","","","","","","","","","","","","null","yesOrNo","","","","2","","","lp","1000","","","105","321.3","151"
"","","","","","html-keyboard-response","293","778351","0.0-24.0-0.9","6643c5d1c53f7ffbef7b96e0","6790928bebf0b969fc839b02","67982629c12147cf2473e87e","passed","","","","","","","","","","","","","","","","","ballFalling","500","479.92114317029973","330.87","6","fallScene","false","","","","","106","",""
"","","","","","html-keyboard-response","294","779355","0.0-24.0-1.9","6643c5d1c53f7ffbef7b96e0","6790928bebf0b969fc839b02","67982629c12147cf2473e87e","passed","","859","","","","","","","","","","","","","","f","yesOrNo","","","","6","","","lp","1000","","","106","499","189.92909825697632"
"","","","","","html-keyboard-response","295","780919","0.0-24.0-0.10","6643c5d1c53f7ffbef7b96e0","6790928bebf0b969fc839b02","67982629c12147cf2473e87e","passed","","","","","","","","","","","","","","","","","ballFalling","500","453.67114317029973","210.33","5","fallScene","true","","","","","107","",""
"","","","","","html-keyboard-response","296","781935","0.0-24.0-1.10","6643c5d1c53f7ffbef7b96e0","6790928bebf0b969fc839b02","67982629c12147cf2473e87e","passed","","488","","","","","","","","","","","","","","j","yesOrNo","","","","5","","","gt","1000","","","107","453.6711431702998","210.33"
"","","","","","html-keyboard-response","297","783585","0.0-24.0-0.11","6643c5d1c53f7ffbef7b96e0","6790928bebf0b969fc839b02","67982629c12147cf2473e87e","passed","","","","","","","","","","","","","","","","","ballFalling","500","479.92114317029973","330.87","6","fallScene","true","","","","","108","",""
"","","","","","html-keyboard-response","298","784589","0.0-24.0-1.11","6643c5d1c53f7ffbef7b96e0","6790928bebf0b969fc839b02","67982629c12147cf2473e87e","passed","","517","","","","","","","","","","","","","","j","yesOrNo","","","","6","","","mid","1000","","","108","499","300"
"","","","","","html-keyboard-response","299","786616","0.0-24.0-0.12","6643c5d1c53f7ffbef7b96e0","6790928bebf0b969fc839b02","67982629c12147cf2473e87e","passed","","","","","","","","","","","","","","","","","ballFalling","604.4000000000001","596.8711431702998","394.5","10","fallScene","false","","","","","109","",""
"","","","","","html-keyboard-response","300","787618","0.0-24.0-1.12","6643c5d1c53f7ffbef7b96e0","6790928bebf0b969fc839b02","67982629c12147cf2473e87e","passed","","841","","","","","","","","","","","","","","f","yesOrNo","","","","10","","","gt","1000","","","109","596.8711431702998","394.5"
