"success","timeout","failed_images","failed_audio","failed_video","trial_type","trial_index","time_elapsed","internal_node_id","subject_id","study_id","session_id","practiceTestResult","view_history","rt","width","height","webaudio","browser","browser_version","mobile","os","fullscreen","vsync_rate","webcam","microphone","url","stimulus","response","task","ball_X","obstacle_groundTruth_x","obstacle_groundTruth_y","stimulus_idx","trial_name","flipped","choice","timeLimit","question_order","currentTrial","obstacle_choice_x","obstacle_choice_y"
"true","false","[]","[]","[]","preload","0","81","0.0-0.0","664e2d4a26686cecdfd660eb","6790928bebf0b969fc839b02","679826872085526a01b5e4e5","passed","","","","","","","","","","","","","","","","","","","","","","","","","","","","",""
"","","","","","instructions","1","8033","0.0-1.0","664e2d4a26686cecdfd660eb","6790928bebf0b969fc839b02","679826872085526a01b5e4e5","passed","[{""page_index"":0,""viewing_time"":7951}]","7951","","","","","","","","","","","","","","","","","","","","","","","","","","",""
"","","","","","browser-check","2","9021","0.0-2.0","664e2d4a26686cecdfd660eb","6790928bebf0b969fc839b02","679826872085526a01b5e4e5","passed","","","1175","1005","true","chrome","132.0.0","false","Windows 10","true","60.89","false","false","","","","","","","","","","","","","","","",""
"","","","","","external-html","3","15392","0.0-3.0","664e2d4a26686cecdfd660eb","6790928bebf0b969fc839b02","679826872085526a01b5e4e5","passed","","6318","","","","","","","","","","","","consent.html","","","","","","","","","","","","","","",""
"true","","","","","fullscreen","4","22891","0.0-4.0","664e2d4a26686cecdfd660eb","6790928bebf0b969fc839b02","679826872085526a01b5e4e5","passed","","7183","","","","","","","","","","","","","","","","","","","","","","","","","","",""
"","","","","","browser-check","5","23889","0.0-5.0","664e2d4a26686cecdfd660eb","6790928bebf0b969fc839b02","679826872085526a01b5e4e5","passed","","","1920","1080","true","chrome","132.0.0","false","Windows 10","true","60.2","false","false","","","","","","","","","","","","","","","",""
"","","","","","html-keyboard-response","6","28353","0.0-6.0","664e2d4a26686cecdfd660eb","6790928bebf0b969fc839b02","679826872085526a01b5e4e5","passed","","4463","","","","","","","","","","","","","<p><b>This experiment requires keyboard input.</b></p> 
        <p><b>To ensure your response will be recorded successfully, please press 'Space' to continue.</b></p>
        <p>If you can't proceed, you won't be able to complete this study.</p>
        <p></p> <!-- Blank line -->
        <p id=""blinking-text"" style=""font-weight; animation: blink 2s infinite;"">Press Space to continue</p>
        <style>
            @keyframes blink {
                50% {
                    opacity: 0;
                }
            }
        </style>"," ","","","","","","","","","","","","",""
"","","","","","html-keyboard-response","7","31600","0.0-7.0","664e2d4a26686cecdfd660eb","6790928bebf0b969fc839b02","679826872085526a01b5e4e5","passed","","3247","","","","","","","","","","","","","<p><b>This experiment requires keyboard input.</b></p> 
        <p><b>To ensure your response will be recorded successfully, please press the 'f' key to continue.</b></p>
        <p>If you can't proceed, you won't be able to complete this study.</p>
        <p></p> <!-- Blank line -->
        <p id=""blinking-text"" style=""font-weight; animation: blink 2s infinite;"">Press f to continue</p>
        <style>
            @keyframes blink {
                50% {
                    opacity: 0;
                }
            }
        </style>","f","","","","","","","","","","","","",""
"","","","","","html-keyboard-response","8","33280","0.0-8.0","664e2d4a26686cecdfd660eb","6790928bebf0b969fc839b02","679826872085526a01b5e4e5","passed","","1680","","","","","","","","","","","","","<p><b>This experiment requires keyboard input.</b></p> 
        <p><b>To ensure your response will be recorded successfully, please press the 'j' key to continue.</b></p>
        <p>If you can't proceed, you won't be able to complete this study.</p>
        <p></p> <!-- Blank line -->
        <p id=""blinking-text"" style=""font-weight; animation: blink 2s infinite;"">Press j to continue</p>
        <style>
            @keyframes blink {
                50% {
                    opacity: 0;
                }
            }
        </style>","j","","","","","","","","","","","","",""
"","","","","","browser-check","9","34287","0.0-9.0","664e2d4a26686cecdfd660eb","6790928bebf0b969fc839b02","679826872085526a01b5e4e5","passed","","","1920","1080","true","chrome","132.0.0","false","Windows 10","true","60.02","false","false","","","","","","","","","","","","","","","",""
"","","","","","survey-text","10","98394","0.0-10.0","664e2d4a26686cecdfd660eb","6790928bebf0b969fc839b02","679826872085526a01b5e4e5","passed","","64103","","","","","","","","","","","","","","{""prolificID"":""664e2d4a26686cecdfd660eb""}","","","","","","","","","","","","",""
"","","","","","instructions","11","163227","0.0-11.0-0.0-0.0","664e2d4a26686cecdfd660eb","6790928bebf0b969fc839b02","679826872085526a01b5e4e5","passed","[{""page_index"":0,""viewing_time"":26471},{""page_index"":1,""viewing_time"":14888},{""page_index"":2,""viewing_time"":14072},{""page_index"":3,""viewing_time"":9400}]","64832","","","","","","","","","","","","","","","","","","","","","","","","","","",""
"","","","","","html-keyboard-response","12","175731","0.0-11.0-0.0-1.0","664e2d4a26686cecdfd660eb","6790928bebf0b969fc839b02","679826872085526a01b5e4e5","passed","","12000","","","","","","","","","","","","","<br>Remember! After a ball falls, the screen will disappear, and you'll decide if the proposed position is where the hidden triangle was. <br>You will now practice this by watching a few videos and making decisions.<p>To respond:<br style=""margin-bottom: 5px; text-indent: -20px; padding-left: 20px;"">- Press <b style=""color: #12AD2B;"">J for Yes</b>, if you think the triangle is in the correct position.<br style=""margin-top: 0; text-indent: -20px; padding-left: 20px;"">- Press <b style=""color: orange;"">F for No</b>, if you think the triangle is not in the correct position.</p><p>In this practice round, there is no time limit. Focus on getting comfortable with the task first.<br>Press either J or F to begin your practice trials.</p><img src = ""YesOrNo_instruction.png"" style=""width: 65%;""></img>","f","","","","","","","","","","","","",""
"","","","","","html-keyboard-response","13","177823","0.0-11.0-0.0-2.0-0.0","664e2d4a26686cecdfd660eb","6790928bebf0b969fc839b02","679826872085526a01b5e4e5","passed","","","","","","","","","","","","","","","","","ballFalling_prac","660","666","350","3","fallScene","false","","","","","",""
"","","","","","html-keyboard-response","14","180612","0.0-11.0-0.0-2.0-1.0","664e2d4a26686cecdfd660eb","6790928bebf0b969fc839b02","679826872085526a01b5e4e5","passed","","2785","","","","","","","","","","","","","","j","yesOrNo_prac_noTimed","","","","3","","","wrong direction","NA","","","",""
"","","","","","html-keyboard-response","15","182175","0.0-11.0-0.0-2.0-0.1","664e2d4a26686cecdfd660eb","6790928bebf0b969fc839b02","679826872085526a01b5e4e5","passed","","","","","","","","","","","","","","","","","ballFalling_prac","416","464","296","1","fallScene","false","","","","","",""
"","","","","","html-keyboard-response","16","183764","0.0-11.0-0.0-2.0-1.1","664e2d4a26686cecdfd660eb","6790928bebf0b969fc839b02","679826872085526a01b5e4e5","passed","","1588","","","","","","","","","","","","","","f","yesOrNo_prac_noTimed","","","","1","","","gt","NA","","","",""
"","","","","","html-keyboard-response","17","185341","0.0-11.0-0.0-2.0-0.2","664e2d4a26686cecdfd660eb","6790928bebf0b969fc839b02","679826872085526a01b5e4e5","passed","","","","","","","","","","","","","","","","","ballFalling_prac","441","414","302","5","fallScene","true","","","","","",""
"","","","","","html-keyboard-response","18","186644","0.0-11.0-0.0-2.0-1.2","664e2d4a26686cecdfd660eb","6790928bebf0b969fc839b02","679826872085526a01b5e4e5","passed","","1302","","","","","","","","","","","","","","j","yesOrNo_prac_noTimed","","","","5","","","close gt","NA","","","",""
"","","","","","instructions","19","225436","0.0-11.0-0.0-3.0","664e2d4a26686cecdfd660eb","6790928bebf0b969fc839b02","679826872085526a01b5e4e5","passed","[{""page_index"":0,""viewing_time"":21887},{""page_index"":1,""viewing_time"":16904}]","38792","","","","","","","","","","","","","","","","","","","","","","","","","","",""
"","","","","","html-button-response","20","233932","0.0-11.0-0.0-4.0","664e2d4a26686cecdfd660eb","6790928bebf0b969fc839b02","679826872085526a01b5e4e5","passed","","7995","","","","","","","","","","","","","<p>To make sure you understood the task, we just have a <b>brief quiz</b> here.</p><p>If you need to review the instructions, click 'Previous'.</p><p>It's important to understand the task to do the study, so you have to pass the quiz to move to the study.</p>","1","","","","","","","","","","","","",""
"","","","","","survey-multi-choice","21","248526","0.0-11.0-1.0-0.0","664e2d4a26686cecdfd660eb","6790928bebf0b969fc839b02","679826872085526a01b5e4e5","passed","","14591","","","","","","","","","","","","","","{""generalProcedure"":""Watch a video of a ball falling, some of it behind a gray screen. After each video, decide if the triangle is at the spot where the ball hit the triangle behind the screen. There is time limit for the response.""}","","","","","","","","","","[0]","","",""
"","","","","","survey-multi-choice","22","251541","0.0-11.0-1.0-1.0","664e2d4a26686cecdfd660eb","6790928bebf0b969fc839b02","679826872085526a01b5e4e5","passed","","3015","","","","","","","","","","","","","","{""checkBallHitObstacle"":""Yes.""}","","","","","","","","","","[0]","","",""
"","","","","","survey-multi-choice","23","255798","0.0-11.0-1.0-2.0","664e2d4a26686cecdfd660eb","6790928bebf0b969fc839b02","679826872085526a01b5e4e5","passed","","4256","","","","","","","","","","","","","","{""checkTriangleVisibility"":""No, the triangle is hidden behind the gray screen.""}","","","","","","","","","","[0]","","",""
"","","","","","survey-multi-choice","24","260246","0.0-11.0-1.0-3.0","664e2d4a26686cecdfd660eb","6790928bebf0b969fc839b02","679826872085526a01b5e4e5","passed","","4448","","","","","","","","","","","","","","{""checkTimedResponse"":""Your response will not be recorded, and the trial will move to the next one.""}","","","","","","","","","","[0]","","",""
"","","","","","survey-multi-choice","25","264293","0.0-11.0-1.0-4.0","664e2d4a26686cecdfd660eb","6790928bebf0b969fc839b02","679826872085526a01b5e4e5","passed","","4047","","","","","","","","","","","","","","{""checkTimeBlockNotice"":""At the beginning of each block.""}","","","","","","","","","","[0]","","",""
"","","","","","survey-multi-choice","26","268902","0.0-11.0-1.0-5.0","664e2d4a26686cecdfd660eb","6790928bebf0b969fc839b02","679826872085526a01b5e4e5","passed","","4608","","","","","","","","","","","","","","{""checkTimeBlockSameness"":""Yes, the time limit is the same for all trials within a block.""}","","","","","","","","","","[0]","","",""
"","","","","","survey-multi-choice","27","289110","0.0-11.0-1.0-6.0","664e2d4a26686cecdfd660eb","6790928bebf0b969fc839b02","679826872085526a01b5e4e5","passed","","20207","","","","","","","","","","","","","","{""checkTrianglePrecision"":""No. The proposed purple triangle is not in the correct position because it doesn't match the location of the white triangle exactly.""}","","","","","","","","","","[0]","","",""
"","","","","","instructions","28","321798","0.0-12.0","664e2d4a26686cecdfd660eb","6790928bebf0b969fc839b02","679826872085526a01b5e4e5","passed","[{""page_index"":0,""viewing_time"":9151},{""page_index"":1,""viewing_time"":6352},{""page_index"":2,""viewing_time"":7760},{""page_index"":3,""viewing_time"":9424}]","32687","","","","","","","","","","","","","","","","","","","","","","","","","","",""
"","","","","","instructions","29","328550","0.0-13.0-0.0","664e2d4a26686cecdfd660eb","6790928bebf0b969fc839b02","679826872085526a01b5e4e5","passed","[{""page_index"":0,""viewing_time"":6752}]","6752","","","","","","","","","","","","","","","","","","","","","","","","","","",""
"","","","","","html-keyboard-response","30","331031","0.0-13.0-1.0","664e2d4a26686cecdfd660eb","6790928bebf0b969fc839b02","679826872085526a01b5e4e5","passed","","2480","","","","","","","","","","","","","<p><span style=""font-size:40px;"">Practice BLOCK 1</span></p><p><span style=""font-size:25px;"">You have <b style=""color: #FF644F;""><strong>3 second(s)</strong></b> to respond to the following trials.</span><br></p><p id=""blinking-text"" style=""font-weight; animation: blink 2s infinite;"">Press Space to continue</p><style>
                    @keyframes blink {
                        50% {
                            opacity: 0;
                        }
                    }
                </style>"," ","","","","","","","","","","","","",""
"","","","","","html-keyboard-response","31","332593","0.0-13.0-2.0-0.0","664e2d4a26686cecdfd660eb","6790928bebf0b969fc839b02","679826872085526a01b5e4e5","passed","","","","","","","","","","","","","","","","","ballFalling_prac","584","536","296","1","fallScene","true","","","","","",""
"","","","","","html-keyboard-response","32","335607","0.0-13.0-2.0-1.0","664e2d4a26686cecdfd660eb","6790928bebf0b969fc839b02","679826872085526a01b5e4e5","passed","","579","","","","","","","","","","","","","","f","yesOrNo_prac","","","","1","","","close gt","3000","","","",""
"","","","","","html-keyboard-response","33","337177","0.0-13.0-2.0-0.1","664e2d4a26686cecdfd660eb","6790928bebf0b969fc839b02","679826872085526a01b5e4e5","passed","","","","","","","","","","","","","","","","","ballFalling_prac","660","610","263","4","fallScene","false","","","","","",""
"","","","","","html-keyboard-response","34","340190","0.0-13.0-2.0-1.1","664e2d4a26686cecdfd660eb","6790928bebf0b969fc839b02","679826872085526a01b5e4e5","passed","","1100","","","","","","","","","","","","","","f","yesOrNo_prac","","","","4","","","gt","3000","","","",""
"","","","","","html-keyboard-response","35","341744","0.0-13.0-2.0-0.2","664e2d4a26686cecdfd660eb","6790928bebf0b969fc839b02","679826872085526a01b5e4e5","passed","","","","","","","","","","","","","","","","","ballFalling_prac","416","464","296","1","fallScene","false","","","","","",""
"","","","","","html-keyboard-response","36","344760","0.0-13.0-2.0-1.2","664e2d4a26686cecdfd660eb","6790928bebf0b969fc839b02","679826872085526a01b5e4e5","passed","","2166","","","","","","","","","","","","","","j","yesOrNo_prac","","","","1","","","far gt","3000","","","",""
"","","","","","html-keyboard-response","37","346790","0.0-13.0-3.0","664e2d4a26686cecdfd660eb","6790928bebf0b969fc839b02","679826872085526a01b5e4e5","passed","","2030","","","","","","","","","","","","","<p><span style=""font-size:40px;"">Practice BLOCK 2</span></p><p><span style=""font-size:25px;"">You have <b style=""color: #FF644F;""><strong>1 second(s)</strong></b> to respond to the following trials.</span><br></p><p id=""blinking-text"" style=""font-weight; animation: blink 2s infinite;"">Press Space to continue</p><style>
                    @keyframes blink {
                        50% {
                            opacity: 0;
                        }
                    }
                </style>"," ","","","","","","","","","","","","",""
"","","","","","html-keyboard-response","38","348344","0.0-13.0-4.0-0.0","664e2d4a26686cecdfd660eb","6790928bebf0b969fc839b02","679826872085526a01b5e4e5","passed","","","","","","","","","","","","","","","","","ballFalling_prac","441","500","317","6","fallScene","true","","","","","",""
"","","","","","html-keyboard-response","39","349358","0.0-13.0-4.0-1.0","664e2d4a26686cecdfd660eb","6790928bebf0b969fc839b02","679826872085526a01b5e4e5","passed","","461","","","","","","","","","","","","","","j","yesOrNo_prac","","","","6","","","gt","1000","","","",""
"","","","","","html-keyboard-response","40","351461","0.0-13.0-4.0-0.1","664e2d4a26686cecdfd660eb","6790928bebf0b969fc839b02","679826872085526a01b5e4e5","passed","","","","","","","","","","","","","","","","","ballFalling_prac","340","334","350","3","fallScene","true","","","","","",""
"","","","","","html-keyboard-response","41","352473","0.0-13.0-4.0-1.1","664e2d4a26686cecdfd660eb","6790928bebf0b969fc839b02","679826872085526a01b5e4e5","passed","","689","","","","","","","","","","","","","","j","yesOrNo_prac","","","","3","","","close gt","1000","","","",""
"","","","","","html-keyboard-response","42","354044","0.0-13.0-4.0-0.2","664e2d4a26686cecdfd660eb","6790928bebf0b969fc839b02","679826872085526a01b5e4e5","passed","","","","","","","","","","","","","","","","","ballFalling_prac","660","610","263","4","fallScene","false","","","","","",""
"","","","","","html-keyboard-response","43","355057","0.0-13.0-4.0-1.2","664e2d4a26686cecdfd660eb","6790928bebf0b969fc839b02","679826872085526a01b5e4e5","passed","","857","","","","","","","","","","","","","","f","yesOrNo_prac","","","","4","","","far gt","1000","","","",""
"","","","","","instructions","44","363807","0.0-13.0-5.0","664e2d4a26686cecdfd660eb","6790928bebf0b969fc839b02","679826872085526a01b5e4e5","passed","[{""page_index"":0,""viewing_time"":8749}]","8749","","","","","","","","","","","","","","","","","","","","","","","","","","",""
"","","","","","html-keyboard-response","45","365463","0.0-13.0-6.0","664e2d4a26686cecdfd660eb","6790928bebf0b969fc839b02","679826872085526a01b5e4e5","passed","","1656","","","","","","","","","","","","","<p><span style=""font-size:40px;"">Practice Test BLOCK 1</span></p><p><span style=""font-size:25px;"">You have <b style=""color: #FF644F;""><strong>1 second(s)</strong></b> to respond to the following trials.</span><br></p><p id=""blinking-text"" style=""font-weight; animation: blink 2s infinite;"">Press Space to continue</p><style>
                    @keyframes blink {
                        50% {
                            opacity: 0;
                        }
                    }
                </style>"," ","","","","","","","","","","","","",""
"","","","","","html-keyboard-response","46","367028","0.0-13.0-7.0-0.0","664e2d4a26686cecdfd660eb","6790928bebf0b969fc839b02","679826872085526a01b5e4e5","passed","","","","","","","","","","","","","","","","","ballFalling_prac","441","500","317","6","fallScene","true","","","","","",""
"","","","","","html-keyboard-response","47","368043","0.0-13.0-7.0-1.0","664e2d4a26686cecdfd660eb","6790928bebf0b969fc839b02","679826872085526a01b5e4e5","passed","","850","","","","","","","","","","","","","","j","yesOrNo_prac","","","","6","","","close gt","1000","","","",""
"","","","","","html-keyboard-response","48","369611","0.0-13.0-7.0-0.1","664e2d4a26686cecdfd660eb","6790928bebf0b969fc839b02","679826872085526a01b5e4e5","passed","","","","","","","","","","","","","","","","","ballFalling_prac","559","586","302","5","fallScene","false","","","","","",""
"","","","","","html-keyboard-response","49","370621","0.0-13.0-7.0-1.1","664e2d4a26686cecdfd660eb","6790928bebf0b969fc839b02","679826872085526a01b5e4e5","passed","","843","","","","","","","","","","","","","","f","yesOrNo_prac","","","","5","","","gt","1000","","","",""
"","","","","","html-keyboard-response","50","372194","0.0-13.0-7.0-0.2","664e2d4a26686cecdfd660eb","6790928bebf0b969fc839b02","679826872085526a01b5e4e5","passed","","","","","","","","","","","","","","","","","ballFalling_prac","340","390","263","4","fallScene","true","","","","","",""
"","","","","","html-keyboard-response","51","373208","0.0-13.0-7.0-1.2","664e2d4a26686cecdfd660eb","6790928bebf0b969fc839b02","679826872085526a01b5e4e5","passed","","947","","","","","","","","","","","","","","f","yesOrNo_prac","","","","4","","","far gt","1000","","","",""
"","","","","","html-keyboard-response","52","374503","0.0-13.0-8.0","664e2d4a26686cecdfd660eb","6790928bebf0b969fc839b02","679826872085526a01b5e4e5","passed","","1294","","","","","","","","","","","","","<p><span style=""font-size:40px;"">Practice Test BLOCK 2</span></p><p><span style=""font-size:25px;"">You have <b style=""color: #FF644F;""><strong>3 second(s)</strong></b> to respond to the following trials.</span><br></p><p id=""blinking-text"" style=""font-weight; animation: blink 2s infinite;"">Press Space to continue</p><style>
                    @keyframes blink {
                        50% {
                            opacity: 0;
                        }
                    }
                </style>"," ","","","","","","","","","","","","",""
"","","","","","html-keyboard-response","53","376078","0.0-13.0-9.0-0.0","664e2d4a26686cecdfd660eb","6790928bebf0b969fc839b02","679826872085526a01b5e4e5","passed","","","","","","","","","","","","","","","","","ballFalling_prac","340","390","263","4","fallScene","true","","","","","",""
"","","","","","html-keyboard-response","54","379090","0.0-13.0-9.0-1.0","664e2d4a26686cecdfd660eb","6790928bebf0b969fc839b02","679826872085526a01b5e4e5","passed","","1240","","","","","","","","","","","","","","f","yesOrNo_prac","","","","4","","","close gt","3000","","","",""
"","","","","","html-keyboard-response","55","380661","0.0-13.0-9.0-0.1","664e2d4a26686cecdfd660eb","6790928bebf0b969fc839b02","679826872085526a01b5e4e5","passed","","","","","","","","","","","","","","","","","ballFalling_prac","416","365","249","2","fallScene","false","","","","","",""
"","","","","","html-keyboard-response","56","383674","0.0-13.0-9.0-1.1","664e2d4a26686cecdfd660eb","6790928bebf0b969fc839b02","679826872085526a01b5e4e5","passed","","1761","","","","","","","","","","","","","","j","yesOrNo_prac","","","","2","","","gt","3000","","","",""
"","","","","","html-keyboard-response","57","385244","0.0-13.0-9.0-0.2","664e2d4a26686cecdfd660eb","6790928bebf0b969fc839b02","679826872085526a01b5e4e5","passed","","","","","","","","","","","","","","","","","ballFalling_prac","559","586","302","5","fallScene","false","","","","","",""
"","","","","","html-keyboard-response","58","388245","0.0-13.0-9.0-1.2","664e2d4a26686cecdfd660eb","6790928bebf0b969fc839b02","679826872085526a01b5e4e5","passed","","826","","","","","","","","","","","","","","j","yesOrNo_prac","","","","5","","","far gt","3000","","","",""
"","","","","","instructions","59","400111","0.0-14.0","664e2d4a26686cecdfd660eb","6790928bebf0b969fc839b02","679826872085526a01b5e4e5","passed","[{""page_index"":0,""viewing_time"":11865}]","11865","","","","","","","","","","","","","","","","","","","","","","","","","","",""
"","","","","","html-keyboard-response","60","402775","0.0-15.0","664e2d4a26686cecdfd660eb","6790928bebf0b969fc839b02","679826872085526a01b5e4e5","passed","","2664","","","","","","","","","","","","","<p><span style=""font-size:40px;"">BLOCK 1</span></p><p><span style=""font-size:25px;"">You have <b style=""color: #FF644F;""><strong>3 second(s)</strong></b> to respond to the following trials.</span><br></p><p></p> <!-- Blank line -->
                <p id=""blinking-text"" style=""font-weight; animation: blink 2s infinite;"">Press Space to continue</p>
                <style>
                    @keyframes blink {
                        50% {
                            opacity: 0;
                        }
                    }
                </style></p>"," ","","","","","","","","","","","","",""
"","","","","","html-keyboard-response","61","404778","0.0-16.0-0.0","664e2d4a26686cecdfd660eb","6790928bebf0b969fc839b02","679826872085526a01b5e4e5","passed","","","","","","","","","","","","","","","","","ballFalling","500","510.8711431702997","369.03","8","fallScene","false","","","","1","",""
"","","","","","html-keyboard-response","62","407794","0.0-16.0-1.0","664e2d4a26686cecdfd660eb","6790928bebf0b969fc839b02","679826872085526a01b5e4e5","passed","","1036","","","","","","","","","","","","","","j","yesOrNo","","","","8","","","mid","3000","","1","501","300"
"","","","","","html-keyboard-response","63","409577","0.0-16.0-0.1","664e2d4a26686cecdfd660eb","6790928bebf0b969fc839b02","679826872085526a01b5e4e5","passed","","","","","","","","","","","","","","","","","ballFalling","322.3","308.07114317029976","253.89","2","fallScene","false","","","","2","",""
"","","","","","html-keyboard-response","64","412589","0.0-16.0-1.1","664e2d4a26686cecdfd660eb","6790928bebf0b969fc839b02","679826872085526a01b5e4e5","passed","","765","","","","","","","","","","","","","","f","yesOrNo","","","","2","","","lp","3000","","2","321.3","151"
"","","","","","html-keyboard-response","65","414144","0.0-16.0-0.2","664e2d4a26686cecdfd660eb","6790928bebf0b969fc839b02","679826872085526a01b5e4e5","passed","","","","","","","","","","","","","","","","","ballFalling","322.3","356.42114317029973","357.87","4","fallScene","false","","","","3","",""
"","","","","","html-keyboard-response","66","417158","0.0-16.0-1.2","664e2d4a26686cecdfd660eb","6790928bebf0b969fc839b02","679826872085526a01b5e4e5","passed","","1126","","","","","","","","","","","","","","j","yesOrNo","","","","4","","","lp","3000","","3","323.3","297.4070551689986"
"","","","","","html-keyboard-response","67","418711","0.0-16.0-0.3","664e2d4a26686cecdfd660eb","6790928bebf0b969fc839b02","679826872085526a01b5e4e5","passed","","","","","","","","","","","","","","","","","ballFalling","322.3","379.3711431702997","245.25","1","fallScene","false","","","","4","",""
"","","","","","html-keyboard-response","68","421723","0.0-16.0-1.3","664e2d4a26686cecdfd660eb","6790928bebf0b969fc839b02","679826872085526a01b5e4e5","passed","","942","","","","","","","","","","","","","","f","yesOrNo","","","","1","","","gt","3000","","4","379.3711431702997","245.25"
"","","","","","html-keyboard-response","69","423379","0.0-16.0-0.4","664e2d4a26686cecdfd660eb","6790928bebf0b969fc839b02","679826872085526a01b5e4e5","passed","","","","","","","","","","","","","","","","","ballFalling","500","479.92114317029973","330.87","6","fallScene","true","","","","5","",""
"","","","","","html-keyboard-response","70","426384","0.0-16.0-1.4","664e2d4a26686cecdfd660eb","6790928bebf0b969fc839b02","679826872085526a01b5e4e5","passed","","916","","","","","","","","","","","","","","f","yesOrNo","","","","6","","","lp","3000","","5","499","189.92909825697632"
"","","","","","html-keyboard-response","71","427945","0.0-16.0-0.5","664e2d4a26686cecdfd660eb","6790928bebf0b969fc839b02","679826872085526a01b5e4e5","passed","","","","","","","","","","","","","","","","","ballFalling","322.3","296.07114317029976","371.46","3","fallScene","false","","","","6","",""
"","","","","","html-keyboard-response","72","430959","0.0-16.0-1.5","664e2d4a26686cecdfd660eb","6790928bebf0b969fc839b02","679826872085526a01b5e4e5","passed","","1165","","","","","","","","","","","","","","j","yesOrNo","","","","3","","","mid","3000","","6","321.3","300"
"","","","","","html-keyboard-response","73","432961","0.0-16.0-0.6","664e2d4a26686cecdfd660eb","6790928bebf0b969fc839b02","679826872085526a01b5e4e5","passed","","","","","","","","","","","","","","","","","ballFalling","604.4000000000001","596.8711431702998","394.5","10","fallScene","true","","","","7","",""
"","","","","","html-keyboard-response","74","435974","0.0-16.0-1.6","664e2d4a26686cecdfd660eb","6790928bebf0b969fc839b02","679826872085526a01b5e4e5","passed","","949","","","","","","","","","","","","","","f","yesOrNo","","","","10","","","gt","3000","","7","596.8711431702998","394.5"
"","","","","","html-keyboard-response","75","437528","0.0-16.0-0.7","664e2d4a26686cecdfd660eb","6790928bebf0b969fc839b02","679826872085526a01b5e4e5","passed","","","","","","","","","","","","","","","","","ballFalling","604.4000000000001","650.0211431702996","404.58000000000004","11","fallScene","true","","","","8","",""
"","","","","","html-keyboard-response","76","440543","0.0-16.0-1.7","664e2d4a26686cecdfd660eb","6790928bebf0b969fc839b02","679826872085526a01b5e4e5","passed","","831","","","","","","","","","","","","","","j","yesOrNo","","","","11","","","lp","3000","","8","605.4000000000001","372.6340973215488"
"","","","","","html-keyboard-response","77","442095","0.0-16.0-0.8","664e2d4a26686cecdfd660eb","6790928bebf0b969fc839b02","679826872085526a01b5e4e5","passed","","","","","","","","","","","","","","","","","ballFalling","322.3","379.3711431702997","245.25","1","fallScene","true","","","","9","",""
"","","","","","html-keyboard-response","78","445104","0.0-16.0-1.8","664e2d4a26686cecdfd660eb","6790928bebf0b969fc839b02","679826872085526a01b5e4e5","passed","","871","","","","","","","","","","","","","","j","yesOrNo","","","","1","","","lp","3000","","9","323.3","217.74551669457017"
"","","","","","html-keyboard-response","79","446662","0.0-16.0-0.9","664e2d4a26686cecdfd660eb","6790928bebf0b969fc839b02","679826872085526a01b5e4e5","passed","","","","","","","","","","","","","","","","","ballFalling","500","453.67114317029973","210.33","5","fallScene","true","","","","10","",""
"","","","","","html-keyboard-response","80","449675","0.0-16.0-1.9","664e2d4a26686cecdfd660eb","6790928bebf0b969fc839b02","679826872085526a01b5e4e5","passed","","1105","","","","","","","","","","","","","","f","yesOrNo","","","","5","","","gt","3000","","10","453.6711431702998","210.33"
"","","","","","html-keyboard-response","81","451245","0.0-16.0-0.10","664e2d4a26686cecdfd660eb","6790928bebf0b969fc839b02","679826872085526a01b5e4e5","passed","","","","","","","","","","","","","","","","","ballFalling","500","553.4711431702997","282.51","7","fallScene","true","","","","11","",""
"","","","","","html-keyboard-response","82","454259","0.0-16.0-1.10","664e2d4a26686cecdfd660eb","6790928bebf0b969fc839b02","679826872085526a01b5e4e5","passed","","714","","","","","","","","","","","","","","j","yesOrNo","","","","7","","","lp","3000","","11","501","227.2843295913261"
"","","","","","html-keyboard-response","83","455811","0.0-16.0-0.11","664e2d4a26686cecdfd660eb","6790928bebf0b969fc839b02","679826872085526a01b5e4e5","passed","","","","","","","","","","","","","","","","","ballFalling","604.4000000000001","650.0211431702996","404.58000000000004","11","fallScene","true","","","","12","",""
"","","","","","html-keyboard-response","84","458812","0.0-16.0-1.11","664e2d4a26686cecdfd660eb","6790928bebf0b969fc839b02","679826872085526a01b5e4e5","passed","","1187","","","","","","","","","","","","","","j","yesOrNo","","","","11","","","gt","3000","","12","650.0211431702996","404.58"
"","","","","","html-keyboard-response","85","460378","0.0-16.0-0.12","664e2d4a26686cecdfd660eb","6790928bebf0b969fc839b02","679826872085526a01b5e4e5","passed","","","","","","","","","","","","","","","","","ballFalling","322.3","296.07114317029976","371.46","3","fallScene","true","","","","13","",""
"","","","","","html-keyboard-response","86","463390","0.0-16.0-1.12","664e2d4a26686cecdfd660eb","6790928bebf0b969fc839b02","679826872085526a01b5e4e5","passed","","733","","","","","","","","","","","","","","f","yesOrNo","","","","3","","","lp","3000","","13","321.3","287.3327096511259"
"","","","","","html-keyboard-response","87","464945","0.0-16.0-0.13","664e2d4a26686cecdfd660eb","6790928bebf0b969fc839b02","679826872085526a01b5e4e5","passed","","","","","","","","","","","","","","","","","ballFalling","322.3","296.07114317029976","371.46","3","fallScene","false","","","","14","",""
"","","","","","html-keyboard-response","88","467959","0.0-16.0-1.13","664e2d4a26686cecdfd660eb","6790928bebf0b969fc839b02","679826872085526a01b5e4e5","passed","","1637","","","","","","","","","","","","","","j","yesOrNo","","","","3","","","gt","3000","","14","296.07114317029976","371.46"
"","","","","","html-keyboard-response","89","469961","0.0-16.0-0.14","664e2d4a26686cecdfd660eb","6790928bebf0b969fc839b02","679826872085526a01b5e4e5","passed","","","","","","","","","","","","","","","","","ballFalling","604.4000000000001","596.8711431702998","394.5","10","fallScene","true","","","","15","",""
"","","","","","html-keyboard-response","90","472974","0.0-16.0-1.14","664e2d4a26686cecdfd660eb","6790928bebf0b969fc839b02","679826872085526a01b5e4e5","passed","","653","","","","","","","","","","","","","","f","yesOrNo","","","","10","","","mid","3000","","15","536.4288568297004","300"
"","","","","","html-keyboard-response","91","474545","0.0-16.0-0.15","664e2d4a26686cecdfd660eb","6790928bebf0b969fc839b02","679826872085526a01b5e4e5","passed","","","","","","","","","","","","","","","","","ballFalling","500","553.4711431702997","282.51","7","fallScene","true","","","","16","",""
"","","","","","html-keyboard-response","92","477546","0.0-16.0-1.15","664e2d4a26686cecdfd660eb","6790928bebf0b969fc839b02","679826872085526a01b5e4e5","passed","","678","","","","","","","","","","","","","","f","yesOrNo","","","","7","","","gt","3000","","16","553.4711431702997","282.51"
"","","","","","html-keyboard-response","93","479211","0.0-16.0-0.16","664e2d4a26686cecdfd660eb","6790928bebf0b969fc839b02","679826872085526a01b5e4e5","passed","","","","","","","","","","","","","","","","","ballFalling","500","479.92114317029973","330.87","6","fallScene","false","","","","17","",""
"","","","","","html-keyboard-response","94","482222","0.0-16.0-1.16","664e2d4a26686cecdfd660eb","6790928bebf0b969fc839b02","679826872085526a01b5e4e5","passed","","683","","","","","","","","","","","","","","f","yesOrNo","","","","6","","","gt","3000","","17","479.9211431702998","330.87"
"","","","","","html-keyboard-response","95","483779","0.0-16.0-0.17","664e2d4a26686cecdfd660eb","6790928bebf0b969fc839b02","679826872085526a01b5e4e5","passed","","","","","","","","","","","","","","","","","ballFalling","604.4000000000001","575.4211431702997","266.76","12","fallScene","false","","","","18","",""
"","","","","","html-keyboard-response","96","486794","0.0-16.0-1.17","664e2d4a26686cecdfd660eb","6790928bebf0b969fc839b02","679826872085526a01b5e4e5","passed","","1028","","","","","","","","","","","","","","f","yesOrNo","","","","12","","","lp","3000","","18","603.4000000000001","151"
"","","","","","html-keyboard-response","97","488345","0.0-16.0-0.18","664e2d4a26686cecdfd660eb","6790928bebf0b969fc839b02","679826872085526a01b5e4e5","passed","","","","","","","","","","","","","","","","","ballFalling","500","453.67114317029973","210.33","5","fallScene","true","","","","19","",""
"","","","","","html-keyboard-response","98","491360","0.0-16.0-1.18","664e2d4a26686cecdfd660eb","6790928bebf0b969fc839b02","679826872085526a01b5e4e5","passed","","1230","","","","","","","","","","","","","","j","yesOrNo","","","","5","","","gt","3000","","19","453.6711431702998","210.33"
"","","","","","html-keyboard-response","99","492929","0.0-16.0-0.19","664e2d4a26686cecdfd660eb","6790928bebf0b969fc839b02","679826872085526a01b5e4e5","passed","","","","","","","","","","","","","","","","","ballFalling","500","553.4711431702997","282.51","7","fallScene","true","","","","20","",""
"","","","","","html-keyboard-response","100","495945","0.0-16.0-1.19","664e2d4a26686cecdfd660eb","6790928bebf0b969fc839b02","679826872085526a01b5e4e5","passed","","774","","","","","","","","","","","","","","j","yesOrNo","","","","7","","","mid","3000","","20","501","300"
"","","","","","html-keyboard-response","101","497596","0.0-16.0-0.20","664e2d4a26686cecdfd660eb","6790928bebf0b969fc839b02","679826872085526a01b5e4e5","passed","","","","","","","","","","","","","","","","","ballFalling","500","479.92114317029973","330.87","6","fallScene","true","","","","21","",""
"","","","","","html-keyboard-response","102","500597","0.0-16.0-1.20","664e2d4a26686cecdfd660eb","6790928bebf0b969fc839b02","679826872085526a01b5e4e5","passed","","987","","","","","","","","","","","","","","j","yesOrNo","","","","6","","","mid","3000","","21","499","300"
"","","","","","html-keyboard-response","103","502262","0.0-16.0-0.21","664e2d4a26686cecdfd660eb","6790928bebf0b969fc839b02","679826872085526a01b5e4e5","passed","","","","","","","","","","","","","","","","","ballFalling","500","479.92114317029973","330.87","6","fallScene","false","","","","22","",""
"","","","","","html-keyboard-response","104","505265","0.0-16.0-1.21","664e2d4a26686cecdfd660eb","6790928bebf0b969fc839b02","679826872085526a01b5e4e5","passed","","1617","","","","","","","","","","","","","","f","yesOrNo","","","","6","","","lp","3000","","22","499","189.92909825697632"
"","","","","","html-keyboard-response","105","506829","0.0-16.0-0.22","664e2d4a26686cecdfd660eb","6790928bebf0b969fc839b02","679826872085526a01b5e4e5","passed","","","","","","","","","","","","","","","","","ballFalling","500","453.67114317029973","210.33","5","fallScene","true","","","","23","",""
"","","","","","html-keyboard-response","106","509845","0.0-16.0-1.22","664e2d4a26686cecdfd660eb","6790928bebf0b969fc839b02","679826872085526a01b5e4e5","passed","","null","","","","","","","","","","","","","","null","yesOrNo","","","","5","","","lp","3000","","23","499","151"
"","","","","","html-keyboard-response","107","511395","0.0-16.0-0.23","664e2d4a26686cecdfd660eb","6790928bebf0b969fc839b02","679826872085526a01b5e4e5","passed","","","","","","","","","","","","","","","","","ballFalling","604.4000000000001","575.4211431702997","266.76","12","fallScene","false","","","","24","",""
"","","","","","html-keyboard-response","108","514407","0.0-16.0-1.23","664e2d4a26686cecdfd660eb","6790928bebf0b969fc839b02","679826872085526a01b5e4e5","passed","","null","","","","","","","","","","","","","","null","yesOrNo","","","","12","","","lp","3000","","24","603.4000000000001","151"
"","","","","","html-keyboard-response","109","522280","0.0-17.0","664e2d4a26686cecdfd660eb","6790928bebf0b969fc839b02","679826872085526a01b5e4e5","passed","","7873","","","","","","","","","","","","","<p><span style=""font-size:40px;"">BLOCK 2</span></p><p><span style=""font-size:25px;"">You have <b style=""color: #FF644F;""><strong>3 second(s)</strong></b> to respond to the following trials.</span><br></p><p></p> <!-- Blank line -->
                <p id=""blinking-text"" style=""font-weight; animation: blink 2s infinite;"">Press Space to continue</p>
                <style>
                    @keyframes blink {
                        50% {
                            opacity: 0;
                        }
                    }
                </style></p>"," ","","","","","","","","","","","","",""
"","","","","","html-keyboard-response","110","523862","0.0-18.0-0.0","664e2d4a26686cecdfd660eb","6790928bebf0b969fc839b02","679826872085526a01b5e4e5","passed","","","","","","","","","","","","","","","","","ballFalling","500","553.4711431702997","282.51","7","fallScene","true","","","","25","",""
"","","","","","html-keyboard-response","111","526875","0.0-18.0-1.0","664e2d4a26686cecdfd660eb","6790928bebf0b969fc839b02","679826872085526a01b5e4e5","passed","","1185","","","","","","","","","","","","","","f","yesOrNo","","","","7","","","lp","3000","","25","501","227.2843295913261"
"","","","","","html-keyboard-response","112","528879","0.0-18.0-0.1","664e2d4a26686cecdfd660eb","6790928bebf0b969fc839b02","679826872085526a01b5e4e5","passed","","","","","","","","","","","","","","","","","ballFalling","500","510.8711431702997","369.03","8","fallScene","false","","","","26","",""
"","","","","","html-keyboard-response","113","531891","0.0-18.0-1.1","664e2d4a26686cecdfd660eb","6790928bebf0b969fc839b02","679826872085526a01b5e4e5","passed","","1368","","","","","","","","","","","","","","f","yesOrNo","","","","8","","","gt","3000","","26","510.8711431702997","369.03"
"","","","","","html-keyboard-response","114","533445","0.0-18.0-0.2","664e2d4a26686cecdfd660eb","6790928bebf0b969fc839b02","679826872085526a01b5e4e5","passed","","","","","","","","","","","","","","","","","ballFalling","604.4000000000001","575.4211431702997","266.76","12","fallScene","false","","","","27","",""
"","","","","","html-keyboard-response","115","536460","0.0-18.0-1.2","664e2d4a26686cecdfd660eb","6790928bebf0b969fc839b02","679826872085526a01b5e4e5","passed","","898","","","","","","","","","","","","","","j","yesOrNo","","","","12","","","gt","3000","","27","575.4211431702997","266.76"
"","","","","","html-keyboard-response","116","538012","0.0-18.0-0.3","664e2d4a26686cecdfd660eb","6790928bebf0b969fc839b02","679826872085526a01b5e4e5","passed","","","","","","","","","","","","","","","","","ballFalling","500","453.67114317029973","210.33","5","fallScene","true","","","","28","",""
"","","","","","html-keyboard-response","117","541013","0.0-18.0-1.3","664e2d4a26686cecdfd660eb","6790928bebf0b969fc839b02","679826872085526a01b5e4e5","passed","","1259","","","","","","","","","","","","","","j","yesOrNo","","","","5","","","lp","3000","","28","499","151"
"","","","","","html-keyboard-response","118","542579","0.0-18.0-0.4","664e2d4a26686cecdfd660eb","6790928bebf0b969fc839b02","679826872085526a01b5e4e5","passed","","","","","","","","","","","","","","","","","ballFalling","322.3","356.42114317029973","357.87","4","fallScene","true","","","","29","",""
"","","","","","html-keyboard-response","119","545580","0.0-18.0-1.4","664e2d4a26686cecdfd660eb","6790928bebf0b969fc839b02","679826872085526a01b5e4e5","passed","","820","","","","","","","","","","","","","","j","yesOrNo","","","","4","","","gt","3000","","29","356.42114317029973","357.87"
"","","","","","html-keyboard-response","120","547146","0.0-18.0-0.5","664e2d4a26686cecdfd660eb","6790928bebf0b969fc839b02","679826872085526a01b5e4e5","passed","","","","","","","","","","","","","","","","","ballFalling","322.3","296.07114317029976","371.46","3","fallScene","true","","","","30","",""
"","","","","","html-keyboard-response","121","550161","0.0-18.0-1.5","664e2d4a26686cecdfd660eb","6790928bebf0b969fc839b02","679826872085526a01b5e4e5","passed","","926","","","","","","","","","","","","","","j","yesOrNo","","","","3","","","mid","3000","","30","321.3","300"
"","","","","","html-keyboard-response","122","551712","0.0-18.0-0.6","664e2d4a26686cecdfd660eb","6790928bebf0b969fc839b02","679826872085526a01b5e4e5","passed","","","","","","","","","","","","","","","","","ballFalling","322.3","356.42114317029973","357.87","4","fallScene","false","","","","31","",""
"","","","","","html-keyboard-response","123","554714","0.0-18.0-1.6","664e2d4a26686cecdfd660eb","6790928bebf0b969fc839b02","679826872085526a01b5e4e5","passed","","727","","","","","","","","","","","","","","j","yesOrNo","","","","4","","","lp","3000","","31","323.3","297.4070551689986"
"","","","","","html-keyboard-response","124","556512","0.0-18.0-0.7","664e2d4a26686cecdfd660eb","6790928bebf0b969fc839b02","679826872085526a01b5e4e5","passed","","","","","","","","","","","","","","","","","ballFalling","322.3","308.07114317029976","253.89","2","fallScene","true","","","","32","",""
"","","","","","html-keyboard-response","125","559513","0.0-18.0-1.7","664e2d4a26686cecdfd660eb","6790928bebf0b969fc839b02","679826872085526a01b5e4e5","passed","","1127","","","","","","","","","","","","","","j","yesOrNo","","","","2","","","lp","3000","","32","321.3","151"
"","","","","","html-keyboard-response","126","561529","0.0-18.0-0.8","664e2d4a26686cecdfd660eb","6790928bebf0b969fc839b02","679826872085526a01b5e4e5","passed","","","","","","","","","","","","","","","","","ballFalling","604.4000000000001","596.8711431702998","394.5","10","fallScene","false","","","","33","",""
"","","","","","html-keyboard-response","127","564545","0.0-18.0-1.8","664e2d4a26686cecdfd660eb","6790928bebf0b969fc839b02","679826872085526a01b5e4e5","passed","","1470","","","","","","","","","","","","","","j","yesOrNo","","","","10","","","lp","3000","","33","603.4000000000001","215.50214355555383"
"","","","","","html-keyboard-response","128","566096","0.0-18.0-0.9","664e2d4a26686cecdfd660eb","6790928bebf0b969fc839b02","679826872085526a01b5e4e5","passed","","","","","","","","","","","","","","","","","ballFalling","322.3","356.42114317029973","357.87","4","fallScene","true","","","","34","",""
"","","","","","html-keyboard-response","129","569097","0.0-18.0-1.9","664e2d4a26686cecdfd660eb","6790928bebf0b969fc839b02","679826872085526a01b5e4e5","passed","","903","","","","","","","","","","","","","","f","yesOrNo","","","","4","","","mid","3000","","34","390.27114317029975","300"
"","","","","","html-keyboard-response","130","570663","0.0-18.0-0.10","664e2d4a26686cecdfd660eb","6790928bebf0b969fc839b02","679826872085526a01b5e4e5","passed","","","","","","","","","","","","","","","","","ballFalling","500","453.67114317029973","210.33","5","fallScene","false","","","","35","",""
"","","","","","html-keyboard-response","131","573675","0.0-18.0-1.10","664e2d4a26686cecdfd660eb","6790928bebf0b969fc839b02","679826872085526a01b5e4e5","passed","","929","","","","","","","","","","","","","","j","yesOrNo","","","","5","","","mid","3000","","35","499","300"
"","","","","","html-keyboard-response","132","575229","0.0-18.0-0.11","664e2d4a26686cecdfd660eb","6790928bebf0b969fc839b02","679826872085526a01b5e4e5","passed","","","","","","","","","","","","","","","","","ballFalling","322.3","379.3711431702997","245.25","1","fallScene","true","","","","36","",""
"","","","","","html-keyboard-response","133","578230","0.0-18.0-1.11","664e2d4a26686cecdfd660eb","6790928bebf0b969fc839b02","679826872085526a01b5e4e5","passed","","602","","","","","","","","","","","","","","f","yesOrNo","","","","1","","","mid","3000","","36","390.27114317029975","300"
"","","","","","html-keyboard-response","134","580029","0.0-18.0-0.12","664e2d4a26686cecdfd660eb","6790928bebf0b969fc839b02","679826872085526a01b5e4e5","passed","","","","","","","","","","","","","","","","","ballFalling","322.3","308.07114317029976","253.89","2","fallScene","true","","","","37","",""
"","","","","","html-keyboard-response","135","583044","0.0-18.0-1.12","664e2d4a26686cecdfd660eb","6790928bebf0b969fc839b02","679826872085526a01b5e4e5","passed","","826","","","","","","","","","","","","","","f","yesOrNo","","","","2","","","gt","3000","","37","308.07114317029976","253.89"
"","","","","","html-keyboard-response","136","584529","0.0-18.0-0.13","664e2d4a26686cecdfd660eb","6790928bebf0b969fc839b02","679826872085526a01b5e4e5","passed","","","","","","","","","","","","","","","","","ballFalling","604.4000000000001","667.6211431702998","201.78","9","fallScene","true","","","","38","",""
"","","","","","html-keyboard-response","137","587542","0.0-18.0-1.13","664e2d4a26686cecdfd660eb","6790928bebf0b969fc839b02","679826872085526a01b5e4e5","passed","","1334","","","","","","","","","","","","","","f","yesOrNo","","","","9","","","lp","3000","","38","605.4000000000001","151"
"","","","","","html-keyboard-response","138","589096","0.0-18.0-0.14","664e2d4a26686cecdfd660eb","6790928bebf0b969fc839b02","679826872085526a01b5e4e5","passed","","","","","","","","","","","","","","","","","ballFalling","322.3","379.3711431702997","245.25","1","fallScene","true","","","","39","",""
"","","","","","html-keyboard-response","139","592106","0.0-18.0-1.14","664e2d4a26686cecdfd660eb","6790928bebf0b969fc839b02","679826872085526a01b5e4e5","passed","","655","","","","","","","","","","","","","","f","yesOrNo","","","","1","","","gt","3000","","39","379.3711431702997","245.25"
"","","","","","html-keyboard-response","140","593663","0.0-18.0-0.15","664e2d4a26686cecdfd660eb","6790928bebf0b969fc839b02","679826872085526a01b5e4e5","passed","","","","","","","","","","","","","","","","","ballFalling","322.3","296.07114317029976","371.46","3","fallScene","true","","","","40","",""
"","","","","","html-keyboard-response","141","596664","0.0-18.0-1.15","664e2d4a26686cecdfd660eb","6790928bebf0b969fc839b02","679826872085526a01b5e4e5","passed","","1384","","","","","","","","","","","","","","j","yesOrNo","","","","3","","","lp","3000","","40","321.3","287.3327096511259"
"","","","","","html-keyboard-response","142","598229","0.0-18.0-0.16","664e2d4a26686cecdfd660eb","6790928bebf0b969fc839b02","679826872085526a01b5e4e5","passed","","","","","","","","","","","","","","","","","ballFalling","322.3","379.3711431702997","245.25","1","fallScene","true","","","","41","",""
"","","","","","html-keyboard-response","143","601230","0.0-18.0-1.16","664e2d4a26686cecdfd660eb","6790928bebf0b969fc839b02","679826872085526a01b5e4e5","passed","","946","","","","","","","","","","","","","","f","yesOrNo","","","","1","","","mid","3000","","41","390.27114317029975","300"
"","","","","","html-keyboard-response","144","602796","0.0-18.0-0.17","664e2d4a26686cecdfd660eb","6790928bebf0b969fc839b02","679826872085526a01b5e4e5","passed","","","","","","","","","","","","","","","","","ballFalling","322.3","356.42114317029973","357.87","4","fallScene","false","","","","42","",""
"","","","","","html-keyboard-response","145","605808","0.0-18.0-1.17","664e2d4a26686cecdfd660eb","6790928bebf0b969fc839b02","679826872085526a01b5e4e5","passed","","1835","","","","","","","","","","","","","","f","yesOrNo","","","","4","","","gt","3000","","42","356.42114317029973","357.87"
"","","","","","html-keyboard-response","146","607813","0.0-18.0-0.18","664e2d4a26686cecdfd660eb","6790928bebf0b969fc839b02","679826872085526a01b5e4e5","passed","","","","","","","","","","","","","","","","","ballFalling","604.4000000000001","596.8711431702998","394.5","10","fallScene","false","","","","43","",""
"","","","","","html-keyboard-response","147","610823","0.0-18.0-1.18","664e2d4a26686cecdfd660eb","6790928bebf0b969fc839b02","679826872085526a01b5e4e5","passed","","723","","","","","","","","","","","","","","f","yesOrNo","","","","10","","","mid","3000","","43","536.4288568297004","300"
"","","","","","html-keyboard-response","148","612380","0.0-18.0-0.19","664e2d4a26686cecdfd660eb","6790928bebf0b969fc839b02","679826872085526a01b5e4e5","passed","","","","","","","","","","","","","","","","","ballFalling","500","453.67114317029973","210.33","5","fallScene","false","","","","44","",""
"","","","","","html-keyboard-response","149","615393","0.0-18.0-1.19","664e2d4a26686cecdfd660eb","6790928bebf0b969fc839b02","679826872085526a01b5e4e5","passed","","1788","","","","","","","","","","","","","","j","yesOrNo","","","","5","","","mid","3000","","44","499","300"
"","","","","","html-keyboard-response","150","616880","0.0-18.0-0.20","664e2d4a26686cecdfd660eb","6790928bebf0b969fc839b02","679826872085526a01b5e4e5","passed","","","","","","","","","","","","","","","","","ballFalling","604.4000000000001","667.6211431702998","201.78","9","fallScene","false","","","","45","",""
"","","","","","html-keyboard-response","151","619881","0.0-18.0-1.20","664e2d4a26686cecdfd660eb","6790928bebf0b969fc839b02","679826872085526a01b5e4e5","passed","","824","","","","","","","","","","","","","","f","yesOrNo","","","","9","","","gt","3000","","45","667.6211431702998","201.78"
"","","","","","html-keyboard-response","152","621896","0.0-18.0-0.21","664e2d4a26686cecdfd660eb","6790928bebf0b969fc839b02","679826872085526a01b5e4e5","passed","","","","","","","","","","","","","","","","","ballFalling","500","510.8711431702997","369.03","8","fallScene","true","","","","46","",""
"","","","","","html-keyboard-response","153","624909","0.0-18.0-1.21","664e2d4a26686cecdfd660eb","6790928bebf0b969fc839b02","679826872085526a01b5e4e5","passed","","1087","","","","","","","","","","","","","","f","yesOrNo","","","","8","","","lp","3000","","46","501","151"
"","","","","","html-keyboard-response","154","626396","0.0-18.0-0.22","664e2d4a26686cecdfd660eb","6790928bebf0b969fc839b02","679826872085526a01b5e4e5","passed","","","","","","","","","","","","","","","","","ballFalling","604.4000000000001","667.6211431702998","201.78","9","fallScene","true","","","","47","",""
"","","","","","html-keyboard-response","155","629413","0.0-18.0-1.22","664e2d4a26686cecdfd660eb","6790928bebf0b969fc839b02","679826872085526a01b5e4e5","passed","","779","","","","","","","","","","","","","","j","yesOrNo","","","","9","","","mid","3000","","47","605.4000000000001","300"
"","","","","","html-keyboard-response","156","631198","0.0-18.0-0.23","664e2d4a26686cecdfd660eb","6790928bebf0b969fc839b02","679826872085526a01b5e4e5","passed","","","","","","","","","","","","","","","","","ballFalling","322.3","308.07114317029976","253.89","2","fallScene","false","","","","48","",""
"","","","","","html-keyboard-response","157","634213","0.0-18.0-1.23","664e2d4a26686cecdfd660eb","6790928bebf0b969fc839b02","679826872085526a01b5e4e5","passed","","601","","","","","","","","","","","","","","j","yesOrNo","","","","2","","","gt","3000","","48","308.07114317029976","253.89"
"","","","","","html-keyboard-response","158","635513","0.0-19.0","664e2d4a26686cecdfd660eb","6790928bebf0b969fc839b02","679826872085526a01b5e4e5","passed","","1299","","","","","","","","","","","","","<p><span style=""font-size:40px;"">BLOCK 3</span></p><p><span style=""font-size:25px;"">You have <b style=""color: #FF644F;""><strong>1 second(s)</strong></b> to respond to the following trials.</span><br></p><p></p> <!-- Blank line -->
                <p id=""blinking-text"" style=""font-weight; animation: blink 2s infinite;"">Press Space to continue</p>
                <style>
                    @keyframes blink {
                        50% {
                            opacity: 0;
                        }
                    }
                </style></p>"," ","","","","","","","","","","","","",""
"","","","","","html-keyboard-response","159","637063","0.0-20.0-0.0","664e2d4a26686cecdfd660eb","6790928bebf0b969fc839b02","679826872085526a01b5e4e5","passed","","","","","","","","","","","","","","","","","ballFalling","322.3","296.07114317029976","371.46","3","fallScene","false","","","","49","",""
"","","","","","html-keyboard-response","160","638078","0.0-20.0-1.0","664e2d4a26686cecdfd660eb","6790928bebf0b969fc839b02","679826872085526a01b5e4e5","passed","","672","","","","","","","","","","","","","","f","yesOrNo","","","","3","","","gt","1000","","49","296.07114317029976","371.46"
"","","","","","html-keyboard-response","161","639630","0.0-20.0-0.1","664e2d4a26686cecdfd660eb","6790928bebf0b969fc839b02","679826872085526a01b5e4e5","passed","","","","","","","","","","","","","","","","","ballFalling","604.4000000000001","575.4211431702997","266.76","12","fallScene","false","","","","50","",""
"","","","","","html-keyboard-response","162","640645","0.0-20.0-1.1","664e2d4a26686cecdfd660eb","6790928bebf0b969fc839b02","679826872085526a01b5e4e5","passed","","986","","","","","","","","","","","","","","f","yesOrNo","","","","12","","","lp","1000","","50","603.4000000000001","151"
"","","","","","html-keyboard-response","163","642430","0.0-20.0-0.2","664e2d4a26686cecdfd660eb","6790928bebf0b969fc839b02","679826872085526a01b5e4e5","passed","","","","","","","","","","","","","","","","","ballFalling","322.3","308.07114317029976","253.89","2","fallScene","true","","","","51","",""
"","","","","","html-keyboard-response","164","643431","0.0-20.0-1.2","664e2d4a26686cecdfd660eb","6790928bebf0b969fc839b02","679826872085526a01b5e4e5","passed","","586","","","","","","","","","","","","","","j","yesOrNo","","","","2","","","gt","1000","","51","308.07114317029976","253.89"
"","","","","","html-keyboard-response","165","645230","0.0-20.0-0.3","664e2d4a26686cecdfd660eb","6790928bebf0b969fc839b02","679826872085526a01b5e4e5","passed","","","","","","","","","","","","","","","","","ballFalling","322.3","308.07114317029976","253.89","2","fallScene","true","","","","52","",""
"","","","","","html-keyboard-response","166","646242","0.0-20.0-1.3","664e2d4a26686cecdfd660eb","6790928bebf0b969fc839b02","679826872085526a01b5e4e5","passed","","778","","","","","","","","","","","","","","j","yesOrNo","","","","2","","","lp","1000","","52","321.3","151"
"","","","","","html-keyboard-response","167","647796","0.0-20.0-0.4","664e2d4a26686cecdfd660eb","6790928bebf0b969fc839b02","679826872085526a01b5e4e5","passed","","","","","","","","","","","","","","","","","ballFalling","604.4000000000001","650.0211431702996","404.58000000000004","11","fallScene","true","","","","53","",""
"","","","","","html-keyboard-response","168","648808","0.0-20.0-1.4","664e2d4a26686cecdfd660eb","6790928bebf0b969fc839b02","679826872085526a01b5e4e5","passed","","916","","","","","","","","","","","","","","f","yesOrNo","","","","11","","","mid","1000","","53","605.4000000000001","300"
"","","","","","html-keyboard-response","169","650463","0.0-20.0-0.5","664e2d4a26686cecdfd660eb","6790928bebf0b969fc839b02","679826872085526a01b5e4e5","passed","","","","","","","","","","","","","","","","","ballFalling","500","479.92114317029973","330.87","6","fallScene","true","","","","54","",""
"","","","","","html-keyboard-response","170","651477","0.0-20.0-1.5","664e2d4a26686cecdfd660eb","6790928bebf0b969fc839b02","679826872085526a01b5e4e5","passed","","713","","","","","","","","","","","","","","j","yesOrNo","","","","6","","","mid","1000","","54","499","300"
"","","","","","html-keyboard-response","171","653046","0.0-20.0-0.6","664e2d4a26686cecdfd660eb","6790928bebf0b969fc839b02","679826872085526a01b5e4e5","passed","","","","","","","","","","","","","","","","","ballFalling","500","553.4711431702997","282.51","7","fallScene","false","","","","55","",""
"","","","","","html-keyboard-response","172","654061","0.0-20.0-1.6","664e2d4a26686cecdfd660eb","6790928bebf0b969fc839b02","679826872085526a01b5e4e5","passed","","449","","","","","","","","","","","","","","j","yesOrNo","","","","7","","","mid","1000","","55","501","300"
"","","","","","html-keyboard-response","173","655615","0.0-20.0-0.7","664e2d4a26686cecdfd660eb","6790928bebf0b969fc839b02","679826872085526a01b5e4e5","passed","","","","","","","","","","","","","","","","","ballFalling","500","453.67114317029973","210.33","5","fallScene","true","","","","56","",""
"","","","","","html-keyboard-response","174","656622","0.0-20.0-1.7","664e2d4a26686cecdfd660eb","6790928bebf0b969fc839b02","679826872085526a01b5e4e5","passed","","457","","","","","","","","","","","","","","j","yesOrNo","","","","5","","","mid","1000","","56","499","300"
"","","","","","html-keyboard-response","175","658630","0.0-20.0-0.8","664e2d4a26686cecdfd660eb","6790928bebf0b969fc839b02","679826872085526a01b5e4e5","passed","","","","","","","","","","","","","","","","","ballFalling","604.4000000000001","596.8711431702998","394.5","10","fallScene","true","","","","57","",""
"","","","","","html-keyboard-response","176","659631","0.0-20.0-1.8","664e2d4a26686cecdfd660eb","6790928bebf0b969fc839b02","679826872085526a01b5e4e5","passed","","514","","","","","","","","","","","","","","f","yesOrNo","","","","10","","","mid","1000","","57","536.4288568297004","300"
"","","","","","html-keyboard-response","177","661196","0.0-20.0-0.9","664e2d4a26686cecdfd660eb","6790928bebf0b969fc839b02","679826872085526a01b5e4e5","passed","","","","","","","","","","","","","","","","","ballFalling","322.3","379.3711431702997","245.25","1","fallScene","false","","","","58","",""
"","","","","","html-keyboard-response","178","662208","0.0-20.0-1.9","664e2d4a26686cecdfd660eb","6790928bebf0b969fc839b02","679826872085526a01b5e4e5","passed","","571","","","","","","","","","","","","","","f","yesOrNo","","","","1","","","gt","1000","","58","379.3711431702997","245.25"
"","","","","","html-keyboard-response","179","663763","0.0-20.0-0.10","664e2d4a26686cecdfd660eb","6790928bebf0b969fc839b02","679826872085526a01b5e4e5","passed","","","","","","","","","","","","","","","","","ballFalling","604.4000000000001","575.4211431702997","266.76","12","fallScene","false","","","","59","",""
"","","","","","html-keyboard-response","180","664779","0.0-20.0-1.10","664e2d4a26686cecdfd660eb","6790928bebf0b969fc839b02","679826872085526a01b5e4e5","passed","","549","","","","","","","","","","","","","","f","yesOrNo","","","","12","","","mid","1000","","59","536.4288568297004","300"
"","","","","","html-keyboard-response","181","666563","0.0-20.0-0.11","664e2d4a26686cecdfd660eb","6790928bebf0b969fc839b02","679826872085526a01b5e4e5","passed","","","","","","","","","","","","","","","","","ballFalling","322.3","308.07114317029976","253.89","2","fallScene","true","","","","60","",""
"","","","","","html-keyboard-response","182","667577","0.0-20.0-1.11","664e2d4a26686cecdfd660eb","6790928bebf0b969fc839b02","679826872085526a01b5e4e5","passed","","1013","","","","","","","","","","","","","","f","yesOrNo","","","","2","","","mid","1000","","60","321.3","300"
"","","","","","html-keyboard-response","183","669130","0.0-20.0-0.12","664e2d4a26686cecdfd660eb","6790928bebf0b969fc839b02","679826872085526a01b5e4e5","passed","","","","","","","","","","","","","","","","","ballFalling","604.4000000000001","650.0211431702996","404.58000000000004","11","fallScene","true","","","","61","",""
"","","","","","html-keyboard-response","184","670143","0.0-20.0-1.12","664e2d4a26686cecdfd660eb","6790928bebf0b969fc839b02","679826872085526a01b5e4e5","passed","","734","","","","","","","","","","","","","","f","yesOrNo","","","","11","","","lp","1000","","61","605.4000000000001","372.6340973215488"
"","","","","","html-keyboard-response","185","671697","0.0-20.0-0.13","664e2d4a26686cecdfd660eb","6790928bebf0b969fc839b02","679826872085526a01b5e4e5","passed","","","","","","","","","","","","","","","","","ballFalling","322.3","296.07114317029976","371.46","3","fallScene","false","","","","62","",""
"","","","","","html-keyboard-response","186","672713","0.0-20.0-1.13","664e2d4a26686cecdfd660eb","6790928bebf0b969fc839b02","679826872085526a01b5e4e5","passed","","632","","","","","","","","","","","","","","f","yesOrNo","","","","3","","","lp","1000","","62","321.3","287.3327096511259"
"","","","","","html-keyboard-response","187","674263","0.0-20.0-0.14","664e2d4a26686cecdfd660eb","6790928bebf0b969fc839b02","679826872085526a01b5e4e5","passed","","","","","","","","","","","","","","","","","ballFalling","500","453.67114317029973","210.33","5","fallScene","false","","","","63","",""
"","","","","","html-keyboard-response","188","675264","0.0-20.0-1.14","664e2d4a26686cecdfd660eb","6790928bebf0b969fc839b02","679826872085526a01b5e4e5","passed","","593","","","","","","","","","","","","","","f","yesOrNo","","","","5","","","gt","1000","","63","453.6711431702998","210.33"
"","","","","","html-keyboard-response","189","676763","0.0-20.0-0.15","664e2d4a26686cecdfd660eb","6790928bebf0b969fc839b02","679826872085526a01b5e4e5","passed","","","","","","","","","","","","","","","","","ballFalling","604.4000000000001","667.6211431702998","201.78","9","fallScene","true","","","","64","",""
"","","","","","html-keyboard-response","190","677777","0.0-20.0-1.15","664e2d4a26686cecdfd660eb","6790928bebf0b969fc839b02","679826872085526a01b5e4e5","passed","","null","","","","","","","","","","","","","","null","yesOrNo","","","","9","","","mid","1000","","64","605.4000000000001","300"
"","","","","","html-keyboard-response","191","679264","0.0-20.0-0.16","664e2d4a26686cecdfd660eb","6790928bebf0b969fc839b02","679826872085526a01b5e4e5","passed","","","","","","","","","","","","","","","","","ballFalling","604.4000000000001","667.6211431702998","201.78","9","fallScene","false","","","","65","",""
"","","","","","html-keyboard-response","192","680265","0.0-20.0-1.16","664e2d4a26686cecdfd660eb","6790928bebf0b969fc839b02","679826872085526a01b5e4e5","passed","","617","","","","","","","","","","","","","","f","yesOrNo","","","","9","","","lp","1000","","65","605.4000000000001","151"
"","","","","","html-keyboard-response","193","681847","0.0-20.0-0.17","664e2d4a26686cecdfd660eb","6790928bebf0b969fc839b02","679826872085526a01b5e4e5","passed","","","","","","","","","","","","","","","","","ballFalling","500","553.4711431702997","282.51","7","fallScene","true","","","","66","",""
"","","","","","html-keyboard-response","194","682862","0.0-20.0-1.17","664e2d4a26686cecdfd660eb","6790928bebf0b969fc839b02","679826872085526a01b5e4e5","passed","","673","","","","","","","","","","","","","","f","yesOrNo","","","","7","","","gt","1000","","66","553.4711431702997","282.51"
"","","","","","html-keyboard-response","195","684413","0.0-20.0-0.18","664e2d4a26686cecdfd660eb","6790928bebf0b969fc839b02","679826872085526a01b5e4e5","passed","","","","","","","","","","","","","","","","","ballFalling","500","453.67114317029973","210.33","5","fallScene","true","","","","67","",""
"","","","","","html-keyboard-response","196","685422","0.0-20.0-1.18","664e2d4a26686cecdfd660eb","6790928bebf0b969fc839b02","679826872085526a01b5e4e5","passed","","555","","","","","","","","","","","","","","f","yesOrNo","","","","5","","","lp","1000","","67","499","151"
"","","","","","html-keyboard-response","197","686996","0.0-20.0-0.19","664e2d4a26686cecdfd660eb","6790928bebf0b969fc839b02","679826872085526a01b5e4e5","passed","","","","","","","","","","","","","","","","","ballFalling","500","553.4711431702997","282.51","7","fallScene","false","","","","68","",""
"","","","","","html-keyboard-response","198","687997","0.0-20.0-1.19","664e2d4a26686cecdfd660eb","6790928bebf0b969fc839b02","679826872085526a01b5e4e5","passed","","804","","","","","","","","","","","","","","f","yesOrNo","","","","7","","","gt","1000","","68","553.4711431702997","282.51"
"","","","","","html-keyboard-response","199","689563","0.0-20.0-0.20","664e2d4a26686cecdfd660eb","6790928bebf0b969fc839b02","679826872085526a01b5e4e5","passed","","","","","","","","","","","","","","","","","ballFalling","322.3","296.07114317029976","371.46","3","fallScene","false","","","","69","",""
"","","","","","html-keyboard-response","200","690564","0.0-20.0-1.20","664e2d4a26686cecdfd660eb","6790928bebf0b969fc839b02","679826872085526a01b5e4e5","passed","","734","","","","","","","","","","","","","","j","yesOrNo","","","","3","","","lp","1000","","69","321.3","287.3327096511259"
"","","","","","html-keyboard-response","201","692130","0.0-20.0-0.21","664e2d4a26686cecdfd660eb","6790928bebf0b969fc839b02","679826872085526a01b5e4e5","passed","","","","","","","","","","","","","","","","","ballFalling","604.4000000000001","575.4211431702997","266.76","12","fallScene","false","","","","70","",""
"","","","","","html-keyboard-response","202","693146","0.0-20.0-1.21","664e2d4a26686cecdfd660eb","6790928bebf0b969fc839b02","679826872085526a01b5e4e5","passed","","693","","","","","","","","","","","","","","f","yesOrNo","","","","12","","","mid","1000","","70","536.4288568297004","300"
"","","","","","html-keyboard-response","203","694713","0.0-20.0-0.22","664e2d4a26686cecdfd660eb","6790928bebf0b969fc839b02","679826872085526a01b5e4e5","passed","","","","","","","","","","","","","","","","","ballFalling","500","553.4711431702997","282.51","7","fallScene","true","","","","71","",""
"","","","","","html-keyboard-response","204","695721","0.0-20.0-1.22","664e2d4a26686cecdfd660eb","6790928bebf0b969fc839b02","679826872085526a01b5e4e5","passed","","655","","","","","","","","","","","","","","j","yesOrNo","","","","7","","","mid","1000","","71","501","300"
"","","","","","html-keyboard-response","205","697730","0.0-20.0-0.23","664e2d4a26686cecdfd660eb","6790928bebf0b969fc839b02","679826872085526a01b5e4e5","passed","","","","","","","","","","","","","","","","","ballFalling","500","510.8711431702997","369.03","8","fallScene","false","","","","72","",""
"","","","","","html-keyboard-response","206","698731","0.0-20.0-1.23","664e2d4a26686cecdfd660eb","6790928bebf0b969fc839b02","679826872085526a01b5e4e5","passed","","870","","","","","","","","","","","","","","f","yesOrNo","","","","8","","","gt","1000","","72","510.8711431702997","369.03"
"","","","","","html-keyboard-response","207","699897","0.0-21.0","664e2d4a26686cecdfd660eb","6790928bebf0b969fc839b02","679826872085526a01b5e4e5","passed","","1166","","","","","","","","","","","","","<p><span style=""font-size:40px;"">BLOCK 4</span></p><p><span style=""font-size:25px;"">You have <b style=""color: #FF644F;""><strong>3 second(s)</strong></b> to respond to the following trials.</span><br></p><p></p> <!-- Blank line -->
                <p id=""blinking-text"" style=""font-weight; animation: blink 2s infinite;"">Press Space to continue</p>
                <style>
                    @keyframes blink {
                        50% {
                            opacity: 0;
                        }
                    }
                </style></p>"," ","","","","","","","","","","","","",""
"","","","","","html-keyboard-response","208","701913","0.0-22.0-0.0","664e2d4a26686cecdfd660eb","6790928bebf0b969fc839b02","679826872085526a01b5e4e5","passed","","","","","","","","","","","","","","","","","ballFalling","604.4000000000001","596.8711431702998","394.5","10","fallScene","false","","","","73","",""
"","","","","","html-keyboard-response","209","704926","0.0-22.0-1.0","664e2d4a26686cecdfd660eb","6790928bebf0b969fc839b02","679826872085526a01b5e4e5","passed","","910","","","","","","","","","","","","","","j","yesOrNo","","","","10","","","gt","3000","","73","596.8711431702998","394.5"
"","","","","","html-keyboard-response","210","706413","0.0-22.0-0.1","664e2d4a26686cecdfd660eb","6790928bebf0b969fc839b02","679826872085526a01b5e4e5","passed","","","","","","","","","","","","","","","","","ballFalling","604.4000000000001","667.6211431702998","201.78","9","fallScene","false","","","","74","",""
"","","","","","html-keyboard-response","211","709414","0.0-22.0-1.1","664e2d4a26686cecdfd660eb","6790928bebf0b969fc839b02","679826872085526a01b5e4e5","passed","","906","","","","","","","","","","","","","","f","yesOrNo","","","","9","","","lp","3000","","74","605.4000000000001","151"
"","","","","","html-keyboard-response","212","710980","0.0-22.0-0.2","664e2d4a26686cecdfd660eb","6790928bebf0b969fc839b02","679826872085526a01b5e4e5","passed","","","","","","","","","","","","","","","","","ballFalling","322.3","356.42114317029973","357.87","4","fallScene","true","","","","75","",""
"","","","","","html-keyboard-response","213","713996","0.0-22.0-1.2","664e2d4a26686cecdfd660eb","6790928bebf0b969fc839b02","679826872085526a01b5e4e5","passed","","612","","","","","","","","","","","","","","f","yesOrNo","","","","4","","","mid","3000","","75","390.27114317029975","300"
"","","","","","html-keyboard-response","214","715997","0.0-22.0-0.3","664e2d4a26686cecdfd660eb","6790928bebf0b969fc839b02","679826872085526a01b5e4e5","passed","","","","","","","","","","","","","","","","","ballFalling","500","510.8711431702997","369.03","8","fallScene","true","","","","76","",""
"","","","","","html-keyboard-response","215","719007","0.0-22.0-1.3","664e2d4a26686cecdfd660eb","6790928bebf0b969fc839b02","679826872085526a01b5e4e5","passed","","1355","","","","","","","","","","","","","","f","yesOrNo","","","","8","","","gt","3000","","76","510.8711431702997","369.03"
"","","","","","html-keyboard-response","216","720580","0.0-22.0-0.4","664e2d4a26686cecdfd660eb","6790928bebf0b969fc839b02","679826872085526a01b5e4e5","passed","","","","","","","","","","","","","","","","","ballFalling","500","553.4711431702997","282.51","7","fallScene","true","","","","77","",""
"","","","","","html-keyboard-response","217","723581","0.0-22.0-1.4","664e2d4a26686cecdfd660eb","6790928bebf0b969fc839b02","679826872085526a01b5e4e5","passed","","676","","","","","","","","","","","","","","j","yesOrNo","","","","7","","","mid","3000","","77","501","300"
"","","","","","html-keyboard-response","218","725147","0.0-22.0-0.5","664e2d4a26686cecdfd660eb","6790928bebf0b969fc839b02","679826872085526a01b5e4e5","passed","","","","","","","","","","","","","","","","","ballFalling","322.3","379.3711431702997","245.25","1","fallScene","true","","","","78","",""
"","","","","","html-keyboard-response","219","728161","0.0-22.0-1.5","664e2d4a26686cecdfd660eb","6790928bebf0b969fc839b02","679826872085526a01b5e4e5","passed","","861","","","","","","","","","","","","","","j","yesOrNo","","","","1","","","lp","3000","","78","323.3","217.74551669457017"
"","","","","","html-keyboard-response","220","729713","0.0-22.0-0.6","664e2d4a26686cecdfd660eb","6790928bebf0b969fc839b02","679826872085526a01b5e4e5","passed","","","","","","","","","","","","","","","","","ballFalling","604.4000000000001","650.0211431702996","404.58000000000004","11","fallScene","true","","","","79","",""
"","","","","","html-keyboard-response","221","732724","0.0-22.0-1.6","664e2d4a26686cecdfd660eb","6790928bebf0b969fc839b02","679826872085526a01b5e4e5","passed","","758","","","","","","","","","","","","","","f","yesOrNo","","","","11","","","mid","3000","","79","605.4000000000001","300"
"","","","","","html-keyboard-response","222","734213","0.0-22.0-0.7","664e2d4a26686cecdfd660eb","6790928bebf0b969fc839b02","679826872085526a01b5e4e5","passed","","","","","","","","","","","","","","","","","ballFalling","604.4000000000001","667.6211431702998","201.78","9","fallScene","true","","","","80","",""
"","","","","","html-keyboard-response","223","737230","0.0-22.0-1.7","664e2d4a26686cecdfd660eb","6790928bebf0b969fc839b02","679826872085526a01b5e4e5","passed","","1890","","","","","","","","","","","","","","j","yesOrNo","","","","9","","","gt","3000","","80","667.6211431702998","201.78"
"","","","","","html-keyboard-response","224","739247","0.0-22.0-0.8","664e2d4a26686cecdfd660eb","6790928bebf0b969fc839b02","679826872085526a01b5e4e5","passed","","","","","","","","","","","","","","","","","ballFalling","500","510.8711431702997","369.03","8","fallScene","true","","","","81","",""
"","","","","","html-keyboard-response","225","742262","0.0-22.0-1.8","664e2d4a26686cecdfd660eb","6790928bebf0b969fc839b02","679826872085526a01b5e4e5","passed","","1225","","","","","","","","","","","","","","j","yesOrNo","","","","8","","","lp","3000","","81","501","151"
"","","","","","html-keyboard-response","226","743914","0.0-22.0-0.9","664e2d4a26686cecdfd660eb","6790928bebf0b969fc839b02","679826872085526a01b5e4e5","passed","","","","","","","","","","","","","","","","","ballFalling","500","479.92114317029973","330.87","6","fallScene","false","","","","82","",""
"","","","","","html-keyboard-response","227","746924","0.0-22.0-1.9","664e2d4a26686cecdfd660eb","6790928bebf0b969fc839b02","679826872085526a01b5e4e5","passed","","1055","","","","","","","","","","","","","","f","yesOrNo","","","","6","","","gt","3000","","82","479.9211431702998","330.87"
"","","","","","html-keyboard-response","228","748413","0.0-22.0-0.10","664e2d4a26686cecdfd660eb","6790928bebf0b969fc839b02","679826872085526a01b5e4e5","passed","","","","","","","","","","","","","","","","","ballFalling","604.4000000000001","667.6211431702998","201.78","9","fallScene","false","","","","83","",""
"","","","","","html-keyboard-response","229","751426","0.0-22.0-1.10","664e2d4a26686cecdfd660eb","6790928bebf0b969fc839b02","679826872085526a01b5e4e5","passed","","571","","","","","","","","","","","","","","j","yesOrNo","","","","9","","","mid","3000","","83","605.4000000000001","300"
"","","","","","html-keyboard-response","230","752997","0.0-22.0-0.11","664e2d4a26686cecdfd660eb","6790928bebf0b969fc839b02","679826872085526a01b5e4e5","passed","","","","","","","","","","","","","","","","","ballFalling","500","553.4711431702997","282.51","7","fallScene","false","","","","84","",""
"","","","","","html-keyboard-response","231","756007","0.0-22.0-1.11","664e2d4a26686cecdfd660eb","6790928bebf0b969fc839b02","679826872085526a01b5e4e5","passed","","675","","","","","","","","","","","","","","f","yesOrNo","","","","7","","","gt","3000","","84","553.4711431702997","282.51"
"","","","","","html-keyboard-response","232","757663","0.0-22.0-0.12","664e2d4a26686cecdfd660eb","6790928bebf0b969fc839b02","679826872085526a01b5e4e5","passed","","","","","","","","","","","","","","","","","ballFalling","500","479.92114317029973","330.87","6","fallScene","false","","","","85","",""
"","","","","","html-keyboard-response","233","760664","0.0-22.0-1.12","664e2d4a26686cecdfd660eb","6790928bebf0b969fc839b02","679826872085526a01b5e4e5","passed","","489","","","","","","","","","","","","","","j","yesOrNo","","","","6","","","mid","3000","","85","499","300"
"","","","","","html-keyboard-response","234","762230","0.0-22.0-0.13","664e2d4a26686cecdfd660eb","6790928bebf0b969fc839b02","679826872085526a01b5e4e5","passed","","","","","","","","","","","","","","","","","ballFalling","604.4000000000001","650.0211431702996","404.58000000000004","11","fallScene","true","","","","86","",""
"","","","","","html-keyboard-response","235","765246","0.0-22.0-1.13","664e2d4a26686cecdfd660eb","6790928bebf0b969fc839b02","679826872085526a01b5e4e5","passed","","674","","","","","","","","","","","","","","f","yesOrNo","","","","11","","","mid","3000","","86","605.4000000000001","300"
"","","","","","html-keyboard-response","236","767247","0.0-22.0-0.14","664e2d4a26686cecdfd660eb","6790928bebf0b969fc839b02","679826872085526a01b5e4e5","passed","","","","","","","","","","","","","","","","","ballFalling","500","510.8711431702997","369.03","8","fallScene","true","","","","87","",""
"","","","","","html-keyboard-response","237","770261","0.0-22.0-1.14","664e2d4a26686cecdfd660eb","6790928bebf0b969fc839b02","679826872085526a01b5e4e5","passed","","537","","","","","","","","","","","","","","j","yesOrNo","","","","8","","","mid","3000","","87","501","300"
"","","","","","html-keyboard-response","238","771813","0.0-22.0-0.15","664e2d4a26686cecdfd660eb","6790928bebf0b969fc839b02","679826872085526a01b5e4e5","passed","","","","","","","","","","","","","","","","","ballFalling","322.3","296.07114317029976","371.46","3","fallScene","false","","","","88","",""
"","","","","","html-keyboard-response","239","774830","0.0-22.0-1.15","664e2d4a26686cecdfd660eb","6790928bebf0b969fc839b02","679826872085526a01b5e4e5","passed","","579","","","","","","","","","","","","","","j","yesOrNo","","","","3","","","gt","3000","","88","296.07114317029976","371.46"
"","","","","","html-keyboard-response","240","776830","0.0-22.0-0.16","664e2d4a26686cecdfd660eb","6790928bebf0b969fc839b02","679826872085526a01b5e4e5","passed","","","","","","","","","","","","","","","","","ballFalling","604.4000000000001","596.8711431702998","394.5","10","fallScene","true","","","","89","",""
"","","","","","html-keyboard-response","241","779846","0.0-22.0-1.16","664e2d4a26686cecdfd660eb","6790928bebf0b969fc839b02","679826872085526a01b5e4e5","passed","","985","","","","","","","","","","","","","","f","yesOrNo","","","","10","","","lp","3000","","89","603.4000000000001","215.50214355555383"
"","","","","","html-keyboard-response","242","781397","0.0-22.0-0.17","664e2d4a26686cecdfd660eb","6790928bebf0b969fc839b02","679826872085526a01b5e4e5","passed","","","","","","","","","","","","","","","","","ballFalling","604.4000000000001","650.0211431702996","404.58000000000004","11","fallScene","true","","","","90","",""
"","","","","","html-keyboard-response","243","784398","0.0-22.0-1.17","664e2d4a26686cecdfd660eb","6790928bebf0b969fc839b02","679826872085526a01b5e4e5","passed","","691","","","","","","","","","","","","","","j","yesOrNo","","","","11","","","gt","3000","","90","650.0211431702996","404.58"
"","","","","","html-keyboard-response","244","786197","0.0-22.0-0.18","664e2d4a26686cecdfd660eb","6790928bebf0b969fc839b02","679826872085526a01b5e4e5","passed","","","","","","","","","","","","","","","","","ballFalling","322.3","308.07114317029976","253.89","2","fallScene","false","","","","91","",""
"","","","","","html-keyboard-response","245","789201","0.0-22.0-1.18","664e2d4a26686cecdfd660eb","6790928bebf0b969fc839b02","679826872085526a01b5e4e5","passed","","595","","","","","","","","","","","","","","j","yesOrNo","","","","2","","","mid","3000","","91","321.3","300"
"","","","","","html-keyboard-response","246","790997","0.0-22.0-0.19","664e2d4a26686cecdfd660eb","6790928bebf0b969fc839b02","679826872085526a01b5e4e5","passed","","","","","","","","","","","","","","","","","ballFalling","322.3","308.07114317029976","253.89","2","fallScene","false","","","","92","",""
"","","","","","html-keyboard-response","247","794013","0.0-22.0-1.19","664e2d4a26686cecdfd660eb","6790928bebf0b969fc839b02","679826872085526a01b5e4e5","passed","","451","","","","","","","","","","","","","","j","yesOrNo","","","","2","","","mid","3000","","92","321.3","300"
"","","","","","html-keyboard-response","248","795564","0.0-22.0-0.20","664e2d4a26686cecdfd660eb","6790928bebf0b969fc839b02","679826872085526a01b5e4e5","passed","","","","","","","","","","","","","","","","","ballFalling","604.4000000000001","575.4211431702997","266.76","12","fallScene","false","","","","93","",""
"","","","","","html-keyboard-response","249","798578","0.0-22.0-1.20","664e2d4a26686cecdfd660eb","6790928bebf0b969fc839b02","679826872085526a01b5e4e5","passed","","908","","","","","","","","","","","","","","f","yesOrNo","","","","12","","","mid","3000","","93","536.4288568297004","300"
"","","","","","html-keyboard-response","250","800130","0.0-22.0-0.21","664e2d4a26686cecdfd660eb","6790928bebf0b969fc839b02","679826872085526a01b5e4e5","passed","","","","","","","","","","","","","","","","","ballFalling","604.4000000000001","575.4211431702997","266.76","12","fallScene","false","","","","94","",""
"","","","","","html-keyboard-response","251","803147","0.0-22.0-1.21","664e2d4a26686cecdfd660eb","6790928bebf0b969fc839b02","679826872085526a01b5e4e5","passed","","678","","","","","","","","","","","","","","j","yesOrNo","","","","12","","","gt","3000","","94","575.4211431702997","266.76"
"","","","","","html-keyboard-response","252","804697","0.0-22.0-0.22","664e2d4a26686cecdfd660eb","6790928bebf0b969fc839b02","679826872085526a01b5e4e5","passed","","","","","","","","","","","","","","","","","ballFalling","604.4000000000001","575.4211431702997","266.76","12","fallScene","true","","","","95","",""
"","","","","","html-keyboard-response","253","807706","0.0-22.0-1.22","664e2d4a26686cecdfd660eb","6790928bebf0b969fc839b02","679826872085526a01b5e4e5","passed","","735","","","","","","","","","","","","","","f","yesOrNo","","","","12","","","mid","3000","","95","536.4288568297004","300"
"","","","","","html-keyboard-response","254","809263","0.0-22.0-0.23","664e2d4a26686cecdfd660eb","6790928bebf0b969fc839b02","679826872085526a01b5e4e5","passed","","","","","","","","","","","","","","","","","ballFalling","604.4000000000001","650.0211431702996","404.58000000000004","11","fallScene","true","","","","96","",""
"","","","","","html-keyboard-response","255","812276","0.0-22.0-1.23","664e2d4a26686cecdfd660eb","6790928bebf0b969fc839b02","679826872085526a01b5e4e5","passed","","1480","","","","","","","","","","","","","","j","yesOrNo","","","","11","","","lp","3000","","96","605.4000000000001","372.6340973215488"
"","","","","","html-keyboard-response","256","813769","0.0-23.0","664e2d4a26686cecdfd660eb","6790928bebf0b969fc839b02","679826872085526a01b5e4e5","passed","","1493","","","","","","","","","","","","","<p><span style=""font-size:40px;"">BLOCK 5</span></p><p><span style=""font-size:25px;"">You have <b style=""color: #FF644F;""><strong>1 second(s)</strong></b> to respond to the following trials.</span><br></p><p></p> <!-- Blank line -->
                <p id=""blinking-text"" style=""font-weight; animation: blink 2s infinite;"">Press Space to continue</p>
                <style>
                    @keyframes blink {
                        50% {
                            opacity: 0;
                        }
                    }
                </style></p>"," ","","","","","","","","","","","","",""
"","","","","","html-keyboard-response","257","815577","0.0-24.0-0.0","664e2d4a26686cecdfd660eb","6790928bebf0b969fc839b02","679826872085526a01b5e4e5","passed","","","","","","","","","","","","","","","","","ballFalling","322.3","308.07114317029976","253.89","2","fallScene","false","","","","97","",""
"","","","","","html-keyboard-response","258","816580","0.0-24.0-1.0","664e2d4a26686cecdfd660eb","6790928bebf0b969fc839b02","679826872085526a01b5e4e5","passed","","431","","","","","","","","","","","","","","j","yesOrNo","","","","2","","","mid","1000","","97","321.3","300"
"","","","","","html-keyboard-response","259","818247","0.0-24.0-0.1","664e2d4a26686cecdfd660eb","6790928bebf0b969fc839b02","679826872085526a01b5e4e5","passed","","","","","","","","","","","","","","","","","ballFalling","500","479.92114317029973","330.87","6","fallScene","false","","","","98","",""
"","","","","","html-keyboard-response","260","819263","0.0-24.0-1.1","664e2d4a26686cecdfd660eb","6790928bebf0b969fc839b02","679826872085526a01b5e4e5","passed","","801","","","","","","","","","","","","","","j","yesOrNo","","","","6","","","lp","1000","","98","499","189.92909825697632"
"","","","","","html-keyboard-response","261","820814","0.0-24.0-0.2","664e2d4a26686cecdfd660eb","6790928bebf0b969fc839b02","679826872085526a01b5e4e5","passed","","","","","","","","","","","","","","","","","ballFalling","322.3","379.3711431702997","245.25","1","fallScene","false","","","","99","",""
"","","","","","html-keyboard-response","262","821825","0.0-24.0-1.2","664e2d4a26686cecdfd660eb","6790928bebf0b969fc839b02","679826872085526a01b5e4e5","passed","","570","","","","","","","","","","","","","","f","yesOrNo","","","","1","","","mid","1000","","99","390.27114317029975","300"
"","","","","","html-keyboard-response","263","823380","0.0-24.0-0.3","664e2d4a26686cecdfd660eb","6790928bebf0b969fc839b02","679826872085526a01b5e4e5","passed","","","","","","","","","","","","","","","","","ballFalling","322.3","356.42114317029973","357.87","4","fallScene","true","","","","100","",""
"","","","","","html-keyboard-response","264","824394","0.0-24.0-1.3","664e2d4a26686cecdfd660eb","6790928bebf0b969fc839b02","679826872085526a01b5e4e5","passed","","564","","","","","","","","","","","","","","j","yesOrNo","","","","4","","","gt","1000","","100","356.42114317029973","357.87"
"","","","","","html-keyboard-response","265","825880","0.0-24.0-0.4","664e2d4a26686cecdfd660eb","6790928bebf0b969fc839b02","679826872085526a01b5e4e5","passed","","","","","","","","","","","","","","","","","ballFalling","604.4000000000001","667.6211431702998","201.78","9","fallScene","true","","","","101","",""
"","","","","","html-keyboard-response","266","826893","0.0-24.0-1.4","664e2d4a26686cecdfd660eb","6790928bebf0b969fc839b02","679826872085526a01b5e4e5","passed","","991","","","","","","","","","","","","","","j","yesOrNo","","","","9","","","gt","1000","","101","667.6211431702998","201.78"
"","","","","","html-keyboard-response","267","828447","0.0-24.0-0.5","664e2d4a26686cecdfd660eb","6790928bebf0b969fc839b02","679826872085526a01b5e4e5","passed","","","","","","","","","","","","","","","","","ballFalling","322.3","296.07114317029976","371.46","3","fallScene","true","","","","102","",""
"","","","","","html-keyboard-response","268","829463","0.0-24.0-1.5","664e2d4a26686cecdfd660eb","6790928bebf0b969fc839b02","679826872085526a01b5e4e5","passed","","681","","","","","","","","","","","","","","j","yesOrNo","","","","3","","","mid","1000","","102","321.3","300"
"","","","","","html-keyboard-response","269","831014","0.0-24.0-0.6","664e2d4a26686cecdfd660eb","6790928bebf0b969fc839b02","679826872085526a01b5e4e5","passed","","","","","","","","","","","","","","","","","ballFalling","604.4000000000001","575.4211431702997","266.76","12","fallScene","false","","","","103","",""
"","","","","","html-keyboard-response","270","832022","0.0-24.0-1.6","664e2d4a26686cecdfd660eb","6790928bebf0b969fc839b02","679826872085526a01b5e4e5","passed","","514","","","","","","","","","","","","","","j","yesOrNo","","","","12","","","gt","1000","","103","575.4211431702997","266.76"
"","","","","","html-keyboard-response","271","834030","0.0-24.0-0.7","664e2d4a26686cecdfd660eb","6790928bebf0b969fc839b02","679826872085526a01b5e4e5","passed","","","","","","","","","","","","","","","","","ballFalling","500","510.8711431702997","369.03","8","fallScene","false","","","","104","",""
"","","","","","html-keyboard-response","272","835031","0.0-24.0-1.7","664e2d4a26686cecdfd660eb","6790928bebf0b969fc839b02","679826872085526a01b5e4e5","passed","","570","","","","","","","","","","","","","","j","yesOrNo","","","","8","","","mid","1000","","104","501","300"
"","","","","","html-keyboard-response","273","836597","0.0-24.0-0.8","664e2d4a26686cecdfd660eb","6790928bebf0b969fc839b02","679826872085526a01b5e4e5","passed","","","","","","","","","","","","","","","","","ballFalling","322.3","356.42114317029973","357.87","4","fallScene","false","","","","105","",""
"","","","","","html-keyboard-response","274","837609","0.0-24.0-1.8","664e2d4a26686cecdfd660eb","6790928bebf0b969fc839b02","679826872085526a01b5e4e5","passed","","531","","","","","","","","","","","","","","j","yesOrNo","","","","4","","","lp","1000","","105","323.3","297.4070551689986"
"","","","","","html-keyboard-response","275","839164","0.0-24.0-0.9","664e2d4a26686cecdfd660eb","6790928bebf0b969fc839b02","679826872085526a01b5e4e5","passed","","","","","","","","","","","","","","","","","ballFalling","322.3","379.3711431702997","245.25","1","fallScene","false","","","","106","",""
"","","","","","html-keyboard-response","276","840177","0.0-24.0-1.9","664e2d4a26686cecdfd660eb","6790928bebf0b969fc839b02","679826872085526a01b5e4e5","passed","","572","","","","","","","","","","","","","","f","yesOrNo","","","","1","","","mid","1000","","106","390.27114317029975","300"
"","","","","","html-keyboard-response","277","842181","0.0-24.0-0.10","664e2d4a26686cecdfd660eb","6790928bebf0b969fc839b02","679826872085526a01b5e4e5","passed","","","","","","","","","","","","","","","","","ballFalling","604.4000000000001","596.8711431702998","394.5","10","fallScene","true","","","","107","",""
"","","","","","html-keyboard-response","278","843192","0.0-24.0-1.10","664e2d4a26686cecdfd660eb","6790928bebf0b969fc839b02","679826872085526a01b5e4e5","passed","","611","","","","","","","","","","","","","","f","yesOrNo","","","","10","","","lp","1000","","107","603.4000000000001","215.50214355555383"
"","","","","","html-keyboard-response","279","845197","0.0-24.0-0.11","664e2d4a26686cecdfd660eb","6790928bebf0b969fc839b02","679826872085526a01b5e4e5","passed","","","","","","","","","","","","","","","","","ballFalling","500","510.8711431702997","369.03","8","fallScene","true","","","","108","",""
"","","","","","html-keyboard-response","280","846207","0.0-24.0-1.11","664e2d4a26686cecdfd660eb","6790928bebf0b969fc839b02","679826872085526a01b5e4e5","passed","","554","","","","","","","","","","","","","","j","yesOrNo","","","","8","","","gt","1000","","108","510.8711431702997","369.03"
"","","","","","html-keyboard-response","281","847764","0.0-24.0-0.12","664e2d4a26686cecdfd660eb","6790928bebf0b969fc839b02","679826872085526a01b5e4e5","passed","","","","","","","","","","","","","","","","","ballFalling","322.3","356.42114317029973","357.87","4","fallScene","false","","","","109","",""
"","","","","","html-keyboard-response","282","848776","0.0-24.0-1.12","664e2d4a26686cecdfd660eb","6790928bebf0b969fc839b02","679826872085526a01b5e4e5","passed","","804","","","","","","","","","","","","","","f","yesOrNo","","","","4","","","mid","1000","","109","390.27114317029975","300"
"","","","","","html-keyboard-response","283","850564","0.0-24.0-0.13","664e2d4a26686cecdfd660eb","6790928bebf0b969fc839b02","679826872085526a01b5e4e5","passed","","","","","","","","","","","","","","","","","ballFalling","322.3","308.07114317029976","253.89","2","fallScene","true","","","","110","",""
"","","","","","html-keyboard-response","284","851576","0.0-24.0-1.13","664e2d4a26686cecdfd660eb","6790928bebf0b969fc839b02","679826872085526a01b5e4e5","passed","","548","","","","","","","","","","","","","","j","yesOrNo","","","","2","","","gt","1000","","110","308.07114317029976","253.89"
"","","","","","html-keyboard-response","285","853364","0.0-24.0-0.14","664e2d4a26686cecdfd660eb","6790928bebf0b969fc839b02","679826872085526a01b5e4e5","passed","","","","","","","","","","","","","","","","","ballFalling","322.3","308.07114317029976","253.89","2","fallScene","false","","","","111","",""
"","","","","","html-keyboard-response","286","854368","0.0-24.0-1.14","664e2d4a26686cecdfd660eb","6790928bebf0b969fc839b02","679826872085526a01b5e4e5","passed","","708","","","","","","","","","","","","","","j","yesOrNo","","","","2","","","lp","1000","","111","321.3","151"
"","","","","","html-keyboard-response","287","856030","0.0-24.0-0.15","664e2d4a26686cecdfd660eb","6790928bebf0b969fc839b02","679826872085526a01b5e4e5","passed","","","","","","","","","","","","","","","","","ballFalling","500","479.92114317029973","330.87","6","fallScene","false","","","","112","",""
"","","","","","html-keyboard-response","288","857042","0.0-24.0-1.15","664e2d4a26686cecdfd660eb","6790928bebf0b969fc839b02","679826872085526a01b5e4e5","passed","","810","","","","","","","","","","","","","","j","yesOrNo","","","","6","","","gt","1000","","112","479.9211431702998","330.87"
"","","","","","html-keyboard-response","289","859048","0.0-24.0-0.16","664e2d4a26686cecdfd660eb","6790928bebf0b969fc839b02","679826872085526a01b5e4e5","passed","","","","","","","","","","","","","","","","","ballFalling","604.4000000000001","596.8711431702998","394.5","10","fallScene","true","","","","113","",""
"","","","","","html-keyboard-response","290","860062","0.0-24.0-1.16","664e2d4a26686cecdfd660eb","6790928bebf0b969fc839b02","679826872085526a01b5e4e5","passed","","null","","","","","","","","","","","","","","null","yesOrNo","","","","10","","","gt","1000","","113","596.8711431702998","394.5"
"","","","","","html-keyboard-response","291","862064","0.0-24.0-0.17","664e2d4a26686cecdfd660eb","6790928bebf0b969fc839b02","679826872085526a01b5e4e5","passed","","","","","","","","","","","","","","","","","ballFalling","500","510.8711431702997","369.03","8","fallScene","false","","","","114","",""
"","","","","","html-keyboard-response","292","863078","0.0-24.0-1.17","664e2d4a26686cecdfd660eb","6790928bebf0b969fc839b02","679826872085526a01b5e4e5","passed","","null","","","","","","","","","","","","","","null","yesOrNo","","","","8","","","lp","1000","","114","501","151"
"","","","","","html-keyboard-response","293","864631","0.0-24.0-0.18","664e2d4a26686cecdfd660eb","6790928bebf0b969fc839b02","679826872085526a01b5e4e5","passed","","","","","","","","","","","","","","","","","ballFalling","500","453.67114317029973","210.33","5","fallScene","true","","","","115","",""
"","","","","","html-keyboard-response","294","865647","0.0-24.0-1.18","664e2d4a26686cecdfd660eb","6790928bebf0b969fc839b02","679826872085526a01b5e4e5","passed","","833","","","","","","","","","","","","","","j","yesOrNo","","","","5","","","lp","1000","","115","499","151"
"","","","","","html-keyboard-response","295","867297","0.0-24.0-0.19","664e2d4a26686cecdfd660eb","6790928bebf0b969fc839b02","679826872085526a01b5e4e5","passed","","","","","","","","","","","","","","","","","ballFalling","500","479.92114317029973","330.87","6","fallScene","true","","","","116","",""
"","","","","","html-keyboard-response","296","868307","0.0-24.0-1.19","664e2d4a26686cecdfd660eb","6790928bebf0b969fc839b02","679826872085526a01b5e4e5","passed","","631","","","","","","","","","","","","","","j","yesOrNo","","","","6","","","mid","1000","","116","499","300"
"","","","","","html-keyboard-response","297","869864","0.0-24.0-0.20","664e2d4a26686cecdfd660eb","6790928bebf0b969fc839b02","679826872085526a01b5e4e5","passed","","","","","","","","","","","","","","","","","ballFalling","500","453.67114317029973","210.33","5","fallScene","true","","","","117","",""
"","","","","","html-keyboard-response","298","870879","0.0-24.0-1.20","664e2d4a26686cecdfd660eb","6790928bebf0b969fc839b02","679826872085526a01b5e4e5","passed","","816","","","","","","","","","","","","","","j","yesOrNo","","","","5","","","mid","1000","","117","499","300"
"","","","","","html-keyboard-response","299","872431","0.0-24.0-0.21","664e2d4a26686cecdfd660eb","6790928bebf0b969fc839b02","679826872085526a01b5e4e5","passed","","","","","","","","","","","","","","","","","ballFalling","604.4000000000001","650.0211431702996","404.58000000000004","11","fallScene","false","","","","118","",""
"","","","","","html-keyboard-response","300","873446","0.0-24.0-1.21","664e2d4a26686cecdfd660eb","6790928bebf0b969fc839b02","679826872085526a01b5e4e5","passed","","null","","","","","","","","","","","","","","null","yesOrNo","","","","11","","","gt","1000","","118","650.0211431702996","404.58"
"","","","","","html-keyboard-response","301","874997","0.0-24.0-0.22","664e2d4a26686cecdfd660eb","6790928bebf0b969fc839b02","679826872085526a01b5e4e5","passed","","","","","","","","","","","","","","","","","ballFalling","322.3","356.42114317029973","357.87","4","fallScene","true","","","","119","",""
"","","","","","html-keyboard-response","302","876008","0.0-24.0-1.22","664e2d4a26686cecdfd660eb","6790928bebf0b969fc839b02","679826872085526a01b5e4e5","passed","","515","","","","","","","","","","","","","","j","yesOrNo","","","","4","","","lp","1000","","119","323.3","297.4070551689986"
"","","","","","html-keyboard-response","303","877497","0.0-24.0-0.23","664e2d4a26686cecdfd660eb","6790928bebf0b969fc839b02","679826872085526a01b5e4e5","passed","","","","","","","","","","","","","","","","","ballFalling","604.4000000000001","667.6211431702998","201.78","9","fallScene","false","","","","120","",""
"","","","","","html-keyboard-response","304","878507","0.0-24.0-1.23","664e2d4a26686cecdfd660eb","6790928bebf0b969fc839b02","679826872085526a01b5e4e5","passed","","815","","","","","","","","","","","","","","f","yesOrNo","","","","9","","","lp","1000","","120","605.4000000000001","151"
"","","","","","html-keyboard-response","305","879689","0.0-25.0","664e2d4a26686cecdfd660eb","6790928bebf0b969fc839b02","679826872085526a01b5e4e5","passed","","1182","","","","","","","","","","","","","<p><span style=""font-size:40px;"">BLOCK 6</span></p><p><span style=""font-size:25px;"">You have <b style=""color: #FF644F;""><strong>1 second(s)</strong></b> to respond to the following trials.</span><br></p><p></p> <!-- Blank line -->
                <p id=""blinking-text"" style=""font-weight; animation: blink 2s infinite;"">Press Space to continue</p>
                <style>
                    @keyframes blink {
                        50% {
                            opacity: 0;
                        }
                    }
                </style></p>"," ","","","","","","","","","","","","",""
"","","","","","html-keyboard-response","306","881264","0.0-26.0-0.0","664e2d4a26686cecdfd660eb","6790928bebf0b969fc839b02","679826872085526a01b5e4e5","passed","","","","","","","","","","","","","","","","","ballFalling","500","553.4711431702997","282.51","7","fallScene","true","","","","121","",""
"","","","","","html-keyboard-response","307","882277","0.0-26.0-1.0","664e2d4a26686cecdfd660eb","6790928bebf0b969fc839b02","679826872085526a01b5e4e5","passed","","600","","","","","","","","","","","","","","j","yesOrNo","","","","7","","","lp","1000","","121","501","227.2843295913261"
