"success","timeout","failed_images","failed_audio","failed_video","trial_type","trial_index","time_elapsed","internal_node_id","subject_id","study_id","session_id","practiceTestResult","view_history","rt","width","height","webaudio","browser","browser_version","mobile","os","fullscreen","vsync_rate","webcam","microphone","url","stimulus","response","task","ball_X","obstacle_groundTruth_x","obstacle_groundTruth_y","stimulus_idx","trial_name","flipped","choice","timeLimit","question_order","comprehensionCheck","currentTrial","obstacle_choice_x","obstacle_choice_y"
"true","false","[]","[]","[]","preload","0","141","0.0-0.0","66632c69d2b270f0314a0b16","6790928bebf0b969fc839b02","6798270434806627f49de7ca","passed","","","","","","","","","","","","","","","","","","","","","","","","","","","","","",""
"","","","","","instructions","1","12167","0.0-1.0","66632c69d2b270f0314a0b16","6790928bebf0b969fc839b02","6798270434806627f49de7ca","passed","[{""page_index"":0,""viewing_time"":12023}]","12024","","","","","","","","","","","","","","","","","","","","","","","","","","","",""
"","","","","","browser-check","2","12689","0.0-2.0","66632c69d2b270f0314a0b16","6790928bebf0b969fc839b02","6798270434806627f49de7ca","passed","","","1077","1094","true","chrome","129.0.0","false","Windows 10","true","118.02","true","true","","","","","","","","","","","","","","","","",""
"","","","","","external-html","3","17565","0.0-3.0","66632c69d2b270f0314a0b16","6790928bebf0b969fc839b02","6798270434806627f49de7ca","passed","","4374","","","","","","","","","","","","consent.html","","","","","","","","","","","","","","","",""
"true","","","","","fullscreen","4","20329","0.0-4.0","66632c69d2b270f0314a0b16","6790928bebf0b969fc839b02","6798270434806627f49de7ca","passed","","2459","","","","","","","","","","","","","","","","","","","","","","","","","","","",""
"","","","","","browser-check","5","20833","0.0-5.0","66632c69d2b270f0314a0b16","6790928bebf0b969fc839b02","6798270434806627f49de7ca","passed","","","2304","1296","true","chrome","129.0.0","false","Windows 10","true","120.24","true","true","","","","","","","","","","","","","","","","",""
"","","","","","html-keyboard-response","6","26836","0.0-6.0","66632c69d2b270f0314a0b16","6790928bebf0b969fc839b02","6798270434806627f49de7ca","passed","","5999","","","","","","","","","","","","","<p><b>This experiment requires keyboard input.</b></p> 
        <p><b>To ensure your response will be recorded successfully, please press 'Space' to continue.</b></p>
        <p>If you can't proceed, you won't be able to complete this study.</p>
        <p></p> <!-- Blank line -->
        <p id=""blinking-text"" style=""font-weight; animation: blink 2s infinite;"">Press Space to continue</p>
        <style>
            @keyframes blink {
                50% {
                    opacity: 0;
                }
            }
        </style>"," ","","","","","","","","","","","","","",""
"","","","","","html-keyboard-response","7","33078","0.0-7.0","66632c69d2b270f0314a0b16","6790928bebf0b969fc839b02","6798270434806627f49de7ca","passed","","6233","","","","","","","","","","","","","<p><b>This experiment requires keyboard input.</b></p> 
        <p><b>To ensure your response will be recorded successfully, please press the 'f' key to continue.</b></p>
        <p>If you can't proceed, you won't be able to complete this study.</p>
        <p></p> <!-- Blank line -->
        <p id=""blinking-text"" style=""font-weight; animation: blink 2s infinite;"">Press f to continue</p>
        <style>
            @keyframes blink {
                50% {
                    opacity: 0;
                }
            }
        </style>","f","","","","","","","","","","","","","",""
"","","","","","html-keyboard-response","8","35114","0.0-8.0","66632c69d2b270f0314a0b16","6790928bebf0b969fc839b02","6798270434806627f49de7ca","passed","","2026","","","","","","","","","","","","","<p><b>This experiment requires keyboard input.</b></p> 
        <p><b>To ensure your response will be recorded successfully, please press the 'j' key to continue.</b></p>
        <p>If you can't proceed, you won't be able to complete this study.</p>
        <p></p> <!-- Blank line -->
        <p id=""blinking-text"" style=""font-weight; animation: blink 2s infinite;"">Press j to continue</p>
        <style>
            @keyframes blink {
                50% {
                    opacity: 0;
                }
            }
        </style>","j","","","","","","","","","","","","","",""
"","","","","","browser-check","9","35617","0.0-9.0","66632c69d2b270f0314a0b16","6790928bebf0b969fc839b02","6798270434806627f49de7ca","passed","","","1077","1094","true","chrome","129.0.0","false","Windows 10","true","122.82","true","true","","","","","","","","","","","","","","","","",""
"","","","","","survey-text","10","45881","0.0-10.0","66632c69d2b270f0314a0b16","6790928bebf0b969fc839b02","6798270434806627f49de7ca","passed","","10251","","","","","","","","","","","","","","{""prolificID"":""66632c69d2b270f0314a0b16""}","","","","","","","","","","","","","",""
"","","","","","instructions","11","137526","0.0-11.0-0.0-0.0","66632c69d2b270f0314a0b16","6790928bebf0b969fc839b02","6798270434806627f49de7ca","passed","[{""page_index"":0,""viewing_time"":29823},{""page_index"":1,""viewing_time"":41027},{""page_index"":2,""viewing_time"":7927},{""page_index"":3,""viewing_time"":12864}]","91644","","","","","","","","","","","","","","","","","","","","","","","","","","","",""
"","","","","","html-keyboard-response","12","150616","0.0-11.0-0.0-1.0","66632c69d2b270f0314a0b16","6790928bebf0b969fc839b02","6798270434806627f49de7ca","passed","","12570","","","","","","","","","","","","","<br>Remember! After a ball falls, the screen will disappear, and you'll decide if the proposed position is where the hidden triangle was. <br>You will now practice this by watching a few videos and making decisions.<p>To respond:<br style=""margin-bottom: 5px; text-indent: -20px; padding-left: 20px;"">- Press <b style=""color: #12AD2B;"">J for Yes</b>, if you think the triangle is in the correct position.<br style=""margin-top: 0; text-indent: -20px; padding-left: 20px;"">- Press <b style=""color: orange;"">F for No</b>, if you think the triangle is not in the correct position.</p><p>In this practice round, there is no time limit. Focus on getting comfortable with the task first.<br>Press either J or F to begin your practice trials.</p><img src = ""YesOrNo_instruction.png"" style=""width: 65%;""></img>","f","","","","","","","","","","","","","",""
"","","","","","html-keyboard-response","13","152612","0.0-11.0-0.0-2.0-0.0","66632c69d2b270f0314a0b16","6790928bebf0b969fc839b02","6798270434806627f49de7ca","passed","","","","","","","","","","","","","","","","","ballFalling_prac","660","666","350","3","fallScene","false","","","","","","",""
"","","","","","html-keyboard-response","14","154481","0.0-11.0-0.0-2.0-1.0","66632c69d2b270f0314a0b16","6790928bebf0b969fc839b02","6798270434806627f49de7ca","passed","","1847","","","","","","","","","","","","","","j","yesOrNo_prac_noTimed","","","","3","","","wrong direction","NA","","","","",""
"","","","","","html-keyboard-response","15","156044","0.0-11.0-0.0-2.0-0.1","66632c69d2b270f0314a0b16","6790928bebf0b969fc839b02","6798270434806627f49de7ca","passed","","","","","","","","","","","","","","","","","ballFalling_prac","416","464","296","1","fallScene","false","","","","","","",""
"","","","","","html-keyboard-response","16","157160","0.0-11.0-0.0-2.0-1.1","66632c69d2b270f0314a0b16","6790928bebf0b969fc839b02","6798270434806627f49de7ca","passed","","1108","","","","","","","","","","","","","","j","yesOrNo_prac_noTimed","","","","1","","","gt","NA","","","","",""
"","","","","","html-keyboard-response","17","158732","0.0-11.0-0.0-2.0-0.2","66632c69d2b270f0314a0b16","6790928bebf0b969fc839b02","6798270434806627f49de7ca","passed","","","","","","","","","","","","","","","","","ballFalling_prac","441","414","302","5","fallScene","true","","","","","","",""
"","","","","","html-keyboard-response","18","159658","0.0-11.0-0.0-2.0-1.2","66632c69d2b270f0314a0b16","6790928bebf0b969fc839b02","6798270434806627f49de7ca","passed","","920","","","","","","","","","","","","","","j","yesOrNo_prac_noTimed","","","","5","","","close gt","NA","","","","",""
"","","","","","instructions","19","187818","0.0-11.0-0.0-3.0","66632c69d2b270f0314a0b16","6790928bebf0b969fc839b02","6798270434806627f49de7ca","passed","[{""page_index"":0,""viewing_time"":24460},{""page_index"":1,""viewing_time"":3696}]","28157","","","","","","","","","","","","","","","","","","","","","","","","","","","",""
"","","","","","html-button-response","20","190091","0.0-11.0-0.0-4.0","66632c69d2b270f0314a0b16","6790928bebf0b969fc839b02","6798270434806627f49de7ca","passed","","1769","","","","","","","","","","","","","<p>To make sure you understood the task, we just have a <b>brief quiz</b> here.</p><p>If you need to review the instructions, click 'Previous'.</p><p>It's important to understand the task to do the study, so you have to pass the quiz to move to the study.</p>","1","","","","","","","","","","","","","",""
"","","","","","survey-multi-choice","21","213229","0.0-11.0-1.0-0.0","66632c69d2b270f0314a0b16","6790928bebf0b969fc839b02","6798270434806627f49de7ca","passed","","23133","","","","","","","","","","","","","","{""generalProcedure"":""Watch a video of a ball falling, some of it behind a gray screen. After each video, decide if the triangle is at the spot where the ball hit the triangle behind the screen. There is time limit for the response.""}","","","","","","","","","","[0]","","","",""
"","","","","","survey-multi-choice","22","218427","0.0-11.0-1.0-1.0","66632c69d2b270f0314a0b16","6790928bebf0b969fc839b02","6798270434806627f49de7ca","passed","","5192","","","","","","","","","","","","","","{""checkBallHitObstacle"":""No.""}","","","","","","","","","","[0]","","","",""
"","","","","","survey-multi-choice","23","221877","0.0-11.0-1.0-2.0","66632c69d2b270f0314a0b16","6790928bebf0b969fc839b02","6798270434806627f49de7ca","passed","","3444","","","","","","","","","","","","","","{""checkTriangleVisibility"":""No, the triangle is hidden behind the gray screen.""}","","","","","","","","","","[0]","","","",""
"","","","","","survey-multi-choice","24","225957","0.0-11.0-1.0-3.0","66632c69d2b270f0314a0b16","6790928bebf0b969fc839b02","6798270434806627f49de7ca","passed","","4073","","","","","","","","","","","","","","{""checkTimedResponse"":""Your response will not be recorded, and the trial will move to the next one.""}","","","","","","","","","","[0]","","","",""
"","","","","","survey-multi-choice","25","237980","0.0-11.0-1.0-4.0","66632c69d2b270f0314a0b16","6790928bebf0b969fc839b02","6798270434806627f49de7ca","passed","","12017","","","","","","","","","","","","","","{""checkTimeBlockNotice"":""At the end of each block.""}","","","","","","","","","","[0]","","","",""
"","","","","","survey-multi-choice","26","246178","0.0-11.0-1.0-5.0","66632c69d2b270f0314a0b16","6790928bebf0b969fc839b02","6798270434806627f49de7ca","passed","","8191","","","","","","","","","","","","","","{""checkTimeBlockSameness"":""No, the time limit changes for each trial within a block.""}","","","","","","","","","","[0]","","","",""
"","","","","","survey-multi-choice","27","271212","0.0-11.0-1.0-6.0","66632c69d2b270f0314a0b16","6790928bebf0b969fc839b02","6798270434806627f49de7ca","passed","","25028","","","","","","","","","","","","","","{""checkTrianglePrecision"":""No. The proposed purple triangle is not in the correct position because it doesn't match the location of the white triangle exactly.""}","","","","","","","","","","[0]","","","",""
"","","","","","html-button-response","28","273469","0.0-11.0-2.0-0.0","66632c69d2b270f0314a0b16","6790928bebf0b969fc839b02","6798270434806627f49de7ca","passed","","2249","","","","","","","","","","","","","<p>Oops! You did not pass the quiz.</p><p>You will now repeat the instructions and practice.</p>","0","","","","","","","","","","","failed","","",""
"","","","","","instructions","29","335100","0.0-11.1-0.1-0.1","66632c69d2b270f0314a0b16","6790928bebf0b969fc839b02","6798270434806627f49de7ca","passed","[{""page_index"":0,""viewing_time"":34273},{""page_index"":1,""viewing_time"":10808},{""page_index"":2,""viewing_time"":3112},{""page_index"":3,""viewing_time"":13436}]","61630","","","","","","","","","","","","","","","","","","","","","","","","","","","",""
"","","","","","html-keyboard-response","30","342493","0.0-11.1-0.1-1.1","66632c69d2b270f0314a0b16","6790928bebf0b969fc839b02","6798270434806627f49de7ca","passed","","6877","","","","","","","","","","","","","<br>Remember! After a ball falls, the screen will disappear, and you'll decide if the proposed position is where the hidden triangle was. <br>You will now practice this by watching a few videos and making decisions.<p>To respond:<br style=""margin-bottom: 5px; text-indent: -20px; padding-left: 20px;"">- Press <b style=""color: #12AD2B;"">J for Yes</b>, if you think the triangle is in the correct position.<br style=""margin-top: 0; text-indent: -20px; padding-left: 20px;"">- Press <b style=""color: orange;"">F for No</b>, if you think the triangle is not in the correct position.</p><p>In this practice round, there is no time limit. Focus on getting comfortable with the task first.<br>Press either J or F to begin your practice trials.</p><img src = ""YesOrNo_instruction.png"" style=""width: 65%;""></img>","j","","","","","","","","","","","","","",""
"","","","","","html-keyboard-response","31","344615","0.0-11.1-0.1-2.1-0.3","66632c69d2b270f0314a0b16","6790928bebf0b969fc839b02","6798270434806627f49de7ca","passed","","","","","","","","","","","","","","","","","ballFalling_prac","660","666","350","3","fallScene","false","","","","","","",""
"","","","","","html-keyboard-response","32","346292","0.0-11.1-0.1-2.1-1.3","66632c69d2b270f0314a0b16","6790928bebf0b969fc839b02","6798270434806627f49de7ca","passed","","1668","","","","","","","","","","","","","","j","yesOrNo_prac_noTimed","","","","3","","","wrong direction","NA","","","","",""
"","","","","","html-keyboard-response","33","347849","0.0-11.1-0.1-2.1-0.4","66632c69d2b270f0314a0b16","6790928bebf0b969fc839b02","6798270434806627f49de7ca","passed","","","","","","","","","","","","","","","","","ballFalling_prac","416","464","296","1","fallScene","false","","","","","","",""
"","","","","","html-keyboard-response","34","349182","0.0-11.1-0.1-2.1-1.4","66632c69d2b270f0314a0b16","6790928bebf0b969fc839b02","6798270434806627f49de7ca","passed","","1326","","","","","","","","","","","","","","j","yesOrNo_prac_noTimed","","","","1","","","gt","NA","","","","",""
"","","","","","html-keyboard-response","35","350756","0.0-11.1-0.1-2.1-0.5","66632c69d2b270f0314a0b16","6790928bebf0b969fc839b02","6798270434806627f49de7ca","passed","","","","","","","","","","","","","","","","","ballFalling_prac","441","414","302","5","fallScene","true","","","","","","",""
"","","","","","html-keyboard-response","36","351437","0.0-11.1-0.1-2.1-1.5","66632c69d2b270f0314a0b16","6790928bebf0b969fc839b02","6798270434806627f49de7ca","passed","","674","","","","","","","","","","","","","","j","yesOrNo_prac_noTimed","","","","5","","","close gt","NA","","","","",""
"","","","","","instructions","37","415144","0.0-11.1-0.1-3.1","66632c69d2b270f0314a0b16","6790928bebf0b969fc839b02","6798270434806627f49de7ca","passed","[{""page_index"":0,""viewing_time"":40169},{""page_index"":1,""viewing_time"":23534}]","63704","","","","","","","","","","","","","","","","","","","","","","","","","","","",""
"","","","","","html-button-response","38","417341","0.0-11.1-0.1-4.1","66632c69d2b270f0314a0b16","6790928bebf0b969fc839b02","6798270434806627f49de7ca","passed","","1686","","","","","","","","","","","","","<p>To make sure you understood the task, we just have a <b>brief quiz</b> here.</p><p>If you need to review the instructions, click 'Previous'.</p><p>It's important to understand the task to do the study, so you have to pass the quiz to move to the study.</p>","1","","","","","","","","","","","","","",""
"","","","","","survey-multi-choice","39","428983","0.0-11.1-1.1-0.1","66632c69d2b270f0314a0b16","6790928bebf0b969fc839b02","6798270434806627f49de7ca","passed","","11638","","","","","","","","","","","","","","{""generalProcedure"":""Watch a video of a ball falling, some of it behind a gray screen. After each video, decide if the triangle is at the spot where the ball hit the triangle behind the screen. There is time limit for the response.""}","","","","","","","","","","[0]","","","",""
"","","","","","survey-multi-choice","40","432373","0.0-11.1-1.1-1.1","66632c69d2b270f0314a0b16","6790928bebf0b969fc839b02","6798270434806627f49de7ca","passed","","3384","","","","","","","","","","","","","","{""checkBallHitObstacle"":""Yes.""}","","","","","","","","","","[0]","","","",""
"","","","","","survey-multi-choice","41","437585","0.0-11.1-1.1-2.1","66632c69d2b270f0314a0b16","6790928bebf0b969fc839b02","6798270434806627f49de7ca","passed","","5207","","","","","","","","","","","","","","{""checkTriangleVisibility"":""No, the triangle is hidden behind the gray screen.""}","","","","","","","","","","[0]","","","",""
"","","","","","survey-multi-choice","42","444388","0.0-11.1-1.1-3.1","66632c69d2b270f0314a0b16","6790928bebf0b969fc839b02","6798270434806627f49de7ca","passed","","6797","","","","","","","","","","","","","","{""checkTimedResponse"":""Your response will not be recorded, and the trial will move to the next one.""}","","","","","","","","","","[0]","","","",""
"","","","","","survey-multi-choice","43","459546","0.0-11.1-1.1-4.1","66632c69d2b270f0314a0b16","6790928bebf0b969fc839b02","6798270434806627f49de7ca","passed","","15152","","","","","","","","","","","","","","{""checkTimeBlockNotice"":""At the beginning of each block.""}","","","","","","","","","","[0]","","","",""
"","","","","","survey-multi-choice","44","466122","0.0-11.1-1.1-5.1","66632c69d2b270f0314a0b16","6790928bebf0b969fc839b02","6798270434806627f49de7ca","passed","","6570","","","","","","","","","","","","","","{""checkTimeBlockSameness"":""Yes, the time limit is the same for all trials within a block.""}","","","","","","","","","","[0]","","","",""
"","","","","","survey-multi-choice","45","470667","0.0-11.1-1.1-6.1","66632c69d2b270f0314a0b16","6790928bebf0b969fc839b02","6798270434806627f49de7ca","passed","","4538","","","","","","","","","","","","","","{""checkTrianglePrecision"":""No. The proposed purple triangle is not in the correct position because it doesn't match the location of the white triangle exactly.""}","","","","","","","","","","[0]","","","",""
"","","","","","instructions","46","507005","0.0-12.0","66632c69d2b270f0314a0b16","6790928bebf0b969fc839b02","6798270434806627f49de7ca","passed","[{""page_index"":0,""viewing_time"":14483},{""page_index"":1,""viewing_time"":6606},{""page_index"":2,""viewing_time"":9961},{""page_index"":3,""viewing_time"":5280}]","36330","","","","","","","","","","","","","","","","","","","","","","","","","","","",""
"","","","","","instructions","47","517991","0.0-13.0-0.0","66632c69d2b270f0314a0b16","6790928bebf0b969fc839b02","6798270434806627f49de7ca","passed","[{""page_index"":0,""viewing_time"":10985}]","10986","","","","","","","","","","","","","","","","","","","","","","","","","","","",""
"","","","","","html-keyboard-response","48","521041","0.0-13.0-1.0","66632c69d2b270f0314a0b16","6790928bebf0b969fc839b02","6798270434806627f49de7ca","passed","","3047","","","","","","","","","","","","","<p><span style=""font-size:40px;"">Practice BLOCK 1</span></p><p><span style=""font-size:25px;"">You have <b style=""color: #FF644F;""><strong>3 second(s)</strong></b> to respond to the following trials.</span><br></p><p id=""blinking-text"" style=""font-weight; animation: blink 2s infinite;"">Press Space to continue</p><style>
                    @keyframes blink {
                        50% {
                            opacity: 0;
                        }
                    }
                </style>"," ","","","","","","","","","","","","","",""
"","","","","","html-keyboard-response","49","522620","0.0-13.0-2.0-0.0","66632c69d2b270f0314a0b16","6790928bebf0b969fc839b02","6798270434806627f49de7ca","passed","","","","","","","","","","","","","","","","","ballFalling_prac","584","536","296","1","fallScene","true","","","","","","",""
"","","","","","html-keyboard-response","50","525638","0.0-13.0-2.0-1.0","66632c69d2b270f0314a0b16","6790928bebf0b969fc839b02","6798270434806627f49de7ca","passed","","880","","","","","","","","","","","","","","j","yesOrNo_prac","","","","1","","","close gt","3000","","","","",""
"","","","","","html-keyboard-response","51","527193","0.0-13.0-2.0-0.1","66632c69d2b270f0314a0b16","6790928bebf0b969fc839b02","6798270434806627f49de7ca","passed","","","","","","","","","","","","","","","","","ballFalling_prac","416","464","296","1","fallScene","false","","","","","","",""
"","","","","","html-keyboard-response","52","530202","0.0-13.0-2.0-1.1","66632c69d2b270f0314a0b16","6790928bebf0b969fc839b02","6798270434806627f49de7ca","passed","","1082","","","","","","","","","","","","","","j","yesOrNo_prac","","","","1","","","far gt","3000","","","","",""
"","","","","","html-keyboard-response","53","531774","0.0-13.0-2.0-0.2","66632c69d2b270f0314a0b16","6790928bebf0b969fc839b02","6798270434806627f49de7ca","passed","","","","","","","","","","","","","","","","","ballFalling_prac","660","610","263","4","fallScene","false","","","","","","",""
"","","","","","html-keyboard-response","54","534782","0.0-13.0-2.0-1.2","66632c69d2b270f0314a0b16","6790928bebf0b969fc839b02","6798270434806627f49de7ca","passed","","763","","","","","","","","","","","","","","j","yesOrNo_prac","","","","4","","","gt","3000","","","","",""
"","","","","","html-keyboard-response","55","536589","0.0-13.0-3.0","66632c69d2b270f0314a0b16","6790928bebf0b969fc839b02","6798270434806627f49de7ca","passed","","1804","","","","","","","","","","","","","<p><span style=""font-size:40px;"">Practice BLOCK 2</span></p><p><span style=""font-size:25px;"">You have <b style=""color: #FF644F;""><strong>1 second(s)</strong></b> to respond to the following trials.</span><br></p><p id=""blinking-text"" style=""font-weight; animation: blink 2s infinite;"">Press Space to continue</p><style>
                    @keyframes blink {
                        50% {
                            opacity: 0;
                        }
                    }
                </style>"," ","","","","","","","","","","","","","",""
"","","","","","html-keyboard-response","56","538163","0.0-13.0-4.0-0.0","66632c69d2b270f0314a0b16","6790928bebf0b969fc839b02","6798270434806627f49de7ca","passed","","","","","","","","","","","","","","","","","ballFalling_prac","441","500","317","6","fallScene","true","","","","","","",""
"","","","","","html-keyboard-response","57","539173","0.0-13.0-4.0-1.0","66632c69d2b270f0314a0b16","6790928bebf0b969fc839b02","6798270434806627f49de7ca","passed","","null","","","","","","","","","","","","","","null","yesOrNo_prac","","","","6","","","gt","1000","","","","",""
"","","","","","html-keyboard-response","58","541278","0.0-13.0-4.0-0.1","66632c69d2b270f0314a0b16","6790928bebf0b969fc839b02","6798270434806627f49de7ca","passed","","","","","","","","","","","","","","","","","ballFalling_prac","340","334","350","3","fallScene","true","","","","","","",""
"","","","","","html-keyboard-response","59","542287","0.0-13.0-4.0-1.1","66632c69d2b270f0314a0b16","6790928bebf0b969fc839b02","6798270434806627f49de7ca","passed","","704","","","","","","","","","","","","","","f","yesOrNo_prac","","","","3","","","close gt","1000","","","","",""
"","","","","","html-keyboard-response","60","543859","0.0-13.0-4.0-0.2","66632c69d2b270f0314a0b16","6790928bebf0b969fc839b02","6798270434806627f49de7ca","passed","","","","","","","","","","","","","","","","","ballFalling_prac","660","610","263","4","fallScene","false","","","","","","",""
"","","","","","html-keyboard-response","61","544869","0.0-13.0-4.0-1.2","66632c69d2b270f0314a0b16","6790928bebf0b969fc839b02","6798270434806627f49de7ca","passed","","582","","","","","","","","","","","","","","j","yesOrNo_prac","","","","4","","","far gt","1000","","","","",""
"","","","","","instructions","62","549549","0.0-13.0-5.0","66632c69d2b270f0314a0b16","6790928bebf0b969fc839b02","6798270434806627f49de7ca","passed","[{""page_index"":0,""viewing_time"":4676}]","4677","","","","","","","","","","","","","","","","","","","","","","","","","","","",""
"","","","","","html-keyboard-response","63","552683","0.0-13.0-6.0","66632c69d2b270f0314a0b16","6790928bebf0b969fc839b02","6798270434806627f49de7ca","passed","","3132","","","","","","","","","","","","","<p><span style=""font-size:40px;"">Practice Test BLOCK 1</span></p><p><span style=""font-size:25px;"">You have <b style=""color: #FF644F;""><strong>1 second(s)</strong></b> to respond to the following trials.</span><br></p><p id=""blinking-text"" style=""font-weight; animation: blink 2s infinite;"">Press Space to continue</p><style>
                    @keyframes blink {
                        50% {
                            opacity: 0;
                        }
                    }
                </style>"," ","","","","","","","","","","","","","",""
"","","","","","html-keyboard-response","64","554260","0.0-13.0-7.0-0.0","66632c69d2b270f0314a0b16","6790928bebf0b969fc839b02","6798270434806627f49de7ca","passed","","","","","","","","","","","","","","","","","ballFalling_prac","340","390","263","4","fallScene","true","","","","","","",""
"","","","","","html-keyboard-response","65","555271","0.0-13.0-7.0-1.0","66632c69d2b270f0314a0b16","6790928bebf0b969fc839b02","6798270434806627f49de7ca","passed","","628","","","","","","","","","","","","","","j","yesOrNo_prac","","","","4","","","far gt","1000","","","","",""
"","","","","","html-keyboard-response","66","556857","0.0-13.0-7.0-0.1","66632c69d2b270f0314a0b16","6790928bebf0b969fc839b02","6798270434806627f49de7ca","passed","","","","","","","","","","","","","","","","","ballFalling_prac","559","586","302","5","fallScene","false","","","","","","",""
"","","","","","html-keyboard-response","67","557868","0.0-13.0-7.0-1.1","66632c69d2b270f0314a0b16","6790928bebf0b969fc839b02","6798270434806627f49de7ca","passed","","714","","","","","","","","","","","","","","f","yesOrNo_prac","","","","5","","","gt","1000","","","","",""
"","","","","","html-keyboard-response","68","559432","0.0-13.0-7.0-0.2","66632c69d2b270f0314a0b16","6790928bebf0b969fc839b02","6798270434806627f49de7ca","passed","","","","","","","","","","","","","","","","","ballFalling_prac","441","500","317","6","fallScene","true","","","","","","",""
"","","","","","html-keyboard-response","69","560442","0.0-13.0-7.0-1.2","66632c69d2b270f0314a0b16","6790928bebf0b969fc839b02","6798270434806627f49de7ca","passed","","514","","","","","","","","","","","","","","j","yesOrNo_prac","","","","6","","","close gt","1000","","","","",""
"","","","","","html-keyboard-response","70","561636","0.0-13.0-8.0","66632c69d2b270f0314a0b16","6790928bebf0b969fc839b02","6798270434806627f49de7ca","passed","","1191","","","","","","","","","","","","","<p><span style=""font-size:40px;"">Practice Test BLOCK 2</span></p><p><span style=""font-size:25px;"">You have <b style=""color: #FF644F;""><strong>3 second(s)</strong></b> to respond to the following trials.</span><br></p><p id=""blinking-text"" style=""font-weight; animation: blink 2s infinite;"">Press Space to continue</p><style>
                    @keyframes blink {
                        50% {
                            opacity: 0;
                        }
                    }
                </style>"," ","","","","","","","","","","","","","",""
"","","","","","html-keyboard-response","71","563213","0.0-13.0-9.0-0.0","66632c69d2b270f0314a0b16","6790928bebf0b969fc839b02","6798270434806627f49de7ca","passed","","","","","","","","","","","","","","","","","ballFalling_prac","559","586","302","5","fallScene","false","","","","","","",""
"","","","","","html-keyboard-response","72","566226","0.0-13.0-9.0-1.0","66632c69d2b270f0314a0b16","6790928bebf0b969fc839b02","6798270434806627f49de7ca","passed","","529","","","","","","","","","","","","","","j","yesOrNo_prac","","","","5","","","far gt","3000","","","","",""
"","","","","","html-keyboard-response","73","567802","0.0-13.0-9.0-0.1","66632c69d2b270f0314a0b16","6790928bebf0b969fc839b02","6798270434806627f49de7ca","passed","","","","","","","","","","","","","","","","","ballFalling_prac","340","390","263","4","fallScene","true","","","","","","",""
"","","","","","html-keyboard-response","74","570810","0.0-13.0-9.0-1.1","66632c69d2b270f0314a0b16","6790928bebf0b969fc839b02","6798270434806627f49de7ca","passed","","776","","","","","","","","","","","","","","j","yesOrNo_prac","","","","4","","","close gt","3000","","","","",""
"","","","","","html-keyboard-response","75","572391","0.0-13.0-9.0-0.2","66632c69d2b270f0314a0b16","6790928bebf0b969fc839b02","6798270434806627f49de7ca","passed","","","","","","","","","","","","","","","","","ballFalling_prac","416","365","249","2","fallScene","false","","","","","","",""
"","","","","","html-keyboard-response","76","575399","0.0-13.0-9.0-1.2","66632c69d2b270f0314a0b16","6790928bebf0b969fc839b02","6798270434806627f49de7ca","passed","","1153","","","","","","","","","","","","","","f","yesOrNo_prac","","","","2","","","gt","3000","","","","",""
"","","","","","instructions","77","579603","0.0-14.0","66632c69d2b270f0314a0b16","6790928bebf0b969fc839b02","6798270434806627f49de7ca","passed","[{""page_index"":0,""viewing_time"":4192}]","4193","","","","","","","","","","","","","","","","","","","","","","","","","","","",""
"","","","","","html-keyboard-response","78","581002","0.0-15.0","66632c69d2b270f0314a0b16","6790928bebf0b969fc839b02","6798270434806627f49de7ca","passed","","1396","","","","","","","","","","","","","<p><span style=""font-size:40px;"">BLOCK 1</span></p><p><span style=""font-size:25px;"">You have <b style=""color: #FF644F;""><strong>1 second(s)</strong></b> to respond to the following trials.</span><br></p><p></p> <!-- Blank line -->
                <p id=""blinking-text"" style=""font-weight; animation: blink 2s infinite;"">Press Space to continue</p>
                <style>
                    @keyframes blink {
                        50% {
                            opacity: 0;
                        }
                    }
                </style></p>"," ","","","","","","","","","","","","","",""
"","","","","","html-keyboard-response","79","582565","0.0-16.0-0.0","66632c69d2b270f0314a0b16","6790928bebf0b969fc839b02","6798270434806627f49de7ca","passed","","","","","","","","","","","","","","","","","ballFalling","322.3","356.42114317029973","357.87","4","fallScene","false","","","","","1","",""
"","","","","","html-keyboard-response","80","583575","0.0-16.0-1.0","66632c69d2b270f0314a0b16","6790928bebf0b969fc839b02","6798270434806627f49de7ca","passed","","764","","","","","","","","","","","","","","f","yesOrNo","","","","4","","","gt","1000","","","1","356.42114317029973","357.87"
"","","","","","html-keyboard-response","81","585372","0.0-16.0-0.1","66632c69d2b270f0314a0b16","6790928bebf0b969fc839b02","6798270434806627f49de7ca","passed","","","","","","","","","","","","","","","","","ballFalling","322.3","308.07114317029976","253.89","2","fallScene","false","","","","","2","",""
"","","","","","html-keyboard-response","82","586381","0.0-16.0-1.1","66632c69d2b270f0314a0b16","6790928bebf0b969fc839b02","6798270434806627f49de7ca","passed","","648","","","","","","","","","","","","","","f","yesOrNo","","","","2","","","mid","1000","","","2","321.3","300"
"","","","","","html-keyboard-response","83","587938","0.0-16.0-0.2","66632c69d2b270f0314a0b16","6790928bebf0b969fc839b02","6798270434806627f49de7ca","passed","","","","","","","","","","","","","","","","","ballFalling","604.4000000000001","575.4211431702997","266.76","12","fallScene","false","","","","","3","",""
"","","","","","html-keyboard-response","84","588946","0.0-16.0-1.2","66632c69d2b270f0314a0b16","6790928bebf0b969fc839b02","6798270434806627f49de7ca","passed","","440","","","","","","","","","","","","","","j","yesOrNo","","","","12","","","mid","1000","","","3","536.4288568297004","300"
"","","","","","html-keyboard-response","85","590503","0.0-16.0-0.3","66632c69d2b270f0314a0b16","6790928bebf0b969fc839b02","6798270434806627f49de7ca","passed","","","","","","","","","","","","","","","","","ballFalling","322.3","356.42114317029973","357.87","4","fallScene","false","","","","","4","",""
"","","","","","html-keyboard-response","86","591508","0.0-16.0-1.3","66632c69d2b270f0314a0b16","6790928bebf0b969fc839b02","6798270434806627f49de7ca","passed","","848","","","","","","","","","","","","","","f","yesOrNo","","","","4","","","mid","1000","","","4","390.27114317029975","300"
"","","","","","html-keyboard-response","87","593168","0.0-16.0-0.4","66632c69d2b270f0314a0b16","6790928bebf0b969fc839b02","6798270434806627f49de7ca","passed","","","","","","","","","","","","","","","","","ballFalling","500","479.92114317029973","330.87","6","fallScene","true","","","","","5","",""
"","","","","","html-keyboard-response","88","594173","0.0-16.0-1.4","66632c69d2b270f0314a0b16","6790928bebf0b969fc839b02","6798270434806627f49de7ca","passed","","823","","","","","","","","","","","","","","f","yesOrNo","","","","6","","","lp","1000","","","5","499","189.92909825697632"
"","","","","","html-keyboard-response","89","595733","0.0-16.0-0.5","66632c69d2b270f0314a0b16","6790928bebf0b969fc839b02","6798270434806627f49de7ca","passed","","","","","","","","","","","","","","","","","ballFalling","604.4000000000001","650.0211431702996","404.58000000000004","11","fallScene","false","","","","","6","",""
"","","","","","html-keyboard-response","90","596741","0.0-16.0-1.5","66632c69d2b270f0314a0b16","6790928bebf0b969fc839b02","6798270434806627f49de7ca","passed","","692","","","","","","","","","","","","","","f","yesOrNo","","","","11","","","mid","1000","","","6","605.4000000000001","300"
"","","","","","html-keyboard-response","91","598306","0.0-16.0-0.6","66632c69d2b270f0314a0b16","6790928bebf0b969fc839b02","6798270434806627f49de7ca","passed","","","","","","","","","","","","","","","","","ballFalling","322.3","296.07114317029976","371.46","3","fallScene","false","","","","","7","",""
"","","","","","html-keyboard-response","92","599312","0.0-16.0-1.6","66632c69d2b270f0314a0b16","6790928bebf0b969fc839b02","6798270434806627f49de7ca","passed","","526","","","","","","","","","","","","","","j","yesOrNo","","","","3","","","mid","1000","","","7","321.3","300"
"","","","","","html-keyboard-response","93","600872","0.0-16.0-0.7","66632c69d2b270f0314a0b16","6790928bebf0b969fc839b02","6798270434806627f49de7ca","passed","","","","","","","","","","","","","","","","","ballFalling","604.4000000000001","650.0211431702996","404.58000000000004","11","fallScene","false","","","","","8","",""
"","","","","","html-keyboard-response","94","601880","0.0-16.0-1.7","66632c69d2b270f0314a0b16","6790928bebf0b969fc839b02","6798270434806627f49de7ca","passed","","739","","","","","","","","","","","","","","f","yesOrNo","","","","11","","","lp","1000","","","8","605.4000000000001","372.6340973215488"
"","","","","","html-keyboard-response","95","603445","0.0-16.0-0.8","66632c69d2b270f0314a0b16","6790928bebf0b969fc839b02","6798270434806627f49de7ca","passed","","","","","","","","","","","","","","","","","ballFalling","604.4000000000001","575.4211431702997","266.76","12","fallScene","true","","","","","9","",""
"","","","","","html-keyboard-response","96","604453","0.0-16.0-1.8","66632c69d2b270f0314a0b16","6790928bebf0b969fc839b02","6798270434806627f49de7ca","passed","","713","","","","","","","","","","","","","","f","yesOrNo","","","","12","","","lp","1000","","","9","603.4000000000001","151"
"","","","","","html-keyboard-response","97","606019","0.0-16.0-0.9","66632c69d2b270f0314a0b16","6790928bebf0b969fc839b02","6798270434806627f49de7ca","passed","","","","","","","","","","","","","","","","","ballFalling","604.4000000000001","575.4211431702997","266.76","12","fallScene","true","","","","","10","",""
"","","","","","html-keyboard-response","98","607028","0.0-16.0-1.9","66632c69d2b270f0314a0b16","6790928bebf0b969fc839b02","6798270434806627f49de7ca","passed","","670","","","","","","","","","","","","","","f","yesOrNo","","","","12","","","lp","1000","","","10","603.4000000000001","151"
"","","","","","html-keyboard-response","99","609042","0.0-16.0-0.10","66632c69d2b270f0314a0b16","6790928bebf0b969fc839b02","6798270434806627f49de7ca","passed","","","","","","","","","","","","","","","","","ballFalling","500","510.8711431702997","369.03","8","fallScene","true","","","","","11","",""
"","","","","","html-keyboard-response","100","610052","0.0-16.0-1.10","66632c69d2b270f0314a0b16","6790928bebf0b969fc839b02","6798270434806627f49de7ca","passed","","522","","","","","","","","","","","","","","j","yesOrNo","","","","8","","","mid","1000","","","11","501","300"
"","","","","","html-keyboard-response","101","611715","0.0-16.0-0.11","66632c69d2b270f0314a0b16","6790928bebf0b969fc839b02","6798270434806627f49de7ca","passed","","","","","","","","","","","","","","","","","ballFalling","500","479.92114317029973","330.87","6","fallScene","true","","","","","12","",""
"","","","","","html-keyboard-response","102","612724","0.0-16.0-1.11","66632c69d2b270f0314a0b16","6790928bebf0b969fc839b02","6798270434806627f49de7ca","passed","","833","","","","","","","","","","","","","","f","yesOrNo","","","","6","","","lp","1000","","","12","499","189.92909825697632"
"","","","","","html-keyboard-response","103","614280","0.0-16.0-0.12","66632c69d2b270f0314a0b16","6790928bebf0b969fc839b02","6798270434806627f49de7ca","passed","","","","","","","","","","","","","","","","","ballFalling","500","453.67114317029973","210.33","5","fallScene","false","","","","","13","",""
"","","","","","html-keyboard-response","104","615290","0.0-16.0-1.12","66632c69d2b270f0314a0b16","6790928bebf0b969fc839b02","6798270434806627f49de7ca","passed","","422","","","","","","","","","","","","","","j","yesOrNo","","","","5","","","gt","1000","","","13","453.6711431702998","210.33"
"","","","","","html-keyboard-response","105","616846","0.0-16.0-0.13","66632c69d2b270f0314a0b16","6790928bebf0b969fc839b02","6798270434806627f49de7ca","passed","","","","","","","","","","","","","","","","","ballFalling","500","453.67114317029973","210.33","5","fallScene","true","","","","","14","",""
"","","","","","html-keyboard-response","106","617854","0.0-16.0-1.13","66632c69d2b270f0314a0b16","6790928bebf0b969fc839b02","6798270434806627f49de7ca","passed","","920","","","","","","","","","","","","","","j","yesOrNo","","","","5","","","gt","1000","","","14","453.6711431702998","210.33"
"","","","","","html-keyboard-response","107","619644","0.0-16.0-0.14","66632c69d2b270f0314a0b16","6790928bebf0b969fc839b02","6798270434806627f49de7ca","passed","","","","","","","","","","","","","","","","","ballFalling","322.3","308.07114317029976","253.89","2","fallScene","true","","","","","15","",""
"","","","","","html-keyboard-response","108","620650","0.0-16.0-1.14","66632c69d2b270f0314a0b16","6790928bebf0b969fc839b02","6798270434806627f49de7ca","passed","","772","","","","","","","","","","","","","","f","yesOrNo","","","","2","","","mid","1000","","","15","321.3","300"
"","","","","","html-keyboard-response","109","622226","0.0-16.0-0.15","66632c69d2b270f0314a0b16","6790928bebf0b969fc839b02","6798270434806627f49de7ca","passed","","","","","","","","","","","","","","","","","ballFalling","500","553.4711431702997","282.51","7","fallScene","true","","","","","16","",""
"","","","","","html-keyboard-response","110","623232","0.0-16.0-1.15","66632c69d2b270f0314a0b16","6790928bebf0b969fc839b02","6798270434806627f49de7ca","passed","","564","","","","","","","","","","","","","","j","yesOrNo","","","","7","","","gt","1000","","","16","553.4711431702997","282.51"
"","","","","","html-keyboard-response","111","624810","0.0-16.0-0.16","66632c69d2b270f0314a0b16","6790928bebf0b969fc839b02","6798270434806627f49de7ca","passed","","","","","","","","","","","","","","","","","ballFalling","500","553.4711431702997","282.51","7","fallScene","false","","","","","17","",""
"","","","","","html-keyboard-response","112","625818","0.0-16.0-1.16","66632c69d2b270f0314a0b16","6790928bebf0b969fc839b02","6798270434806627f49de7ca","passed","","780","","","","","","","","","","","","","","j","yesOrNo","","","","7","","","gt","1000","","","17","553.4711431702997","282.51"
"","","","","","html-keyboard-response","113","627373","0.0-16.0-0.17","66632c69d2b270f0314a0b16","6790928bebf0b969fc839b02","6798270434806627f49de7ca","passed","","","","","","","","","","","","","","","","","ballFalling","322.3","379.3711431702997","245.25","1","fallScene","true","","","","","18","",""
"","","","","","html-keyboard-response","114","628379","0.0-16.0-1.17","66632c69d2b270f0314a0b16","6790928bebf0b969fc839b02","6798270434806627f49de7ca","passed","","597","","","","","","","","","","","","","","j","yesOrNo","","","","1","","","gt","1000","","","18","379.3711431702997","245.25"
"","","","","","html-keyboard-response","115","629939","0.0-16.0-0.18","66632c69d2b270f0314a0b16","6790928bebf0b969fc839b02","6798270434806627f49de7ca","passed","","","","","","","","","","","","","","","","","ballFalling","604.4000000000001","650.0211431702996","404.58000000000004","11","fallScene","false","","","","","19","",""
"","","","","","html-keyboard-response","116","630947","0.0-16.0-1.18","66632c69d2b270f0314a0b16","6790928bebf0b969fc839b02","6798270434806627f49de7ca","passed","","816","","","","","","","","","","","","","","j","yesOrNo","","","","11","","","lp","1000","","","19","605.4000000000001","372.6340973215488"
"","","","","","html-keyboard-response","117","632962","0.0-16.0-0.19","66632c69d2b270f0314a0b16","6790928bebf0b969fc839b02","6798270434806627f49de7ca","passed","","","","","","","","","","","","","","","","","ballFalling","500","510.8711431702997","369.03","8","fallScene","false","","","","","20","",""
"","","","","","html-keyboard-response","118","633971","0.0-16.0-1.19","66632c69d2b270f0314a0b16","6790928bebf0b969fc839b02","6798270434806627f49de7ca","passed","","263","","","","","","","","","","","","","","f","yesOrNo","","","","8","","","lp","1000","","","20","501","151"
"","","","","","html-keyboard-response","119","635527","0.0-16.0-0.20","66632c69d2b270f0314a0b16","6790928bebf0b969fc839b02","6798270434806627f49de7ca","passed","","","","","","","","","","","","","","","","","ballFalling","322.3","379.3711431702997","245.25","1","fallScene","true","","","","","21","",""
"","","","","","html-keyboard-response","120","636535","0.0-16.0-1.20","66632c69d2b270f0314a0b16","6790928bebf0b969fc839b02","6798270434806627f49de7ca","passed","","264","","","","","","","","","","","","","","j","yesOrNo","","","","1","","","mid","1000","","","21","390.27114317029975","300"
"","","","","","html-keyboard-response","121","638198","0.0-16.0-0.21","66632c69d2b270f0314a0b16","6790928bebf0b969fc839b02","6798270434806627f49de7ca","passed","","","","","","","","","","","","","","","","","ballFalling","500","479.92114317029973","330.87","6","fallScene","false","","","","","22","",""
"","","","","","html-keyboard-response","122","639204","0.0-16.0-1.21","66632c69d2b270f0314a0b16","6790928bebf0b969fc839b02","6798270434806627f49de7ca","passed","","301","","","","","","","","","","","","","","j","yesOrNo","","","","6","","","mid","1000","","","22","499","300"
"","","","","","html-keyboard-response","123","640764","0.0-16.0-0.22","66632c69d2b270f0314a0b16","6790928bebf0b969fc839b02","6798270434806627f49de7ca","passed","","","","","","","","","","","","","","","","","ballFalling","322.3","379.3711431702997","245.25","1","fallScene","false","","","","","23","",""
"","","","","","html-keyboard-response","124","641774","0.0-16.0-1.22","66632c69d2b270f0314a0b16","6790928bebf0b969fc839b02","6798270434806627f49de7ca","passed","","372","","","","","","","","","","","","","","j","yesOrNo","","","","1","","","lp","1000","","","23","323.3","217.74551669457017"
"","","","","","html-keyboard-response","125","643571","0.0-16.0-0.23","66632c69d2b270f0314a0b16","6790928bebf0b969fc839b02","6798270434806627f49de7ca","passed","","","","","","","","","","","","","","","","","ballFalling","322.3","308.07114317029976","253.89","2","fallScene","true","","","","","24","",""
"","","","","","html-keyboard-response","126","644577","0.0-16.0-1.23","66632c69d2b270f0314a0b16","6790928bebf0b969fc839b02","6798270434806627f49de7ca","passed","","399","","","","","","","","","","","","","","f","yesOrNo","","","","2","","","gt","1000","","","24","308.07114317029976","253.89"
"","","","","","html-keyboard-response","127","647145","0.0-17.0","66632c69d2b270f0314a0b16","6790928bebf0b969fc839b02","6798270434806627f49de7ca","passed","","2566","","","","","","","","","","","","","<p><span style=""font-size:40px;"">BLOCK 2</span></p><p><span style=""font-size:25px;"">You have <b style=""color: #FF644F;""><strong>3 second(s)</strong></b> to respond to the following trials.</span><br></p><p></p> <!-- Blank line -->
                <p id=""blinking-text"" style=""font-weight; animation: blink 2s infinite;"">Press Space to continue</p>
                <style>
                    @keyframes blink {
                        50% {
                            opacity: 0;
                        }
                    }
                </style></p>"," ","","","","","","","","","","","","","",""
"","","","","","html-keyboard-response","128","648710","0.0-18.0-0.0","66632c69d2b270f0314a0b16","6790928bebf0b969fc839b02","6798270434806627f49de7ca","passed","","","","","","","","","","","","","","","","","ballFalling","322.3","296.07114317029976","371.46","3","fallScene","false","","","","","25","",""
"","","","","","html-keyboard-response","129","651718","0.0-18.0-1.0","66632c69d2b270f0314a0b16","6790928bebf0b969fc839b02","6798270434806627f49de7ca","passed","","887","","","","","","","","","","","","","","j","yesOrNo","","","","3","","","gt","3000","","","25","296.07114317029976","371.46"
"","","","","","html-keyboard-response","130","653724","0.0-18.0-0.1","66632c69d2b270f0314a0b16","6790928bebf0b969fc839b02","6798270434806627f49de7ca","passed","","","","","","","","","","","","","","","","","ballFalling","500","510.8711431702997","369.03","8","fallScene","false","","","","","26","",""
"","","","","","html-keyboard-response","131","656733","0.0-18.0-1.1","66632c69d2b270f0314a0b16","6790928bebf0b969fc839b02","6798270434806627f49de7ca","passed","","1672","","","","","","","","","","","","","","j","yesOrNo","","","","8","","","mid","3000","","","26","501","300"
"","","","","","html-keyboard-response","132","658262","0.0-18.0-0.2","66632c69d2b270f0314a0b16","6790928bebf0b969fc839b02","6798270434806627f49de7ca","passed","","","","","","","","","","","","","","","","","ballFalling","604.4000000000001","667.6211431702998","201.78","9","fallScene","true","","","","","27","",""
"","","","","","html-keyboard-response","133","661270","0.0-18.0-1.2","66632c69d2b270f0314a0b16","6790928bebf0b969fc839b02","6798270434806627f49de7ca","passed","","1338","","","","","","","","","","","","","","j","yesOrNo","","","","9","","","gt","3000","","","27","667.6211431702998","201.78"
"","","","","","html-keyboard-response","134","662827","0.0-18.0-0.3","66632c69d2b270f0314a0b16","6790928bebf0b969fc839b02","6798270434806627f49de7ca","passed","","","","","","","","","","","","","","","","","ballFalling","322.3","296.07114317029976","371.46","3","fallScene","true","","","","","28","",""
"","","","","","html-keyboard-response","135","665834","0.0-18.0-1.3","66632c69d2b270f0314a0b16","6790928bebf0b969fc839b02","6798270434806627f49de7ca","passed","","1648","","","","","","","","","","","","","","j","yesOrNo","","","","3","","","mid","3000","","","28","321.3","300"
"","","","","","html-keyboard-response","136","667399","0.0-18.0-0.4","66632c69d2b270f0314a0b16","6790928bebf0b969fc839b02","6798270434806627f49de7ca","passed","","","","","","","","","","","","","","","","","ballFalling","322.3","379.3711431702997","245.25","1","fallScene","false","","","","","29","",""
"","","","","","html-keyboard-response","137","670407","0.0-18.0-1.4","66632c69d2b270f0314a0b16","6790928bebf0b969fc839b02","6798270434806627f49de7ca","passed","","1063","","","","","","","","","","","","","","j","yesOrNo","","","","1","","","gt","3000","","","29","379.3711431702997","245.25"
"","","","","","html-keyboard-response","138","672413","0.0-18.0-0.5","66632c69d2b270f0314a0b16","6790928bebf0b969fc839b02","6798270434806627f49de7ca","passed","","","","","","","","","","","","","","","","","ballFalling","500","510.8711431702997","369.03","8","fallScene","true","","","","","30","",""
"","","","","","html-keyboard-response","139","675420","0.0-18.0-1.5","66632c69d2b270f0314a0b16","6790928bebf0b969fc839b02","6798270434806627f49de7ca","passed","","982","","","","","","","","","","","","","","f","yesOrNo","","","","8","","","lp","3000","","","30","501","151"
"","","","","","html-keyboard-response","140","676985","0.0-18.0-0.6","66632c69d2b270f0314a0b16","6790928bebf0b969fc839b02","6798270434806627f49de7ca","passed","","","","","","","","","","","","","","","","","ballFalling","322.3","379.3711431702997","245.25","1","fallScene","true","","","","","31","",""
"","","","","","html-keyboard-response","141","679993","0.0-18.0-1.6","66632c69d2b270f0314a0b16","6790928bebf0b969fc839b02","6798270434806627f49de7ca","passed","","1598","","","","","","","","","","","","","","f","yesOrNo","","","","1","","","lp","3000","","","31","323.3","217.74551669457017"
"","","","","","html-keyboard-response","142","681549","0.0-18.0-0.7","66632c69d2b270f0314a0b16","6790928bebf0b969fc839b02","6798270434806627f49de7ca","passed","","","","","","","","","","","","","","","","","ballFalling","322.3","356.42114317029973","357.87","4","fallScene","true","","","","","32","",""
"","","","","","html-keyboard-response","143","684557","0.0-18.0-1.7","66632c69d2b270f0314a0b16","6790928bebf0b969fc839b02","6798270434806627f49de7ca","passed","","657","","","","","","","","","","","","","","j","yesOrNo","","","","4","","","lp","3000","","","32","323.3","297.4070551689986"
"","","","","","html-keyboard-response","144","686571","0.0-18.0-0.8","66632c69d2b270f0314a0b16","6790928bebf0b969fc839b02","6798270434806627f49de7ca","passed","","","","","","","","","","","","","","","","","ballFalling","604.4000000000001","596.8711431702998","394.5","10","fallScene","true","","","","","33","",""
"","","","","","html-keyboard-response","145","689579","0.0-18.0-1.8","66632c69d2b270f0314a0b16","6790928bebf0b969fc839b02","6798270434806627f49de7ca","passed","","732","","","","","","","","","","","","","","j","yesOrNo","","","","10","","","mid","3000","","","33","536.4288568297004","300"
"","","","","","html-keyboard-response","146","691143","0.0-18.0-0.9","66632c69d2b270f0314a0b16","6790928bebf0b969fc839b02","6798270434806627f49de7ca","passed","","","","","","","","","","","","","","","","","ballFalling","322.3","356.42114317029973","357.87","4","fallScene","true","","","","","34","",""
"","","","","","html-keyboard-response","147","694152","0.0-18.0-1.9","66632c69d2b270f0314a0b16","6790928bebf0b969fc839b02","6798270434806627f49de7ca","passed","","715","","","","","","","","","","","","","","j","yesOrNo","","","","4","","","mid","3000","","","34","390.27114317029975","300"
"","","","","","html-keyboard-response","148","695734","0.0-18.0-0.10","66632c69d2b270f0314a0b16","6790928bebf0b969fc839b02","6798270434806627f49de7ca","passed","","","","","","","","","","","","","","","","","ballFalling","500","553.4711431702997","282.51","7","fallScene","false","","","","","35","",""
"","","","","","html-keyboard-response","149","698742","0.0-18.0-1.10","66632c69d2b270f0314a0b16","6790928bebf0b969fc839b02","6798270434806627f49de7ca","passed","","null","","","","","","","","","","","","","","null","yesOrNo","","","","7","","","mid","3000","","","35","501","300"
"","","","","","html-keyboard-response","150","700239","0.0-18.0-0.11","66632c69d2b270f0314a0b16","6790928bebf0b969fc839b02","6798270434806627f49de7ca","passed","","","","","","","","","","","","","","","","","ballFalling","604.4000000000001","667.6211431702998","201.78","9","fallScene","true","","","","","36","",""
"","","","","","html-keyboard-response","151","703244","0.0-18.0-1.11","66632c69d2b270f0314a0b16","6790928bebf0b969fc839b02","6798270434806627f49de7ca","passed","","814","","","","","","","","","","","","","","j","yesOrNo","","","","9","","","gt","3000","","","36","667.6211431702998","201.78"
"","","","","","html-keyboard-response","152","704729","0.0-18.0-0.12","66632c69d2b270f0314a0b16","6790928bebf0b969fc839b02","6798270434806627f49de7ca","passed","","","","","","","","","","","","","","","","","ballFalling","604.4000000000001","667.6211431702998","201.78","9","fallScene","false","","","","","37","",""
"","","","","","html-keyboard-response","153","707737","0.0-18.0-1.12","66632c69d2b270f0314a0b16","6790928bebf0b969fc839b02","6798270434806627f49de7ca","passed","","null","","","","","","","","","","","","","","null","yesOrNo","","","","9","","","mid","3000","","","37","605.4000000000001","300"
"","","","","","html-keyboard-response","154","709293","0.0-18.0-0.13","66632c69d2b270f0314a0b16","6790928bebf0b969fc839b02","6798270434806627f49de7ca","passed","","","","","","","","","","","","","","","","","ballFalling","604.4000000000001","575.4211431702997","266.76","12","fallScene","true","","","","","38","",""
"","","","","","html-keyboard-response","155","712300","0.0-18.0-1.13","66632c69d2b270f0314a0b16","6790928bebf0b969fc839b02","6798270434806627f49de7ca","passed","","null","","","","","","","","","","","","","","null","yesOrNo","","","","12","","","lp","3000","","","38","603.4000000000001","151"
"","","","","","html-keyboard-response","156","713865","0.0-18.0-0.14","66632c69d2b270f0314a0b16","6790928bebf0b969fc839b02","6798270434806627f49de7ca","passed","","","","","","","","","","","","","","","","","ballFalling","500","453.67114317029973","210.33","5","fallScene","true","","","","","39","",""
"","","","","","html-keyboard-response","157","716872","0.0-18.0-1.14","66632c69d2b270f0314a0b16","6790928bebf0b969fc839b02","6798270434806627f49de7ca","passed","","null","","","","","","","","","","","","","","null","yesOrNo","","","","5","","","lp","3000","","","39","499","151"
"","","","","","html-keyboard-response","158","718430","0.0-18.0-0.15","66632c69d2b270f0314a0b16","6790928bebf0b969fc839b02","6798270434806627f49de7ca","passed","","","","","","","","","","","","","","","","","ballFalling","604.4000000000001","650.0211431702996","404.58000000000004","11","fallScene","false","","","","","40","",""
"","","","","","html-keyboard-response","159","721437","0.0-18.0-1.15","66632c69d2b270f0314a0b16","6790928bebf0b969fc839b02","6798270434806627f49de7ca","passed","","null","","","","","","","","","","","","","","null","yesOrNo","","","","11","","","mid","3000","","","40","605.4000000000001","300"
"","","","","","html-keyboard-response","160","723092","0.0-18.0-0.16","66632c69d2b270f0314a0b16","6790928bebf0b969fc839b02","6798270434806627f49de7ca","passed","","","","","","","","","","","","","","","","","ballFalling","500","479.92114317029973","330.87","6","fallScene","true","","","","","41","",""
"","","","","","html-keyboard-response","161","726101","0.0-18.0-1.16","66632c69d2b270f0314a0b16","6790928bebf0b969fc839b02","6798270434806627f49de7ca","passed","","1173","","","","","","","","","","","","","","j","yesOrNo","","","","6","","","mid","3000","","","41","499","300"
"","","","","","html-keyboard-response","162","727657","0.0-18.0-0.17","66632c69d2b270f0314a0b16","6790928bebf0b969fc839b02","6798270434806627f49de7ca","passed","","","","","","","","","","","","","","","","","ballFalling","500","453.67114317029973","210.33","5","fallScene","true","","","","","42","",""
"","","","","","html-keyboard-response","163","730665","0.0-18.0-1.17","66632c69d2b270f0314a0b16","6790928bebf0b969fc839b02","6798270434806627f49de7ca","passed","","866","","","","","","","","","","","","","","j","yesOrNo","","","","5","","","mid","3000","","","42","499","300"
"","","","","","html-keyboard-response","164","732222","0.0-18.0-0.18","66632c69d2b270f0314a0b16","6790928bebf0b969fc839b02","6798270434806627f49de7ca","passed","","","","","","","","","","","","","","","","","ballFalling","500","453.67114317029973","210.33","5","fallScene","true","","","","","43","",""
"","","","","","html-keyboard-response","165","735230","0.0-18.0-1.18","66632c69d2b270f0314a0b16","6790928bebf0b969fc839b02","6798270434806627f49de7ca","passed","","938","","","","","","","","","","","","","","j","yesOrNo","","","","5","","","gt","3000","","","43","453.6711431702998","210.33"
"","","","","","html-keyboard-response","166","736794","0.0-18.0-0.19","66632c69d2b270f0314a0b16","6790928bebf0b969fc839b02","6798270434806627f49de7ca","passed","","","","","","","","","","","","","","","","","ballFalling","322.3","296.07114317029976","371.46","3","fallScene","true","","","","","44","",""
"","","","","","html-keyboard-response","167","739801","0.0-18.0-1.19","66632c69d2b270f0314a0b16","6790928bebf0b969fc839b02","6798270434806627f49de7ca","passed","","925","","","","","","","","","","","","","","j","yesOrNo","","","","3","","","gt","3000","","","44","296.07114317029976","371.46"
"","","","","","html-keyboard-response","168","741807","0.0-18.0-0.20","66632c69d2b270f0314a0b16","6790928bebf0b969fc839b02","6798270434806627f49de7ca","passed","","","","","","","","","","","","","","","","","ballFalling","604.4000000000001","596.8711431702998","394.5","10","fallScene","false","","","","","45","",""
"","","","","","html-keyboard-response","169","744816","0.0-18.0-1.20","66632c69d2b270f0314a0b16","6790928bebf0b969fc839b02","6798270434806627f49de7ca","passed","","716","","","","","","","","","","","","","","j","yesOrNo","","","","10","","","lp","3000","","","45","603.4000000000001","215.50214355555383"
"","","","","","html-keyboard-response","170","746472","0.0-18.0-0.21","66632c69d2b270f0314a0b16","6790928bebf0b969fc839b02","6798270434806627f49de7ca","passed","","","","","","","","","","","","","","","","","ballFalling","500","479.92114317029973","330.87","6","fallScene","true","","","","","46","",""
"","","","","","html-keyboard-response","171","749480","0.0-18.0-1.21","66632c69d2b270f0314a0b16","6790928bebf0b969fc839b02","6798270434806627f49de7ca","passed","","1154","","","","","","","","","","","","","","j","yesOrNo","","","","6","","","lp","3000","","","46","499","189.92909825697632"
"","","","","","html-keyboard-response","172","751035","0.0-18.0-0.22","66632c69d2b270f0314a0b16","6790928bebf0b969fc839b02","6798270434806627f49de7ca","passed","","","","","","","","","","","","","","","","","ballFalling","604.4000000000001","650.0211431702996","404.58000000000004","11","fallScene","true","","","","","47","",""
"","","","","","html-keyboard-response","173","754043","0.0-18.0-1.22","66632c69d2b270f0314a0b16","6790928bebf0b969fc839b02","6798270434806627f49de7ca","passed","","742","","","","","","","","","","","","","","j","yesOrNo","","","","11","","","gt","3000","","","47","650.0211431702996","404.58"
"","","","","","html-keyboard-response","174","755599","0.0-18.0-0.23","66632c69d2b270f0314a0b16","6790928bebf0b969fc839b02","6798270434806627f49de7ca","passed","","","","","","","","","","","","","","","","","ballFalling","322.3","379.3711431702997","245.25","1","fallScene","true","","","","","48","",""
"","","","","","html-keyboard-response","175","758606","0.0-18.0-1.23","66632c69d2b270f0314a0b16","6790928bebf0b969fc839b02","6798270434806627f49de7ca","passed","","896","","","","","","","","","","","","","","j","yesOrNo","","","","1","","","lp","3000","","","48","323.3","217.74551669457017"
"","","","","","html-keyboard-response","176","760374","0.0-19.0","66632c69d2b270f0314a0b16","6790928bebf0b969fc839b02","6798270434806627f49de7ca","passed","","1765","","","","","","","","","","","","","<p><span style=""font-size:40px;"">BLOCK 3</span></p><p><span style=""font-size:25px;"">You have <b style=""color: #FF644F;""><strong>1 second(s)</strong></b> to respond to the following trials.</span><br></p><p></p> <!-- Blank line -->
                <p id=""blinking-text"" style=""font-weight; animation: blink 2s infinite;"">Press Space to continue</p>
                <style>
                    @keyframes blink {
                        50% {
                            opacity: 0;
                        }
                    }
                </style></p>"," ","","","","","","","","","","","","","",""
"","","","","","html-keyboard-response","177","761945","0.0-20.0-0.0","66632c69d2b270f0314a0b16","6790928bebf0b969fc839b02","6798270434806627f49de7ca","passed","","","","","","","","","","","","","","","","","ballFalling","500","453.67114317029973","210.33","5","fallScene","false","","","","","49","",""
"","","","","","html-keyboard-response","178","762954","0.0-20.0-1.0","66632c69d2b270f0314a0b16","6790928bebf0b969fc839b02","6798270434806627f49de7ca","passed","","366","","","","","","","","","","","","","","j","yesOrNo","","","","5","","","mid","1000","","","49","499","300"
"","","","","","html-keyboard-response","179","764519","0.0-20.0-0.1","66632c69d2b270f0314a0b16","6790928bebf0b969fc839b02","6798270434806627f49de7ca","passed","","","","","","","","","","","","","","","","","ballFalling","604.4000000000001","575.4211431702997","266.76","12","fallScene","true","","","","","50","",""
"","","","","","html-keyboard-response","180","765530","0.0-20.0-1.1","66632c69d2b270f0314a0b16","6790928bebf0b969fc839b02","6798270434806627f49de7ca","passed","","null","","","","","","","","","","","","","","null","yesOrNo","","","","12","","","gt","1000","","","50","575.4211431702997","266.76"
"","","","","","html-keyboard-response","181","767092","0.0-20.0-0.2","66632c69d2b270f0314a0b16","6790928bebf0b969fc839b02","6798270434806627f49de7ca","passed","","","","","","","","","","","","","","","","","ballFalling","322.3","296.07114317029976","371.46","3","fallScene","false","","","","","51","",""
"","","","","","html-keyboard-response","182","768098","0.0-20.0-1.2","66632c69d2b270f0314a0b16","6790928bebf0b969fc839b02","6798270434806627f49de7ca","passed","","630","","","","","","","","","","","","","","j","yesOrNo","","","","3","","","gt","1000","","","51","296.07114317029976","371.46"
"","","","","","html-keyboard-response","183","769657","0.0-20.0-0.3","66632c69d2b270f0314a0b16","6790928bebf0b969fc839b02","6798270434806627f49de7ca","passed","","","","","","","","","","","","","","","","","ballFalling","322.3","296.07114317029976","371.46","3","fallScene","true","","","","","52","",""
"","","","","","html-keyboard-response","184","770667","0.0-20.0-1.3","66632c69d2b270f0314a0b16","6790928bebf0b969fc839b02","6798270434806627f49de7ca","passed","","713","","","","","","","","","","","","","","j","yesOrNo","","","","3","","","gt","1000","","","52","296.07114317029976","371.46"
"","","","","","html-keyboard-response","185","772464","0.0-20.0-0.4","66632c69d2b270f0314a0b16","6790928bebf0b969fc839b02","6798270434806627f49de7ca","passed","","","","","","","","","","","","","","","","","ballFalling","322.3","308.07114317029976","253.89","2","fallScene","true","","","","","53","",""
"","","","","","html-keyboard-response","186","773470","0.0-20.0-1.4","66632c69d2b270f0314a0b16","6790928bebf0b969fc839b02","6798270434806627f49de7ca","passed","","482","","","","","","","","","","","","","","j","yesOrNo","","","","2","","","gt","1000","","","53","308.07114317029976","253.89"
"","","","","","html-keyboard-response","187","775479","0.0-20.0-0.5","66632c69d2b270f0314a0b16","6790928bebf0b969fc839b02","6798270434806627f49de7ca","passed","","","","","","","","","","","","","","","","","ballFalling","604.4000000000001","596.8711431702998","394.5","10","fallScene","true","","","","","54","",""
"","","","","","html-keyboard-response","188","776488","0.0-20.0-1.5","66632c69d2b270f0314a0b16","6790928bebf0b969fc839b02","6798270434806627f49de7ca","passed","","265","","","","","","","","","","","","","","j","yesOrNo","","","","10","","","mid","1000","","","54","536.4288568297004","300"
"","","","","","html-keyboard-response","189","777986","0.0-20.0-0.6","66632c69d2b270f0314a0b16","6790928bebf0b969fc839b02","6798270434806627f49de7ca","passed","","","","","","","","","","","","","","","","","ballFalling","604.4000000000001","667.6211431702998","201.78","9","fallScene","false","","","","","55","",""
"","","","","","html-keyboard-response","190","778992","0.0-20.0-1.6","66632c69d2b270f0314a0b16","6790928bebf0b969fc839b02","6798270434806627f49de7ca","passed","","null","","","","","","","","","","","","","","null","yesOrNo","","","","9","","","gt","1000","","","55","667.6211431702998","201.78"
"","","","","","html-keyboard-response","191","780785","0.0-20.0-0.7","66632c69d2b270f0314a0b16","6790928bebf0b969fc839b02","6798270434806627f49de7ca","passed","","","","","","","","","","","","","","","","","ballFalling","322.3","308.07114317029976","253.89","2","fallScene","false","","","","","56","",""
"","","","","","html-keyboard-response","192","781794","0.0-20.0-1.7","66632c69d2b270f0314a0b16","6790928bebf0b969fc839b02","6798270434806627f49de7ca","passed","","null","","","","","","","","","","","","","","null","yesOrNo","","","","2","","","lp","1000","","","56","321.3","151"
"","","","","","html-keyboard-response","193","783799","0.0-20.0-0.8","66632c69d2b270f0314a0b16","6790928bebf0b969fc839b02","6798270434806627f49de7ca","passed","","","","","","","","","","","","","","","","","ballFalling","604.4000000000001","596.8711431702998","394.5","10","fallScene","false","","","","","57","",""
"","","","","","html-keyboard-response","194","784809","0.0-20.0-1.8","66632c69d2b270f0314a0b16","6790928bebf0b969fc839b02","6798270434806627f49de7ca","passed","","355","","","","","","","","","","","","","","j","yesOrNo","","","","10","","","gt","1000","","","57","596.8711431702998","394.5"
"","","","","","html-keyboard-response","195","786598","0.0-20.0-0.9","66632c69d2b270f0314a0b16","6790928bebf0b969fc839b02","6798270434806627f49de7ca","passed","","","","","","","","","","","","","","","","","ballFalling","322.3","308.07114317029976","253.89","2","fallScene","false","","","","","58","",""
"","","","","","html-keyboard-response","196","787603","0.0-20.0-1.9","66632c69d2b270f0314a0b16","6790928bebf0b969fc839b02","6798270434806627f49de7ca","passed","","559","","","","","","","","","","","","","","j","yesOrNo","","","","2","","","lp","1000","","","58","321.3","151"
"","","","","","html-keyboard-response","197","789163","0.0-20.0-0.10","66632c69d2b270f0314a0b16","6790928bebf0b969fc839b02","6798270434806627f49de7ca","passed","","","","","","","","","","","","","","","","","ballFalling","604.4000000000001","575.4211431702997","266.76","12","fallScene","false","","","","","59","",""
"","","","","","html-keyboard-response","198","790169","0.0-20.0-1.10","66632c69d2b270f0314a0b16","6790928bebf0b969fc839b02","6798270434806627f49de7ca","passed","","391","","","","","","","","","","","","","","j","yesOrNo","","","","12","","","mid","1000","","","59","536.4288568297004","300"
"","","","","","html-keyboard-response","199","792170","0.0-20.0-0.11","66632c69d2b270f0314a0b16","6790928bebf0b969fc839b02","6798270434806627f49de7ca","passed","","","","","","","","","","","","","","","","","ballFalling","604.4000000000001","596.8711431702998","394.5","10","fallScene","true","","","","","60","",""
"","","","","","html-keyboard-response","200","793179","0.0-20.0-1.11","66632c69d2b270f0314a0b16","6790928bebf0b969fc839b02","6798270434806627f49de7ca","passed","","null","","","","","","","","","","","","","","null","yesOrNo","","","","10","","","gt","1000","","","60","596.8711431702998","394.5"
"","","","","","html-keyboard-response","201","794743","0.0-20.0-0.12","66632c69d2b270f0314a0b16","6790928bebf0b969fc839b02","6798270434806627f49de7ca","passed","","","","","","","","","","","","","","","","","ballFalling","604.4000000000001","650.0211431702996","404.58000000000004","11","fallScene","false","","","","","61","",""
"","","","","","html-keyboard-response","202","795752","0.0-20.0-1.12","66632c69d2b270f0314a0b16","6790928bebf0b969fc839b02","6798270434806627f49de7ca","passed","","750","","","","","","","","","","","","","","j","yesOrNo","","","","11","","","gt","1000","","","61","650.0211431702996","404.58"
"","","","","","html-keyboard-response","203","797316","0.0-20.0-0.13","66632c69d2b270f0314a0b16","6790928bebf0b969fc839b02","6798270434806627f49de7ca","passed","","","","","","","","","","","","","","","","","ballFalling","322.3","356.42114317029973","357.87","4","fallScene","true","","","","","62","",""
"","","","","","html-keyboard-response","204","798322","0.0-20.0-1.13","66632c69d2b270f0314a0b16","6790928bebf0b969fc839b02","6798270434806627f49de7ca","passed","","447","","","","","","","","","","","","","","j","yesOrNo","","","","4","","","lp","1000","","","62","323.3","297.4070551689986"
"","","","","","html-keyboard-response","205","799882","0.0-20.0-0.14","66632c69d2b270f0314a0b16","6790928bebf0b969fc839b02","6798270434806627f49de7ca","passed","","","","","","","","","","","","","","","","","ballFalling","322.3","296.07114317029976","371.46","3","fallScene","false","","","","","63","",""
"","","","","","html-keyboard-response","206","800887","0.0-20.0-1.14","66632c69d2b270f0314a0b16","6790928bebf0b969fc839b02","6798270434806627f49de7ca","passed","","317","","","","","","","","","","","","","","j","yesOrNo","","","","3","","","lp","1000","","","63","321.3","287.3327096511259"
"","","","","","html-keyboard-response","207","802896","0.0-20.0-0.15","66632c69d2b270f0314a0b16","6790928bebf0b969fc839b02","6798270434806627f49de7ca","passed","","","","","","","","","","","","","","","","","ballFalling","604.4000000000001","596.8711431702998","394.5","10","fallScene","false","","","","","64","",""
"","","","","","html-keyboard-response","208","803902","0.0-20.0-1.15","66632c69d2b270f0314a0b16","6790928bebf0b969fc839b02","6798270434806627f49de7ca","passed","","91","","","","","","","","","","","","","","j","yesOrNo","","","","10","","","mid","1000","","","64","536.4288568297004","300"
"","","","","","html-keyboard-response","209","805562","0.0-20.0-0.16","66632c69d2b270f0314a0b16","6790928bebf0b969fc839b02","6798270434806627f49de7ca","passed","","","","","","","","","","","","","","","","","ballFalling","500","479.92114317029973","330.87","6","fallScene","true","","","","","65","",""
"","","","","","html-keyboard-response","210","806571","0.0-20.0-1.16","66632c69d2b270f0314a0b16","6790928bebf0b969fc839b02","6798270434806627f49de7ca","passed","","789","","","","","","","","","","","","","","j","yesOrNo","","","","6","","","gt","1000","","","65","479.9211431702998","330.87"
"","","","","","html-keyboard-response","211","808127","0.0-20.0-0.17","66632c69d2b270f0314a0b16","6790928bebf0b969fc839b02","6798270434806627f49de7ca","passed","","","","","","","","","","","","","","","","","ballFalling","322.3","356.42114317029973","357.87","4","fallScene","false","","","","","66","",""
"","","","","","html-keyboard-response","212","809133","0.0-20.0-1.17","66632c69d2b270f0314a0b16","6790928bebf0b969fc839b02","6798270434806627f49de7ca","passed","","550","","","","","","","","","","","","","","j","yesOrNo","","","","4","","","gt","1000","","","66","356.42114317029973","357.87"
"","","","","","html-keyboard-response","213","811142","0.0-20.0-0.18","66632c69d2b270f0314a0b16","6790928bebf0b969fc839b02","6798270434806627f49de7ca","passed","","","","","","","","","","","","","","","","","ballFalling","500","510.8711431702997","369.03","8","fallScene","false","","","","","67","",""
"","","","","","html-keyboard-response","214","812152","0.0-20.0-1.18","66632c69d2b270f0314a0b16","6790928bebf0b969fc839b02","6798270434806627f49de7ca","passed","","null","","","","","","","","","","","","","","null","yesOrNo","","","","8","","","lp","1000","","","67","501","151"
"","","","","","html-keyboard-response","215","813649","0.0-20.0-0.19","66632c69d2b270f0314a0b16","6790928bebf0b969fc839b02","6798270434806627f49de7ca","passed","","","","","","","","","","","","","","","","","ballFalling","604.4000000000001","667.6211431702998","201.78","9","fallScene","false","","","","","68","",""
"","","","","","html-keyboard-response","216","814658","0.0-20.0-1.19","66632c69d2b270f0314a0b16","6790928bebf0b969fc839b02","6798270434806627f49de7ca","passed","","null","","","","","","","","","","","","","","null","yesOrNo","","","","9","","","gt","1000","","","68","667.6211431702998","201.78"
"","","","","","html-keyboard-response","217","816664","0.0-20.0-0.20","66632c69d2b270f0314a0b16","6790928bebf0b969fc839b02","6798270434806627f49de7ca","passed","","","","","","","","","","","","","","","","","ballFalling","604.4000000000001","596.8711431702998","394.5","10","fallScene","false","","","","","69","",""
"","","","","","html-keyboard-response","218","817670","0.0-20.0-1.20","66632c69d2b270f0314a0b16","6790928bebf0b969fc839b02","6798270434806627f49de7ca","passed","","273","","","","","","","","","","","","","","j","yesOrNo","","","","10","","","lp","1000","","","69","603.4000000000001","215.50214355555383"
"","","","","","html-keyboard-response","219","819222","0.0-20.0-0.21","66632c69d2b270f0314a0b16","6790928bebf0b969fc839b02","6798270434806627f49de7ca","passed","","","","","","","","","","","","","","","","","ballFalling","322.3","356.42114317029973","357.87","4","fallScene","false","","","","","70","",""
"","","","","","html-keyboard-response","220","820230","0.0-20.0-1.21","66632c69d2b270f0314a0b16","6790928bebf0b969fc839b02","6798270434806627f49de7ca","passed","","665","","","","","","","","","","","","","","j","yesOrNo","","","","4","","","lp","1000","","","70","323.3","297.4070551689986"
"","","","","","html-keyboard-response","221","821812","0.0-20.0-0.22","66632c69d2b270f0314a0b16","6790928bebf0b969fc839b02","6798270434806627f49de7ca","passed","","","","","","","","","","","","","","","","","ballFalling","500","553.4711431702997","282.51","7","fallScene","false","","","","","71","",""
"","","","","","html-keyboard-response","222","822820","0.0-20.0-1.22","66632c69d2b270f0314a0b16","6790928bebf0b969fc839b02","6798270434806627f49de7ca","passed","","655","","","","","","","","","","","","","","j","yesOrNo","","","","7","","","mid","1000","","","71","501","300"
"","","","","","html-keyboard-response","223","824385","0.0-20.0-0.23","66632c69d2b270f0314a0b16","6790928bebf0b969fc839b02","6798270434806627f49de7ca","passed","","","","","","","","","","","","","","","","","ballFalling","322.3","379.3711431702997","245.25","1","fallScene","false","","","","","72","",""
"","","","","","html-keyboard-response","224","825394","0.0-20.0-1.23","66632c69d2b270f0314a0b16","6790928bebf0b969fc839b02","6798270434806627f49de7ca","passed","","579","","","","","","","","","","","","","","j","yesOrNo","","","","1","","","mid","1000","","","72","390.27114317029975","300"
"","","","","","html-keyboard-response","225","827255","0.0-21.0","66632c69d2b270f0314a0b16","6790928bebf0b969fc839b02","6798270434806627f49de7ca","passed","","1859","","","","","","","","","","","","","<p><span style=""font-size:40px;"">BLOCK 4</span></p><p><span style=""font-size:25px;"">You have <b style=""color: #FF644F;""><strong>1 second(s)</strong></b> to respond to the following trials.</span><br></p><p></p> <!-- Blank line -->
                <p id=""blinking-text"" style=""font-weight; animation: blink 2s infinite;"">Press Space to continue</p>
                <style>
                    @keyframes blink {
                        50% {
                            opacity: 0;
                        }
                    }
                </style></p>"," ","","","","","","","","","","","","","",""
"","","","","","html-keyboard-response","226","828814","0.0-22.0-0.0","66632c69d2b270f0314a0b16","6790928bebf0b969fc839b02","6798270434806627f49de7ca","passed","","","","","","","","","","","","","","","","","ballFalling","500","453.67114317029973","210.33","5","fallScene","false","","","","","73","",""
"","","","","","html-keyboard-response","227","829821","0.0-22.0-1.0","66632c69d2b270f0314a0b16","6790928bebf0b969fc839b02","6798270434806627f49de7ca","passed","","307","","","","","","","","","","","","","","j","yesOrNo","","","","5","","","lp","1000","","","73","499","151"
"","","","","","html-keyboard-response","228","831840","0.0-22.0-0.1","66632c69d2b270f0314a0b16","6790928bebf0b969fc839b02","6798270434806627f49de7ca","passed","","","","","","","","","","","","","","","","","ballFalling","500","510.8711431702997","369.03","8","fallScene","true","","","","","74","",""
"","","","","","html-keyboard-response","229","832846","0.0-22.0-1.1","66632c69d2b270f0314a0b16","6790928bebf0b969fc839b02","6798270434806627f49de7ca","passed","","334","","","","","","","","","","","","","","j","yesOrNo","","","","8","","","mid","1000","","","74","501","300"
"","","","","","html-keyboard-response","230","834388","0.0-22.0-0.2","66632c69d2b270f0314a0b16","6790928bebf0b969fc839b02","6798270434806627f49de7ca","passed","","","","","","","","","","","","","","","","","ballFalling","500","453.67114317029973","210.33","5","fallScene","true","","","","","75","",""
"","","","","","html-keyboard-response","231","835397","0.0-22.0-1.2","66632c69d2b270f0314a0b16","6790928bebf0b969fc839b02","6798270434806627f49de7ca","passed","","null","","","","","","","","","","","","","","null","yesOrNo","","","","5","","","mid","1000","","","75","499","300"
"","","","","","html-keyboard-response","232","836962","0.0-22.0-0.3","66632c69d2b270f0314a0b16","6790928bebf0b969fc839b02","6798270434806627f49de7ca","passed","","","","","","","","","","","","","","","","","ballFalling","322.3","296.07114317029976","371.46","3","fallScene","false","","","","","76","",""
"","","","","","html-keyboard-response","233","837971","0.0-22.0-1.3","66632c69d2b270f0314a0b16","6790928bebf0b969fc839b02","6798270434806627f49de7ca","passed","","371","","","","","","","","","","","","","","j","yesOrNo","","","","3","","","mid","1000","","","76","321.3","300"
"","","","","","html-keyboard-response","234","839534","0.0-22.0-0.4","66632c69d2b270f0314a0b16","6790928bebf0b969fc839b02","6798270434806627f49de7ca","passed","","","","","","","","","","","","","","","","","ballFalling","322.3","356.42114317029973","357.87","4","fallScene","true","","","","","77","",""
"","","","","","html-keyboard-response","235","840540","0.0-22.0-1.4","66632c69d2b270f0314a0b16","6790928bebf0b969fc839b02","6798270434806627f49de7ca","passed","","656","","","","","","","","","","","","","","j","yesOrNo","","","","4","","","mid","1000","","","77","390.27114317029975","300"
"","","","","","html-keyboard-response","236","842107","0.0-22.0-0.5","66632c69d2b270f0314a0b16","6790928bebf0b969fc839b02","6798270434806627f49de7ca","passed","","","","","","","","","","","","","","","","","ballFalling","604.4000000000001","575.4211431702997","266.76","12","fallScene","false","","","","","78","",""
"","","","","","html-keyboard-response","237","843117","0.0-22.0-1.5","66632c69d2b270f0314a0b16","6790928bebf0b969fc839b02","6798270434806627f49de7ca","passed","","498","","","","","","","","","","","","","","j","yesOrNo","","","","12","","","gt","1000","","","78","575.4211431702997","266.76"
"","","","","","html-keyboard-response","238","844699","0.0-22.0-0.6","66632c69d2b270f0314a0b16","6790928bebf0b969fc839b02","6798270434806627f49de7ca","passed","","","","","","","","","","","","","","","","","ballFalling","500","553.4711431702997","282.51","7","fallScene","false","","","","","79","",""
"","","","","","html-keyboard-response","239","845707","0.0-22.0-1.6","66632c69d2b270f0314a0b16","6790928bebf0b969fc839b02","6798270434806627f49de7ca","passed","","null","","","","","","","","","","","","","","null","yesOrNo","","","","7","","","lp","1000","","","79","501","227.2843295913261"
"","","","","","html-keyboard-response","240","847714","0.0-22.0-0.7","66632c69d2b270f0314a0b16","6790928bebf0b969fc839b02","6798270434806627f49de7ca","passed","","","","","","","","","","","","","","","","","ballFalling","604.4000000000001","596.8711431702998","394.5","10","fallScene","true","","","","","80","",""
"","","","","","html-keyboard-response","241","848723","0.0-22.0-1.7","66632c69d2b270f0314a0b16","6790928bebf0b969fc839b02","6798270434806627f49de7ca","passed","","230","","","","","","","","","","","","","","j","yesOrNo","","","","10","","","lp","1000","","","80","603.4000000000001","215.50214355555383"
"","","","","","html-keyboard-response","242","850287","0.0-22.0-0.8","66632c69d2b270f0314a0b16","6790928bebf0b969fc839b02","6798270434806627f49de7ca","passed","","","","","","","","","","","","","","","","","ballFalling","322.3","379.3711431702997","245.25","1","fallScene","false","","","","","81","",""
"","","","","","html-keyboard-response","243","851296","0.0-22.0-1.8","66632c69d2b270f0314a0b16","6790928bebf0b969fc839b02","6798270434806627f49de7ca","passed","","265","","","","","","","","","","","","","","j","yesOrNo","","","","1","","","lp","1000","","","81","323.3","217.74551669457017"
"","","","","","html-keyboard-response","244","852960","0.0-22.0-0.9","66632c69d2b270f0314a0b16","6790928bebf0b969fc839b02","6798270434806627f49de7ca","passed","","","","","","","","","","","","","","","","","ballFalling","500","479.92114317029973","330.87","6","fallScene","true","","","","","82","",""
"","","","","","html-keyboard-response","245","853969","0.0-22.0-1.9","66632c69d2b270f0314a0b16","6790928bebf0b969fc839b02","6798270434806627f49de7ca","passed","","272","","","","","","","","","","","","","","j","yesOrNo","","","","6","","","gt","1000","","","82","479.9211431702998","330.87"
"","","","","","html-keyboard-response","246","855467","0.0-22.0-0.10","66632c69d2b270f0314a0b16","6790928bebf0b969fc839b02","6798270434806627f49de7ca","passed","","","","","","","","","","","","","","","","","ballFalling","604.4000000000001","667.6211431702998","201.78","9","fallScene","false","","","","","83","",""
"","","","","","html-keyboard-response","247","856473","0.0-22.0-1.10","66632c69d2b270f0314a0b16","6790928bebf0b969fc839b02","6798270434806627f49de7ca","passed","","null","","","","","","","","","","","","","","null","yesOrNo","","","","9","","","lp","1000","","","83","605.4000000000001","151"
"","","","","","html-keyboard-response","248","858032","0.0-22.0-0.11","66632c69d2b270f0314a0b16","6790928bebf0b969fc839b02","6798270434806627f49de7ca","passed","","","","","","","","","","","","","","","","","ballFalling","604.4000000000001","650.0211431702996","404.58000000000004","11","fallScene","true","","","","","84","",""
"","","","","","html-keyboard-response","249","859043","0.0-22.0-1.11","66632c69d2b270f0314a0b16","6790928bebf0b969fc839b02","6798270434806627f49de7ca","passed","","274","","","","","","","","","","","","","","j","yesOrNo","","","","11","","","gt","1000","","","84","650.0211431702996","404.58"
"","","","","","html-keyboard-response","250","860623","0.0-22.0-0.12","66632c69d2b270f0314a0b16","6790928bebf0b969fc839b02","6798270434806627f49de7ca","passed","","","","","","","","","","","","","","","","","ballFalling","500","553.4711431702997","282.51","7","fallScene","false","","","","","85","",""
"","","","","","html-keyboard-response","251","861628","0.0-22.0-1.12","66632c69d2b270f0314a0b16","6790928bebf0b969fc839b02","6798270434806627f49de7ca","passed","","null","","","","","","","","","","","","","","null","yesOrNo","","","","7","","","lp","1000","","","85","501","227.2843295913261"
"","","","","","html-keyboard-response","252","863113","0.0-22.0-0.13","66632c69d2b270f0314a0b16","6790928bebf0b969fc839b02","6798270434806627f49de7ca","passed","","","","","","","","","","","","","","","","","ballFalling","604.4000000000001","667.6211431702998","201.78","9","fallScene","true","","","","","86","",""
"","","","","","html-keyboard-response","253","864123","0.0-22.0-1.13","66632c69d2b270f0314a0b16","6790928bebf0b969fc839b02","6798270434806627f49de7ca","passed","","257","","","","","","","","","","","","","","j","yesOrNo","","","","9","","","lp","1000","","","86","605.4000000000001","151"
"","","","","","html-keyboard-response","254","865611","0.0-22.0-0.14","66632c69d2b270f0314a0b16","6790928bebf0b969fc839b02","6798270434806627f49de7ca","passed","","","","","","","","","","","","","","","","","ballFalling","604.4000000000001","667.6211431702998","201.78","9","fallScene","true","","","","","87","",""
"","","","","","html-keyboard-response","255","866617","0.0-22.0-1.14","66632c69d2b270f0314a0b16","6790928bebf0b969fc839b02","6798270434806627f49de7ca","passed","","null","","","","","","","","","","","","","","null","yesOrNo","","","","9","","","mid","1000","","","87","605.4000000000001","300"
"","","","","","html-keyboard-response","256","868168","0.0-22.0-0.15","66632c69d2b270f0314a0b16","6790928bebf0b969fc839b02","6798270434806627f49de7ca","passed","","","","","","","","","","","","","","","","","ballFalling","604.4000000000001","650.0211431702996","404.58000000000004","11","fallScene","true","","","","","88","",""
"","","","","","html-keyboard-response","257","869174","0.0-22.0-1.15","66632c69d2b270f0314a0b16","6790928bebf0b969fc839b02","6798270434806627f49de7ca","passed","","431","","","","","","","","","","","","","","j","yesOrNo","","","","11","","","mid","1000","","","88","605.4000000000001","300"
"","","","","","html-keyboard-response","258","870733","0.0-22.0-0.16","66632c69d2b270f0314a0b16","6790928bebf0b969fc839b02","6798270434806627f49de7ca","passed","","","","","","","","","","","","","","","","","ballFalling","322.3","379.3711431702997","245.25","1","fallScene","false","","","","","89","",""
"","","","","","html-keyboard-response","259","871739","0.0-22.0-1.16","66632c69d2b270f0314a0b16","6790928bebf0b969fc839b02","6798270434806627f49de7ca","passed","","808","","","","","","","","","","","","","","j","yesOrNo","","","","1","","","gt","1000","","","89","379.3711431702997","245.25"
"","","","","","html-keyboard-response","260","873748","0.0-22.0-0.17","66632c69d2b270f0314a0b16","6790928bebf0b969fc839b02","6798270434806627f49de7ca","passed","","","","","","","","","","","","","","","","","ballFalling","500","510.8711431702997","369.03","8","fallScene","false","","","","","90","",""
"","","","","","html-keyboard-response","261","874757","0.0-22.0-1.17","66632c69d2b270f0314a0b16","6790928bebf0b969fc839b02","6798270434806627f49de7ca","passed","","480","","","","","","","","","","","","","","j","yesOrNo","","","","8","","","gt","1000","","","90","510.8711431702997","369.03"
"","","","","","html-keyboard-response","262","876421","0.0-22.0-0.18","66632c69d2b270f0314a0b16","6790928bebf0b969fc839b02","6798270434806627f49de7ca","passed","","","","","","","","","","","","","","","","","ballFalling","500","479.92114317029973","330.87","6","fallScene","true","","","","","91","",""
"","","","","","html-keyboard-response","263","877427","0.0-22.0-1.18","66632c69d2b270f0314a0b16","6790928bebf0b969fc839b02","6798270434806627f49de7ca","passed","","488","","","","","","","","","","","","","","j","yesOrNo","","","","6","","","mid","1000","","","91","499","300"
"","","","","","html-keyboard-response","264","878920","0.0-22.0-0.19","66632c69d2b270f0314a0b16","6790928bebf0b969fc839b02","6798270434806627f49de7ca","passed","","","","","","","","","","","","","","","","","ballFalling","604.4000000000001","667.6211431702998","201.78","9","fallScene","false","","","","","92","",""
"","","","","","html-keyboard-response","265","879925","0.0-22.0-1.19","66632c69d2b270f0314a0b16","6790928bebf0b969fc839b02","6798270434806627f49de7ca","passed","","null","","","","","","","","","","","","","","null","yesOrNo","","","","9","","","mid","1000","","","92","605.4000000000001","300"
"","","","","","html-keyboard-response","266","881485","0.0-22.0-0.20","66632c69d2b270f0314a0b16","6790928bebf0b969fc839b02","6798270434806627f49de7ca","passed","","","","","","","","","","","","","","","","","ballFalling","500","453.67114317029973","210.33","5","fallScene","false","","","","","93","",""
"","","","","","html-keyboard-response","267","882490","0.0-22.0-1.20","66632c69d2b270f0314a0b16","6790928bebf0b969fc839b02","6798270434806627f49de7ca","passed","","216","","","","","","","","","","","","","","j","yesOrNo","","","","5","","","lp","1000","","","93","499","151"
"","","","","","html-keyboard-response","268","884067","0.0-22.0-0.21","66632c69d2b270f0314a0b16","6790928bebf0b969fc839b02","6798270434806627f49de7ca","passed","","","","","","","","","","","","","","","","","ballFalling","500","553.4711431702997","282.51","7","fallScene","true","","","","","94","",""
"","","","","","html-keyboard-response","269","885077","0.0-22.0-1.21","66632c69d2b270f0314a0b16","6790928bebf0b969fc839b02","6798270434806627f49de7ca","passed","","272","","","","","","","","","","","","","","j","yesOrNo","","","","7","","","mid","1000","","","94","501","300"
"","","","","","html-keyboard-response","270","887090","0.0-22.0-0.22","66632c69d2b270f0314a0b16","6790928bebf0b969fc839b02","6798270434806627f49de7ca","passed","","","","","","","","","","","","","","","","","ballFalling","500","510.8711431702997","369.03","8","fallScene","true","","","","","95","",""
"","","","","","html-keyboard-response","271","888095","0.0-22.0-1.22","66632c69d2b270f0314a0b16","6790928bebf0b969fc839b02","6798270434806627f49de7ca","passed","","265","","","","","","","","","","","","","","j","yesOrNo","","","","8","","","gt","1000","","","95","510.8711431702997","369.03"
"","","","","","html-keyboard-response","272","889647","0.0-22.0-0.23","66632c69d2b270f0314a0b16","6790928bebf0b969fc839b02","6798270434806627f49de7ca","passed","","","","","","","","","","","","","","","","","ballFalling","322.3","296.07114317029976","371.46","3","fallScene","true","","","","","96","",""
"","","","","","html-keyboard-response","273","890656","0.0-22.0-1.23","66632c69d2b270f0314a0b16","6790928bebf0b969fc839b02","6798270434806627f49de7ca","passed","","null","","","","","","","","","","","","","","null","yesOrNo","","","","3","","","lp","1000","","","96","321.3","287.3327096511259"
"","","","","","html-keyboard-response","274","891637","0.0-23.0","66632c69d2b270f0314a0b16","6790928bebf0b969fc839b02","6798270434806627f49de7ca","passed","","979","","","","","","","","","","","","","<p><span style=""font-size:40px;"">BLOCK 5</span></p><p><span style=""font-size:25px;"">You have <b style=""color: #FF644F;""><strong>3 second(s)</strong></b> to respond to the following trials.</span><br></p><p></p> <!-- Blank line -->
                <p id=""blinking-text"" style=""font-weight; animation: blink 2s infinite;"">Press Space to continue</p>
                <style>
                    @keyframes blink {
                        50% {
                            opacity: 0;
                        }
                    }
                </style></p>"," ","","","","","","","","","","","","","",""
"","","","","","html-keyboard-response","275","893197","0.0-24.0-0.0","66632c69d2b270f0314a0b16","6790928bebf0b969fc839b02","6798270434806627f49de7ca","passed","","","","","","","","","","","","","","","","","ballFalling","604.4000000000001","650.0211431702996","404.58000000000004","11","fallScene","false","","","","","97","",""
"","","","","","html-keyboard-response","276","896207","0.0-24.0-1.0","66632c69d2b270f0314a0b16","6790928bebf0b969fc839b02","6798270434806627f49de7ca","passed","","null","","","","","","","","","","","","","","null","yesOrNo","","","","11","","","mid","3000","","","97","605.4000000000001","300"
"","","","","","html-keyboard-response","277","898001","0.0-24.0-0.1","66632c69d2b270f0314a0b16","6790928bebf0b969fc839b02","6798270434806627f49de7ca","passed","","","","","","","","","","","","","","","","","ballFalling","322.3","308.07114317029976","253.89","2","fallScene","true","","","","","98","",""
"","","","","","html-keyboard-response","278","901008","0.0-24.0-1.1","66632c69d2b270f0314a0b16","6790928bebf0b969fc839b02","6798270434806627f49de7ca","passed","","null","","","","","","","","","","","","","","null","yesOrNo","","","","2","","","lp","3000","","","98","321.3","151"
"","","","","","html-keyboard-response","279","902572","0.0-24.0-0.2","66632c69d2b270f0314a0b16","6790928bebf0b969fc839b02","6798270434806627f49de7ca","passed","","","","","","","","","","","","","","","","","ballFalling","604.4000000000001","650.0211431702996","404.58000000000004","11","fallScene","true","","","","","99","",""
"","","","","","html-keyboard-response","280","905581","0.0-24.0-1.2","66632c69d2b270f0314a0b16","6790928bebf0b969fc839b02","6798270434806627f49de7ca","passed","","665","","","","","","","","","","","","","","j","yesOrNo","","","","11","","","lp","3000","","","99","605.4000000000001","372.6340973215488"
"","","","","","html-keyboard-response","281","907137","0.0-24.0-0.3","66632c69d2b270f0314a0b16","6790928bebf0b969fc839b02","6798270434806627f49de7ca","passed","","","","","","","","","","","","","","","","","ballFalling","322.3","356.42114317029973","357.87","4","fallScene","false","","","","","100","",""
"","","","","","html-keyboard-response","282","910145","0.0-24.0-1.3","66632c69d2b270f0314a0b16","6790928bebf0b969fc839b02","6798270434806627f49de7ca","passed","","798","","","","","","","","","","","","","","j","yesOrNo","","","","4","","","gt","3000","","","100","356.42114317029973","357.87"
"","","","","","html-keyboard-response","283","911800","0.0-24.0-0.4","66632c69d2b270f0314a0b16","6790928bebf0b969fc839b02","6798270434806627f49de7ca","passed","","","","","","","","","","","","","","","","","ballFalling","500","479.92114317029973","330.87","6","fallScene","true","","","","","101","",""
"","","","","","html-keyboard-response","284","914809","0.0-24.0-1.4","66632c69d2b270f0314a0b16","6790928bebf0b969fc839b02","6798270434806627f49de7ca","passed","","null","","","","","","","","","","","","","","null","yesOrNo","","","","6","","","lp","3000","","","101","499","189.92909825697632"
"","","","","","html-keyboard-response","285","916598","0.0-24.0-0.5","66632c69d2b270f0314a0b16","6790928bebf0b969fc839b02","6798270434806627f49de7ca","passed","","","","","","","","","","","","","","","","","ballFalling","322.3","308.07114317029976","253.89","2","fallScene","false","","","","","102","",""
"","","","","","html-keyboard-response","286","919606","0.0-24.0-1.5","66632c69d2b270f0314a0b16","6790928bebf0b969fc839b02","6798270434806627f49de7ca","passed","","null","","","","","","","","","","","","","","null","yesOrNo","","","","2","","","lp","3000","","","102","321.3","151"
"","","","","","html-keyboard-response","287","921162","0.0-24.0-0.6","66632c69d2b270f0314a0b16","6790928bebf0b969fc839b02","6798270434806627f49de7ca","passed","","","","","","","","","","","","","","","","","ballFalling","322.3","356.42114317029973","357.87","4","fallScene","false","","","","","103","",""
"","","","","","html-keyboard-response","288","924171","0.0-24.0-1.6","66632c69d2b270f0314a0b16","6790928bebf0b969fc839b02","6798270434806627f49de7ca","passed","","1255","","","","","","","","","","","","","","j","yesOrNo","","","","4","","","mid","3000","","","103","390.27114317029975","300"
"","","","","","html-keyboard-response","289","925735","0.0-24.0-0.7","66632c69d2b270f0314a0b16","6790928bebf0b969fc839b02","6798270434806627f49de7ca","passed","","","","","","","","","","","","","","","","","ballFalling","500","553.4711431702997","282.51","7","fallScene","false","","","","","104","",""
"","","","","","html-keyboard-response","290","928742","0.0-24.0-1.7","66632c69d2b270f0314a0b16","6790928bebf0b969fc839b02","6798270434806627f49de7ca","passed","","null","","","","","","","","","","","","","","null","yesOrNo","","","","7","","","mid","3000","","","104","501","300"
"","","","","","html-keyboard-response","291","930540","0.0-24.0-0.8","66632c69d2b270f0314a0b16","6790928bebf0b969fc839b02","6798270434806627f49de7ca","passed","","","","","","","","","","","","","","","","","ballFalling","322.3","308.07114317029976","253.89","2","fallScene","true","","","","","105","",""
"","","","","","html-keyboard-response","292","933548","0.0-24.0-1.8","66632c69d2b270f0314a0b16","6790928bebf0b969fc839b02","6798270434806627f49de7ca","passed","","749","","","","","","","","","","","","","","j","yesOrNo","","","","2","","","mid","3000","","","105","321.3","300"
"","","","","","html-keyboard-response","293","935104","0.0-24.0-0.9","66632c69d2b270f0314a0b16","6790928bebf0b969fc839b02","6798270434806627f49de7ca","passed","","","","","","","","","","","","","","","","","ballFalling","500","453.67114317029973","210.33","5","fallScene","true","","","","","106","",""
"","","","","","html-keyboard-response","294","938112","0.0-24.0-1.9","66632c69d2b270f0314a0b16","6790928bebf0b969fc839b02","6798270434806627f49de7ca","passed","","null","","","","","","","","","","","","","","null","yesOrNo","","","","5","","","lp","3000","","","106","499","151"
"","","","","","html-keyboard-response","295","939693","0.0-24.0-0.10","66632c69d2b270f0314a0b16","6790928bebf0b969fc839b02","6798270434806627f49de7ca","passed","","","","","","","","","","","","","","","","","ballFalling","500","553.4711431702997","282.51","7","fallScene","false","","","","","107","",""
"","","","","","html-keyboard-response","296","942701","0.0-24.0-1.10","66632c69d2b270f0314a0b16","6790928bebf0b969fc839b02","6798270434806627f49de7ca","passed","","713","","","","","","","","","","","","","","j","yesOrNo","","","","7","","","gt","3000","","","107","553.4711431702997","282.51"
"","","","","","html-keyboard-response","297","944257","0.0-24.0-0.11","66632c69d2b270f0314a0b16","6790928bebf0b969fc839b02","6798270434806627f49de7ca","passed","","","","","","","","","","","","","","","","","ballFalling","322.3","379.3711431702997","245.25","1","fallScene","false","","","","","108","",""
"","","","","","html-keyboard-response","298","947265","0.0-24.0-1.11","66632c69d2b270f0314a0b16","6790928bebf0b969fc839b02","6798270434806627f49de7ca","passed","","null","","","","","","","","","","","","","","null","yesOrNo","","","","1","","","mid","3000","","","108","390.27114317029975","300"
"","","","","","html-keyboard-response","299","948822","0.0-24.0-0.12","66632c69d2b270f0314a0b16","6790928bebf0b969fc839b02","6798270434806627f49de7ca","passed","","","","","","","","","","","","","","","","","ballFalling","604.4000000000001","575.4211431702997","266.76","12","fallScene","true","","","","","109","",""
"","","","","","html-keyboard-response","300","951828","0.0-24.0-1.12","66632c69d2b270f0314a0b16","6790928bebf0b969fc839b02","6798270434806627f49de7ca","passed","","556","","","","","","","","","","","","","","j","yesOrNo","","","","12","","","mid","3000","","","109","536.4288568297004","300"
