"success","timeout","failed_images","failed_audio","failed_video","trial_type","trial_index","time_elapsed","internal_node_id","subject_id","study_id","session_id","practiceTestResult","view_history","rt","width","height","webaudio","browser","browser_version","mobile","os","fullscreen","vsync_rate","webcam","microphone","url","stimulus","response","task","ball_X","obstacle_groundTruth_x","obstacle_groundTruth_y","stimulus_idx","trial_name","flipped","choice","timeLimit","question_order","comprehensionCheck","currentTrial","obstacle_choice_x","obstacle_choice_y"
"true","false","[]","[]","[]","preload","0","275","0.0-0.0","666f31820e74d2b2fe99a088","6790928bebf0b969fc839b02","6798263b5b803b9954dc3944","passed","","","","","","","","","","","","","","","","","","","","","","","","","","","","","",""
"","","","","","instructions","1","10127","0.0-1.0","666f31820e74d2b2fe99a088","6790928bebf0b969fc839b02","6798263b5b803b9954dc3944","passed","[{""page_index"":0,""viewing_time"":9850}]","9851","","","","","","","","","","","","","","","","","","","","","","","","","","","",""
"","","","","","browser-check","2","11119","0.0-2.0","666f31820e74d2b2fe99a088","6790928bebf0b969fc839b02","6798263b5b803b9954dc3944","passed","","","1366","647","true","chrome","131.0.0","false","Chrome OS","true","61.08","true","true","","","","","","","","","","","","","","","","",""
"","","","","","external-html","3","128392","0.0-3.0","666f31820e74d2b2fe99a088","6790928bebf0b969fc839b02","6798263b5b803b9954dc3944","passed","","117239","","","","","","","","","","","","consent.html","","","","","","","","","","","","","","","",""
"true","","","","","fullscreen","4","210148","0.0-4.0","666f31820e74d2b2fe99a088","6790928bebf0b969fc839b02","6798263b5b803b9954dc3944","passed","","81445","","","","","","","","","","","","","","","","","","","","","","","","","","","",""
"","","","","","browser-check","5","211164","0.0-5.0","666f31820e74d2b2fe99a088","6790928bebf0b969fc839b02","6798263b5b803b9954dc3944","passed","","","1366","768","true","chrome","131.0.0","false","Chrome OS","true","60.04","true","true","","","","","","","","","","","","","","","","",""
"","","","","","html-keyboard-response","6","214782","0.0-6.0","666f31820e74d2b2fe99a088","6790928bebf0b969fc839b02","6798263b5b803b9954dc3944","passed","","3617","","","","","","","","","","","","","<p><b>This experiment requires keyboard input.</b></p> 
        <p><b>To ensure your response will be recorded successfully, please press 'Space' to continue.</b></p>
        <p>If you can't proceed, you won't be able to complete this study.</p>
        <p></p> <!-- Blank line -->
        <p id=""blinking-text"" style=""font-weight; animation: blink 2s infinite;"">Press Space to continue</p>
        <style>
            @keyframes blink {
                50% {
                    opacity: 0;
                }
            }
        </style>"," ","","","","","","","","","","","","","",""
"","","","","","html-keyboard-response","7","217475","0.0-7.0","666f31820e74d2b2fe99a088","6790928bebf0b969fc839b02","6798263b5b803b9954dc3944","passed","","2691","","","","","","","","","","","","","<p><b>This experiment requires keyboard input.</b></p> 
        <p><b>To ensure your response will be recorded successfully, please press the 'f' key to continue.</b></p>
        <p>If you can't proceed, you won't be able to complete this study.</p>
        <p></p> <!-- Blank line -->
        <p id=""blinking-text"" style=""font-weight; animation: blink 2s infinite;"">Press f to continue</p>
        <style>
            @keyframes blink {
                50% {
                    opacity: 0;
                }
            }
        </style>","f","","","","","","","","","","","","","",""
"","","","","","html-keyboard-response","8","218795","0.0-8.0","666f31820e74d2b2fe99a088","6790928bebf0b969fc839b02","6798263b5b803b9954dc3944","passed","","1318","","","","","","","","","","","","","<p><b>This experiment requires keyboard input.</b></p> 
        <p><b>To ensure your response will be recorded successfully, please press the 'j' key to continue.</b></p>
        <p>If you can't proceed, you won't be able to complete this study.</p>
        <p></p> <!-- Blank line -->
        <p id=""blinking-text"" style=""font-weight; animation: blink 2s infinite;"">Press j to continue</p>
        <style>
            @keyframes blink {
                50% {
                    opacity: 0;
                }
            }
        </style>","j","","","","","","","","","","","","","",""
"","","","","","browser-check","9","235289","0.0-9.0","666f31820e74d2b2fe99a088","6790928bebf0b969fc839b02","6798263b5b803b9954dc3944","passed","","","1366","768","true","chrome","131.0.0","false","Chrome OS","true","60.3","true","true","","","","","","","","","","","","","","","","",""
"","","","","","survey-text","10","270447","0.0-10.0","666f31820e74d2b2fe99a088","6790928bebf0b969fc839b02","6798263b5b803b9954dc3944","passed","","35149","","","","","","","","","","","","","","{""prolificID"":""666f31820e74d2b2fe99a088""}","","","","","","","","","","","","","",""
"","","","","","instructions","11","945671","0.0-11.0-0.0-0.0","666f31820e74d2b2fe99a088","6790928bebf0b969fc839b02","6798263b5b803b9954dc3944","passed","[{""page_index"":0,""viewing_time"":643253},{""page_index"":1,""viewing_time"":1320},{""page_index"":2,""viewing_time"":16212},{""page_index"":3,""viewing_time"":14423}]","675209","","","","","","","","","","","","","","","","","","","","","","","","","","","",""
"","","","","","html-keyboard-response","12","981245","0.0-11.0-0.0-1.0","666f31820e74d2b2fe99a088","6790928bebf0b969fc839b02","6798263b5b803b9954dc3944","passed","","35059","","","","","","","","","","","","","<br>Remember! After a ball falls, the screen will disappear, and you'll decide if the proposed position is where the hidden triangle was. <br>You will now practice this by watching a few videos and making decisions.<p>To respond:<br style=""margin-bottom: 5px; text-indent: -20px; padding-left: 20px;"">- Press <b style=""color: #12AD2B;"">J for Yes</b>, if you think the triangle is in the correct position.<br style=""margin-top: 0; text-indent: -20px; padding-left: 20px;"">- Press <b style=""color: orange;"">F for No</b>, if you think the triangle is not in the correct position.</p><p>In this practice round, there is no time limit. Focus on getting comfortable with the task first.<br>Press either J or F to begin your practice trials.</p><img src = ""YesOrNo_instruction.png"" style=""width: 65%;""></img>","j","","","","","","","","","","","","","",""
"","","","","","html-keyboard-response","13","982971","0.0-11.0-0.0-2.0-0.0","666f31820e74d2b2fe99a088","6790928bebf0b969fc839b02","6798263b5b803b9954dc3944","passed","","","","","","","","","","","","","","","","","ballFalling_prac","416","464","296","1","fallScene","false","","","","","","",""
"","","","","","html-keyboard-response","14","985008","0.0-11.0-0.0-2.0-1.0","666f31820e74d2b2fe99a088","6790928bebf0b969fc839b02","6798263b5b803b9954dc3944","passed","","2030","","","","","","","","","","","","","","j","yesOrNo_prac_noTimed","","","","1","","","gt","NA","","","","",""
"","","","","","html-keyboard-response","15","987116","0.0-11.0-0.0-2.0-0.1","666f31820e74d2b2fe99a088","6790928bebf0b969fc839b02","6798263b5b803b9954dc3944","passed","","","","","","","","","","","","","","","","","ballFalling_prac","660","666","350","3","fallScene","false","","","","","","",""
"","","","","","html-keyboard-response","16","988605","0.0-11.0-0.0-2.0-1.1","666f31820e74d2b2fe99a088","6790928bebf0b969fc839b02","6798263b5b803b9954dc3944","passed","","1484","","","","","","","","","","","","","","j","yesOrNo_prac_noTimed","","","","3","","","wrong direction","NA","","","","",""
"","","","","","html-keyboard-response","17","990182","0.0-11.0-0.0-2.0-0.2","666f31820e74d2b2fe99a088","6790928bebf0b969fc839b02","6798263b5b803b9954dc3944","passed","","","","","","","","","","","","","","","","","ballFalling_prac","441","414","302","5","fallScene","true","","","","","","",""
"","","","","","html-keyboard-response","18","990885","0.0-11.0-0.0-2.0-1.2","666f31820e74d2b2fe99a088","6790928bebf0b969fc839b02","6798263b5b803b9954dc3944","passed","","697","","","","","","","","","","","","","","j","yesOrNo_prac_noTimed","","","","5","","","close gt","NA","","","","",""
"","","","","","instructions","19","1000402","0.0-11.0-0.0-3.0","666f31820e74d2b2fe99a088","6790928bebf0b969fc839b02","6798263b5b803b9954dc3944","passed","[{""page_index"":0,""viewing_time"":7163},{""page_index"":1,""viewing_time"":2353}]","9516","","","","","","","","","","","","","","","","","","","","","","","","","","","",""
"","","","","","html-button-response","20","1005698","0.0-11.0-0.0-4.0","666f31820e74d2b2fe99a088","6790928bebf0b969fc839b02","6798263b5b803b9954dc3944","passed","","4790","","","","","","","","","","","","","<p>To make sure you understood the task, we just have a <b>brief quiz</b> here.</p><p>If you need to review the instructions, click 'Previous'.</p><p>It's important to understand the task to do the study, so you have to pass the quiz to move to the study.</p>","0","","","","","","","","","","","","","",""
"","","","","","instructions","21","1013146","0.0-11.0-0.1-0.1","666f31820e74d2b2fe99a088","6790928bebf0b969fc839b02","6798263b5b803b9954dc3944","passed","[{""page_index"":0,""viewing_time"":2825},{""page_index"":1,""viewing_time"":785},{""page_index"":2,""viewing_time"":1263},{""page_index"":3,""viewing_time"":2572}]","7446","","","","","","","","","","","","","","","","","","","","","","","","","","","",""
"","","","","","html-keyboard-response","22","1017235","0.0-11.0-0.1-1.1","666f31820e74d2b2fe99a088","6790928bebf0b969fc839b02","6798263b5b803b9954dc3944","passed","","3584","","","","","","","","","","","","","<br>Remember! After a ball falls, the screen will disappear, and you'll decide if the proposed position is where the hidden triangle was. <br>You will now practice this by watching a few videos and making decisions.<p>To respond:<br style=""margin-bottom: 5px; text-indent: -20px; padding-left: 20px;"">- Press <b style=""color: #12AD2B;"">J for Yes</b>, if you think the triangle is in the correct position.<br style=""margin-top: 0; text-indent: -20px; padding-left: 20px;"">- Press <b style=""color: orange;"">F for No</b>, if you think the triangle is not in the correct position.</p><p>In this practice round, there is no time limit. Focus on getting comfortable with the task first.<br>Press either J or F to begin your practice trials.</p><img src = ""YesOrNo_instruction.png"" style=""width: 65%;""></img>","j","","","","","","","","","","","","","",""
"","","","","","html-keyboard-response","23","1018796","0.0-11.0-0.1-2.1-0.3","666f31820e74d2b2fe99a088","6790928bebf0b969fc839b02","6798263b5b803b9954dc3944","passed","","","","","","","","","","","","","","","","","ballFalling_prac","441","414","302","5","fallScene","true","","","","","","",""
"","","","","","html-keyboard-response","24","1019387","0.0-11.0-0.1-2.1-1.3","666f31820e74d2b2fe99a088","6790928bebf0b969fc839b02","6798263b5b803b9954dc3944","passed","","586","","","","","","","","","","","","","","j","yesOrNo_prac_noTimed","","","","5","","","close gt","NA","","","","",""
"","","","","","html-keyboard-response","25","1020945","0.0-11.0-0.1-2.1-0.4","666f31820e74d2b2fe99a088","6790928bebf0b969fc839b02","6798263b5b803b9954dc3944","passed","","","","","","","","","","","","","","","","","ballFalling_prac","416","464","296","1","fallScene","false","","","","","","",""
"","","","","","html-keyboard-response","26","1021848","0.0-11.0-0.1-2.1-1.4","666f31820e74d2b2fe99a088","6790928bebf0b969fc839b02","6798263b5b803b9954dc3944","passed","","898","","","","","","","","","","","","","","j","yesOrNo_prac_noTimed","","","","1","","","gt","NA","","","","",""
"","","","","","html-keyboard-response","27","1023962","0.0-11.0-0.1-2.1-0.5","666f31820e74d2b2fe99a088","6790928bebf0b969fc839b02","6798263b5b803b9954dc3944","passed","","","","","","","","","","","","","","","","","ballFalling_prac","660","666","350","3","fallScene","false","","","","","","",""
"","","","","","html-keyboard-response","28","1024346","0.0-11.0-0.1-2.1-1.5","666f31820e74d2b2fe99a088","6790928bebf0b969fc839b02","6798263b5b803b9954dc3944","passed","","379","","","","","","","","","","","","","","j","yesOrNo_prac_noTimed","","","","3","","","wrong direction","NA","","","","",""
"","","","","","instructions","29","1029256","0.0-11.0-0.1-3.1","666f31820e74d2b2fe99a088","6790928bebf0b969fc839b02","6798263b5b803b9954dc3944","passed","[{""page_index"":0,""viewing_time"":2972},{""page_index"":1,""viewing_time"":1937}]","4910","","","","","","","","","","","","","","","","","","","","","","","","","","","",""
"","","","","","html-button-response","30","1030667","0.0-11.0-0.1-4.1","666f31820e74d2b2fe99a088","6790928bebf0b969fc839b02","6798263b5b803b9954dc3944","passed","","909","","","","","","","","","","","","","<p>To make sure you understood the task, we just have a <b>brief quiz</b> here.</p><p>If you need to review the instructions, click 'Previous'.</p><p>It's important to understand the task to do the study, so you have to pass the quiz to move to the study.</p>","1","","","","","","","","","","","","","",""
"","","","","","survey-multi-choice","31","1044394","0.0-11.0-1.0-0.0","666f31820e74d2b2fe99a088","6790928bebf0b969fc839b02","6798263b5b803b9954dc3944","passed","","13701","","","","","","","","","","","","","","{""generalProcedure"":""Watch a video of a ball falling, some of it behind a gray screen. After each video, decide if the triangle is at the spot where the ball hit the triangle behind the screen. There is time limit for the response.""}","","","","","","","","","","[0]","","","",""
"","","","","","survey-multi-choice","32","1053054","0.0-11.0-1.0-1.0","666f31820e74d2b2fe99a088","6790928bebf0b969fc839b02","6798263b5b803b9954dc3944","passed","","8656","","","","","","","","","","","","","","{""checkBallHitObstacle"":""Yes.""}","","","","","","","","","","[0]","","","",""
"","","","","","survey-multi-choice","33","1058101","0.0-11.0-1.0-2.0","666f31820e74d2b2fe99a088","6790928bebf0b969fc839b02","6798263b5b803b9954dc3944","passed","","5044","","","","","","","","","","","","","","{""checkTriangleVisibility"":""No, the triangle is hidden behind the gray screen.""}","","","","","","","","","","[0]","","","",""
"","","","","","survey-multi-choice","34","1064281","0.0-11.0-1.0-3.0","666f31820e74d2b2fe99a088","6790928bebf0b969fc839b02","6798263b5b803b9954dc3944","passed","","6177","","","","","","","","","","","","","","{""checkTimedResponse"":""Your response will not be recorded, and the trial will move to the next one.""}","","","","","","","","","","[0]","","","",""
"","","","","","survey-multi-choice","35","1073323","0.0-11.0-1.0-4.0","666f31820e74d2b2fe99a088","6790928bebf0b969fc839b02","6798263b5b803b9954dc3944","passed","","9039","","","","","","","","","","","","","","{""checkTimeBlockNotice"":""At the beginning of each block.""}","","","","","","","","","","[0]","","","",""
"","","","","","survey-multi-choice","36","1086042","0.0-11.0-1.0-5.0","666f31820e74d2b2fe99a088","6790928bebf0b969fc839b02","6798263b5b803b9954dc3944","passed","","12717","","","","","","","","","","","","","","{""checkTimeBlockSameness"":""No, the time limit changes for each trial within a block.""}","","","","","","","","","","[0]","","","",""
"","","","","","survey-multi-choice","37","1097778","0.0-11.0-1.0-6.0","666f31820e74d2b2fe99a088","6790928bebf0b969fc839b02","6798263b5b803b9954dc3944","passed","","11733","","","","","","","","","","","","","","{""checkTrianglePrecision"":""No. The proposed purple triangle is not in the correct position because it doesn't match the location of the white triangle exactly.""}","","","","","","","","","","[0]","","","",""
"","","","","","html-button-response","38","1099784","0.0-11.0-2.0-0.0","666f31820e74d2b2fe99a088","6790928bebf0b969fc839b02","6798263b5b803b9954dc3944","passed","","2004","","","","","","","","","","","","","<p>Oops! You did not pass the quiz.</p><p>You will now repeat the instructions and practice.</p>","0","","","","","","","","","","","failed","","",""
"","","","","","instructions","39","1113015","0.0-11.1-0.2-0.2","666f31820e74d2b2fe99a088","6790928bebf0b969fc839b02","6798263b5b803b9954dc3944","passed","[{""page_index"":0,""viewing_time"":4142},{""page_index"":1,""viewing_time"":7591},{""page_index"":2,""viewing_time"":774},{""page_index"":3,""viewing_time"":721}]","13230","","","","","","","","","","","","","","","","","","","","","","","","","","","",""
"","","","","","html-keyboard-response","40","1115174","0.0-11.1-0.2-1.2","666f31820e74d2b2fe99a088","6790928bebf0b969fc839b02","6798263b5b803b9954dc3944","passed","","1655","","","","","","","","","","","","","<br>Remember! After a ball falls, the screen will disappear, and you'll decide if the proposed position is where the hidden triangle was. <br>You will now practice this by watching a few videos and making decisions.<p>To respond:<br style=""margin-bottom: 5px; text-indent: -20px; padding-left: 20px;"">- Press <b style=""color: #12AD2B;"">J for Yes</b>, if you think the triangle is in the correct position.<br style=""margin-top: 0; text-indent: -20px; padding-left: 20px;"">- Press <b style=""color: orange;"">F for No</b>, if you think the triangle is not in the correct position.</p><p>In this practice round, there is no time limit. Focus on getting comfortable with the task first.<br>Press either J or F to begin your practice trials.</p><img src = ""YesOrNo_instruction.png"" style=""width: 65%;""></img>","j","","","","","","","","","","","","","",""
"","","","","","html-keyboard-response","41","1117289","0.0-11.1-0.2-2.2-0.6","666f31820e74d2b2fe99a088","6790928bebf0b969fc839b02","6798263b5b803b9954dc3944","passed","","","","","","","","","","","","","","","","","ballFalling_prac","660","666","350","3","fallScene","false","","","","","","",""
"","","","","","html-keyboard-response","42","1118039","0.0-11.1-0.2-2.2-1.6","666f31820e74d2b2fe99a088","6790928bebf0b969fc839b02","6798263b5b803b9954dc3944","passed","","747","","","","","","","","","","","","","","j","yesOrNo_prac_noTimed","","","","3","","","wrong direction","NA","","","","",""
"","","","","","html-keyboard-response","43","1119602","0.0-11.1-0.2-2.2-0.7","666f31820e74d2b2fe99a088","6790928bebf0b969fc839b02","6798263b5b803b9954dc3944","passed","","","","","","","","","","","","","","","","","ballFalling_prac","416","464","296","1","fallScene","false","","","","","","",""
"","","","","","html-keyboard-response","44","1120472","0.0-11.1-0.2-2.2-1.7","666f31820e74d2b2fe99a088","6790928bebf0b969fc839b02","6798263b5b803b9954dc3944","passed","","865","","","","","","","","","","","","","","f","yesOrNo_prac_noTimed","","","","1","","","gt","NA","","","","",""
"","","","","","html-keyboard-response","45","1122034","0.0-11.1-0.2-2.2-0.8","666f31820e74d2b2fe99a088","6790928bebf0b969fc839b02","6798263b5b803b9954dc3944","passed","","","","","","","","","","","","","","","","","ballFalling_prac","441","414","302","5","fallScene","true","","","","","","",""
"","","","","","html-keyboard-response","46","1123380","0.0-11.1-0.2-2.2-1.8","666f31820e74d2b2fe99a088","6790928bebf0b969fc839b02","6798263b5b803b9954dc3944","passed","","1341","","","","","","","","","","","","","","f","yesOrNo_prac_noTimed","","","","5","","","close gt","NA","","","","",""
"","","","","","instructions","47","1163442","0.0-11.1-0.2-3.2","666f31820e74d2b2fe99a088","6790928bebf0b969fc839b02","6798263b5b803b9954dc3944","passed","[{""page_index"":0,""viewing_time"":31814},{""page_index"":1,""viewing_time"":8246}]","40061","","","","","","","","","","","","","","","","","","","","","","","","","","","",""
"","","","","","html-button-response","48","1167854","0.0-11.1-0.2-4.2","666f31820e74d2b2fe99a088","6790928bebf0b969fc839b02","6798263b5b803b9954dc3944","passed","","3909","","","","","","","","","","","","","<p>To make sure you understood the task, we just have a <b>brief quiz</b> here.</p><p>If you need to review the instructions, click 'Previous'.</p><p>It's important to understand the task to do the study, so you have to pass the quiz to move to the study.</p>","1","","","","","","","","","","","","","",""
"","","","","","survey-multi-choice","49","1172514","0.0-11.1-1.1-0.1","666f31820e74d2b2fe99a088","6790928bebf0b969fc839b02","6798263b5b803b9954dc3944","passed","","4658","","","","","","","","","","","","","","{""generalProcedure"":""Watch a video of a ball falling, some of it behind a gray screen. After each video, decide if the triangle is at the spot where the ball hit the triangle behind the screen. There is time limit for the response.""}","","","","","","","","","","[0]","","","",""
"","","","","","survey-multi-choice","50","1176777","0.0-11.1-1.1-1.1","666f31820e74d2b2fe99a088","6790928bebf0b969fc839b02","6798263b5b803b9954dc3944","passed","","4261","","","","","","","","","","","","","","{""checkBallHitObstacle"":""Yes.""}","","","","","","","","","","[0]","","","",""
"","","","","","survey-multi-choice","51","1180135","0.0-11.1-1.1-2.1","666f31820e74d2b2fe99a088","6790928bebf0b969fc839b02","6798263b5b803b9954dc3944","passed","","3356","","","","","","","","","","","","","","{""checkTriangleVisibility"":""No, the triangle is hidden behind the gray screen.""}","","","","","","","","","","[0]","","","",""
"","","","","","survey-multi-choice","52","1184071","0.0-11.1-1.1-3.1","666f31820e74d2b2fe99a088","6790928bebf0b969fc839b02","6798263b5b803b9954dc3944","passed","","3934","","","","","","","","","","","","","","{""checkTimedResponse"":""Your response will not be recorded, and the trial will move to the next one.""}","","","","","","","","","","[0]","","","",""
"","","","","","survey-multi-choice","53","1188603","0.0-11.1-1.1-4.1","666f31820e74d2b2fe99a088","6790928bebf0b969fc839b02","6798263b5b803b9954dc3944","passed","","4530","","","","","","","","","","","","","","{""checkTimeBlockNotice"":""At the beginning of each block.""}","","","","","","","","","","[0]","","","",""
"","","","","","survey-multi-choice","54","1199067","0.0-11.1-1.1-5.1","666f31820e74d2b2fe99a088","6790928bebf0b969fc839b02","6798263b5b803b9954dc3944","passed","","10462","","","","","","","","","","","","","","{""checkTimeBlockSameness"":""Yes, the time limit is the same for all trials within a block.""}","","","","","","","","","","[0]","","","",""
"","","","","","survey-multi-choice","55","1204484","0.0-11.1-1.1-6.1","666f31820e74d2b2fe99a088","6790928bebf0b969fc839b02","6798263b5b803b9954dc3944","passed","","5414","","","","","","","","","","","","","","{""checkTrianglePrecision"":""No. The proposed purple triangle is not in the correct position because it doesn't match the location of the white triangle exactly.""}","","","","","","","","","","[0]","","","",""
"","","","","","instructions","56","1330111","0.0-12.0","666f31820e74d2b2fe99a088","6790928bebf0b969fc839b02","6798263b5b803b9954dc3944","passed","[{""page_index"":0,""viewing_time"":12570},{""page_index"":1,""viewing_time"":82173},{""page_index"":2,""viewing_time"":15371},{""page_index"":3,""viewing_time"":15510}]","125625","","","","","","","","","","","","","","","","","","","","","","","","","","","",""
"","","","","","instructions","57","1344368","0.0-13.0-0.0","666f31820e74d2b2fe99a088","6790928bebf0b969fc839b02","6798263b5b803b9954dc3944","passed","[{""page_index"":0,""viewing_time"":14255}]","14256","","","","","","","","","","","","","","","","","","","","","","","","","","","",""
"","","","","","html-keyboard-response","58","1347260","0.0-13.0-1.0","666f31820e74d2b2fe99a088","6790928bebf0b969fc839b02","6798263b5b803b9954dc3944","passed","","2891","","","","","","","","","","","","","<p><span style=""font-size:40px;"">Practice BLOCK 1</span></p><p><span style=""font-size:25px;"">You have <b style=""color: #FF644F;""><strong>3 second(s)</strong></b> to respond to the following trials.</span><br></p><p id=""blinking-text"" style=""font-weight; animation: blink 2s infinite;"">Press Space to continue</p><style>
                    @keyframes blink {
                        50% {
                            opacity: 0;
                        }
                    }
                </style>"," ","","","","","","","","","","","","","",""
"","","","","","html-keyboard-response","59","1348830","0.0-13.0-2.0-0.0","666f31820e74d2b2fe99a088","6790928bebf0b969fc839b02","6798263b5b803b9954dc3944","passed","","","","","","","","","","","","","","","","","ballFalling_prac","584","536","296","1","fallScene","true","","","","","","",""
"","","","","","html-keyboard-response","60","1351840","0.0-13.0-2.0-1.0","666f31820e74d2b2fe99a088","6790928bebf0b969fc839b02","6798263b5b803b9954dc3944","passed","","1126","","","","","","","","","","","","","","f","yesOrNo_prac","","","","1","","","close gt","3000","","","","",""
"","","","","","html-keyboard-response","61","1353410","0.0-13.0-2.0-0.1","666f31820e74d2b2fe99a088","6790928bebf0b969fc839b02","6798263b5b803b9954dc3944","passed","","","","","","","","","","","","","","","","","ballFalling_prac","660","610","263","4","fallScene","false","","","","","","",""
"","","","","","html-keyboard-response","62","1356415","0.0-13.0-2.0-1.1","666f31820e74d2b2fe99a088","6790928bebf0b969fc839b02","6798263b5b803b9954dc3944","passed","","1102","","","","","","","","","","","","","","f","yesOrNo_prac","","","","4","","","gt","3000","","","","",""
"","","","","","html-keyboard-response","63","1357977","0.0-13.0-2.0-0.2","666f31820e74d2b2fe99a088","6790928bebf0b969fc839b02","6798263b5b803b9954dc3944","passed","","","","","","","","","","","","","","","","","ballFalling_prac","416","464","296","1","fallScene","false","","","","","","",""
"","","","","","html-keyboard-response","64","1360982","0.0-13.0-2.0-1.2","666f31820e74d2b2fe99a088","6790928bebf0b969fc839b02","6798263b5b803b9954dc3944","passed","","1316","","","","","","","","","","","","","","j","yesOrNo_prac","","","","1","","","far gt","3000","","","","",""
"","","","","","html-keyboard-response","65","1365305","0.0-13.0-3.0","666f31820e74d2b2fe99a088","6790928bebf0b969fc839b02","6798263b5b803b9954dc3944","passed","","4322","","","","","","","","","","","","","<p><span style=""font-size:40px;"">Practice BLOCK 2</span></p><p><span style=""font-size:25px;"">You have <b style=""color: #FF644F;""><strong>1 second(s)</strong></b> to respond to the following trials.</span><br></p><p id=""blinking-text"" style=""font-weight; animation: blink 2s infinite;"">Press Space to continue</p><style>
                    @keyframes blink {
                        50% {
                            opacity: 0;
                        }
                    }
                </style>"," ","","","","","","","","","","","","","",""
"","","","","","html-keyboard-response","66","1366860","0.0-13.0-4.0-0.0","666f31820e74d2b2fe99a088","6790928bebf0b969fc839b02","6798263b5b803b9954dc3944","passed","","","","","","","","","","","","","","","","","ballFalling_prac","441","500","317","6","fallScene","true","","","","","","",""
"","","","","","html-keyboard-response","67","1367865","0.0-13.0-4.0-1.0","666f31820e74d2b2fe99a088","6790928bebf0b969fc839b02","6798263b5b803b9954dc3944","passed","","753","","","","","","","","","","","","","","f","yesOrNo_prac","","","","6","","","gt","1000","","","","",""
"","","","","","html-keyboard-response","68","1369977","0.0-13.0-4.0-0.1","666f31820e74d2b2fe99a088","6790928bebf0b969fc839b02","6798263b5b803b9954dc3944","passed","","","","","","","","","","","","","","","","","ballFalling_prac","340","334","350","3","fallScene","true","","","","","","",""
"","","","","","html-keyboard-response","69","1370982","0.0-13.0-4.0-1.1","666f31820e74d2b2fe99a088","6790928bebf0b969fc839b02","6798263b5b803b9954dc3944","passed","","null","","","","","","","","","","","","","","null","yesOrNo_prac","","","","3","","","close gt","1000","","","","",""
"","","","","","html-keyboard-response","70","1372559","0.0-13.0-4.0-0.2","666f31820e74d2b2fe99a088","6790928bebf0b969fc839b02","6798263b5b803b9954dc3944","passed","","","","","","","","","","","","","","","","","ballFalling_prac","660","610","263","4","fallScene","false","","","","","","",""
"","","","","","html-keyboard-response","71","1373564","0.0-13.0-4.0-1.2","666f31820e74d2b2fe99a088","6790928bebf0b969fc839b02","6798263b5b803b9954dc3944","passed","","733","","","","","","","","","","","","","","f","yesOrNo_prac","","","","4","","","far gt","1000","","","","",""
"","","","","","instructions","72","1379087","0.0-13.0-5.0","666f31820e74d2b2fe99a088","6790928bebf0b969fc839b02","6798263b5b803b9954dc3944","passed","[{""page_index"":0,""viewing_time"":5521}]","5521","","","","","","","","","","","","","","","","","","","","","","","","","","","",""
"","","","","","html-keyboard-response","73","1384242","0.0-13.0-6.0","666f31820e74d2b2fe99a088","6790928bebf0b969fc839b02","6798263b5b803b9954dc3944","passed","","5153","","","","","","","","","","","","","<p><span style=""font-size:40px;"">Practice Test BLOCK 1</span></p><p><span style=""font-size:25px;"">You have <b style=""color: #FF644F;""><strong>1 second(s)</strong></b> to respond to the following trials.</span><br></p><p id=""blinking-text"" style=""font-weight; animation: blink 2s infinite;"">Press Space to continue</p><style>
                    @keyframes blink {
                        50% {
                            opacity: 0;
                        }
                    }
                </style>"," ","","","","","","","","","","","","","",""
"","","","","","html-keyboard-response","74","1385823","0.0-13.0-7.0-0.0","666f31820e74d2b2fe99a088","6790928bebf0b969fc839b02","6798263b5b803b9954dc3944","passed","","","","","","","","","","","","","","","","","ballFalling_prac","340","390","263","4","fallScene","true","","","","","","",""
"","","","","","html-keyboard-response","75","1386831","0.0-13.0-7.0-1.0","666f31820e74d2b2fe99a088","6790928bebf0b969fc839b02","6798263b5b803b9954dc3944","passed","","559","","","","","","","","","","","","","","f","yesOrNo_prac","","","","4","","","far gt","1000","","","","",""
"","","","","","html-keyboard-response","76","1388390","0.0-13.0-7.0-0.1","666f31820e74d2b2fe99a088","6790928bebf0b969fc839b02","6798263b5b803b9954dc3944","passed","","","","","","","","","","","","","","","","","ballFalling_prac","441","500","317","6","fallScene","true","","","","","","",""
"","","","","","html-keyboard-response","77","1389397","0.0-13.0-7.0-1.1","666f31820e74d2b2fe99a088","6790928bebf0b969fc839b02","6798263b5b803b9954dc3944","passed","","576","","","","","","","","","","","","","","f","yesOrNo_prac","","","","6","","","close gt","1000","","","","",""
"","","","","","html-keyboard-response","78","1390973","0.0-13.0-7.0-0.2","666f31820e74d2b2fe99a088","6790928bebf0b969fc839b02","6798263b5b803b9954dc3944","passed","","","","","","","","","","","","","","","","","ballFalling_prac","559","586","302","5","fallScene","false","","","","","","",""
"","","","","","html-keyboard-response","79","1391979","0.0-13.0-7.0-1.2","666f31820e74d2b2fe99a088","6790928bebf0b969fc839b02","6798263b5b803b9954dc3944","passed","","548","","","","","","","","","","","","","","j","yesOrNo_prac","","","","5","","","gt","1000","","","","",""
"","","","","","html-keyboard-response","80","1393275","0.0-13.0-8.0","666f31820e74d2b2fe99a088","6790928bebf0b969fc839b02","6798263b5b803b9954dc3944","passed","","1294","","","","","","","","","","","","","<p><span style=""font-size:40px;"">Practice Test BLOCK 2</span></p><p><span style=""font-size:25px;"">You have <b style=""color: #FF644F;""><strong>3 second(s)</strong></b> to respond to the following trials.</span><br></p><p id=""blinking-text"" style=""font-weight; animation: blink 2s infinite;"">Press Space to continue</p><style>
                    @keyframes blink {
                        50% {
                            opacity: 0;
                        }
                    }
                </style>"," ","","","","","","","","","","","","","",""
"","","","","","html-keyboard-response","81","1394855","0.0-13.0-9.0-0.0","666f31820e74d2b2fe99a088","6790928bebf0b969fc839b02","6798263b5b803b9954dc3944","passed","","","","","","","","","","","","","","","","","ballFalling_prac","559","586","302","5","fallScene","false","","","","","","",""
"","","","","","html-keyboard-response","82","1397861","0.0-13.0-9.0-1.0","666f31820e74d2b2fe99a088","6790928bebf0b969fc839b02","6798263b5b803b9954dc3944","passed","","557","","","","","","","","","","","","","","f","yesOrNo_prac","","","","5","","","far gt","3000","","","","",""
"","","","","","html-keyboard-response","83","1399438","0.0-13.0-9.0-0.1","666f31820e74d2b2fe99a088","6790928bebf0b969fc839b02","6798263b5b803b9954dc3944","passed","","","","","","","","","","","","","","","","","ballFalling_prac","416","365","249","2","fallScene","false","","","","","","",""
"","","","","","html-keyboard-response","84","1402447","0.0-13.0-9.0-1.1","666f31820e74d2b2fe99a088","6790928bebf0b969fc839b02","6798263b5b803b9954dc3944","passed","","790","","","","","","","","","","","","","","f","yesOrNo_prac","","","","2","","","gt","3000","","","","",""
"","","","","","html-keyboard-response","85","1404023","0.0-13.0-9.0-0.2","666f31820e74d2b2fe99a088","6790928bebf0b969fc839b02","6798263b5b803b9954dc3944","passed","","","","","","","","","","","","","","","","","ballFalling_prac","340","390","263","4","fallScene","true","","","","","","",""
"","","","","","html-keyboard-response","86","1407028","0.0-13.0-9.0-1.2","666f31820e74d2b2fe99a088","6790928bebf0b969fc839b02","6798263b5b803b9954dc3944","passed","","623","","","","","","","","","","","","","","j","yesOrNo_prac","","","","4","","","close gt","3000","","","","",""
"","","","","","instructions","87","1491014","0.0-14.0","666f31820e74d2b2fe99a088","6790928bebf0b969fc839b02","6798263b5b803b9954dc3944","passed","[{""page_index"":0,""viewing_time"":83982}]","83982","","","","","","","","","","","","","","","","","","","","","","","","","","","",""
"","","","","","html-keyboard-response","88","1495690","0.0-15.0","666f31820e74d2b2fe99a088","6790928bebf0b969fc839b02","6798263b5b803b9954dc3944","passed","","4674","","","","","","","","","","","","","<p><span style=""font-size:40px;"">BLOCK 1</span></p><p><span style=""font-size:25px;"">You have <b style=""color: #FF644F;""><strong>1 second(s)</strong></b> to respond to the following trials.</span><br></p><p></p> <!-- Blank line -->
                <p id=""blinking-text"" style=""font-weight; animation: blink 2s infinite;"">Press Space to continue</p>
                <style>
                    @keyframes blink {
                        50% {
                            opacity: 0;
                        }
                    }
                </style></p>"," ","","","","","","","","","","","","","",""
"","","","","","html-keyboard-response","89","1497245","0.0-16.0-0.0","666f31820e74d2b2fe99a088","6790928bebf0b969fc839b02","6798263b5b803b9954dc3944","passed","","","","","","","","","","","","","","","","","ballFalling","604.4000000000001","575.4211431702997","266.76","12","fallScene","true","","","","","1","",""
"","","","","","html-keyboard-response","90","1498251","0.0-16.0-1.0","666f31820e74d2b2fe99a088","6790928bebf0b969fc839b02","6798263b5b803b9954dc3944","passed","","710","","","","","","","","","","","","","","f","yesOrNo","","","","12","","","gt","1000","","","1","575.4211431702997","266.76"
"","","","","","html-keyboard-response","91","1499811","0.0-16.0-0.1","666f31820e74d2b2fe99a088","6790928bebf0b969fc839b02","6798263b5b803b9954dc3944","passed","","","","","","","","","","","","","","","","","ballFalling","604.4000000000001","650.0211431702996","404.58000000000004","11","fallScene","true","","","","","2","",""
"","","","","","html-keyboard-response","92","1500816","0.0-16.0-1.1","666f31820e74d2b2fe99a088","6790928bebf0b969fc839b02","6798263b5b803b9954dc3944","passed","","613","","","","","","","","","","","","","","f","yesOrNo","","","","11","","","lp","1000","","","2","605.4000000000001","372.6340973215488"
"","","","","","html-keyboard-response","93","1502378","0.0-16.0-0.2","666f31820e74d2b2fe99a088","6790928bebf0b969fc839b02","6798263b5b803b9954dc3944","passed","","","","","","","","","","","","","","","","","ballFalling","500","453.67114317029973","210.33","5","fallScene","true","","","","","3","",""
"","","","","","html-keyboard-response","94","1503383","0.0-16.0-1.2","666f31820e74d2b2fe99a088","6790928bebf0b969fc839b02","6798263b5b803b9954dc3944","passed","","770","","","","","","","","","","","","","","f","yesOrNo","","","","5","","","gt","1000","","","3","453.6711431702998","210.33"
"","","","","","html-keyboard-response","95","1504945","0.0-16.0-0.3","666f31820e74d2b2fe99a088","6790928bebf0b969fc839b02","6798263b5b803b9954dc3944","passed","","","","","","","","","","","","","","","","","ballFalling","322.3","296.07114317029976","371.46","3","fallScene","false","","","","","4","",""
"","","","","","html-keyboard-response","96","1505951","0.0-16.0-1.3","666f31820e74d2b2fe99a088","6790928bebf0b969fc839b02","6798263b5b803b9954dc3944","passed","","588","","","","","","","","","","","","","","j","yesOrNo","","","","3","","","mid","1000","","","4","321.3","300"
"","","","","","html-keyboard-response","97","1507511","0.0-16.0-0.4","666f31820e74d2b2fe99a088","6790928bebf0b969fc839b02","6798263b5b803b9954dc3944","passed","","","","","","","","","","","","","","","","","ballFalling","322.3","379.3711431702997","245.25","1","fallScene","true","","","","","5","",""
"","","","","","html-keyboard-response","98","1508516","0.0-16.0-1.4","666f31820e74d2b2fe99a088","6790928bebf0b969fc839b02","6798263b5b803b9954dc3944","passed","","644","","","","","","","","","","","","","","f","yesOrNo","","","","1","","","gt","1000","","","5","379.3711431702997","245.25"
"","","","","","html-keyboard-response","99","1510078","0.0-16.0-0.5","666f31820e74d2b2fe99a088","6790928bebf0b969fc839b02","6798263b5b803b9954dc3944","passed","","","","","","","","","","","","","","","","","ballFalling","604.4000000000001","575.4211431702997","266.76","12","fallScene","false","","","","","6","",""
"","","","","","html-keyboard-response","100","1511084","0.0-16.0-1.5","666f31820e74d2b2fe99a088","6790928bebf0b969fc839b02","6798263b5b803b9954dc3944","passed","","599","","","","","","","","","","","","","","f","yesOrNo","","","","12","","","mid","1000","","","6","536.4288568297004","300"
"","","","","","html-keyboard-response","101","1512644","0.0-16.0-0.6","666f31820e74d2b2fe99a088","6790928bebf0b969fc839b02","6798263b5b803b9954dc3944","passed","","","","","","","","","","","","","","","","","ballFalling","322.3","356.42114317029973","357.87","4","fallScene","true","","","","","7","",""
"","","","","","html-keyboard-response","102","1513649","0.0-16.0-1.6","666f31820e74d2b2fe99a088","6790928bebf0b969fc839b02","6798263b5b803b9954dc3944","passed","","982","","","","","","","","","","","","","","f","yesOrNo","","","","4","","","mid","1000","","","7","390.27114317029975","300"
"","","","","","html-keyboard-response","103","1515210","0.0-16.0-0.7","666f31820e74d2b2fe99a088","6790928bebf0b969fc839b02","6798263b5b803b9954dc3944","passed","","","","","","","","","","","","","","","","","ballFalling","322.3","356.42114317029973","357.87","4","fallScene","false","","","","","8","",""
"","","","","","html-keyboard-response","104","1516215","0.0-16.0-1.7","666f31820e74d2b2fe99a088","6790928bebf0b969fc839b02","6798263b5b803b9954dc3944","passed","","639","","","","","","","","","","","","","","j","yesOrNo","","","","4","","","gt","1000","","","8","356.42114317029973","357.87"
"","","","","","html-keyboard-response","105","1518009","0.0-16.0-0.8","666f31820e74d2b2fe99a088","6790928bebf0b969fc839b02","6798263b5b803b9954dc3944","passed","","","","","","","","","","","","","","","","","ballFalling","322.3","308.07114317029976","253.89","2","fallScene","false","","","","","9","",""
"","","","","","html-keyboard-response","106","1519016","0.0-16.0-1.8","666f31820e74d2b2fe99a088","6790928bebf0b969fc839b02","6798263b5b803b9954dc3944","passed","","620","","","","","","","","","","","","","","j","yesOrNo","","","","2","","","mid","1000","","","9","321.3","300"
"","","","","","html-keyboard-response","107","1520509","0.0-16.0-0.9","666f31820e74d2b2fe99a088","6790928bebf0b969fc839b02","6798263b5b803b9954dc3944","passed","","","","","","","","","","","","","","","","","ballFalling","604.4000000000001","667.6211431702998","201.78","9","fallScene","false","","","","","10","",""
"","","","","","html-keyboard-response","108","1521517","0.0-16.0-1.9","666f31820e74d2b2fe99a088","6790928bebf0b969fc839b02","6798263b5b803b9954dc3944","passed","","580","","","","","","","","","","","","","","f","yesOrNo","","","","9","","","gt","1000","","","10","667.6211431702998","201.78"
"","","","","","html-keyboard-response","109","1523076","0.0-16.0-0.10","666f31820e74d2b2fe99a088","6790928bebf0b969fc839b02","6798263b5b803b9954dc3944","passed","","","","","","","","","","","","","","","","","ballFalling","322.3","356.42114317029973","357.87","4","fallScene","true","","","","","11","",""
"","","","","","html-keyboard-response","110","1524083","0.0-16.0-1.10","666f31820e74d2b2fe99a088","6790928bebf0b969fc839b02","6798263b5b803b9954dc3944","passed","","798","","","","","","","","","","","","","","f","yesOrNo","","","","4","","","gt","1000","","","11","356.42114317029973","357.87"
"","","","","","html-keyboard-response","111","1525642","0.0-16.0-0.11","666f31820e74d2b2fe99a088","6790928bebf0b969fc839b02","6798263b5b803b9954dc3944","passed","","","","","","","","","","","","","","","","","ballFalling","500","453.67114317029973","210.33","5","fallScene","false","","","","","12","",""
"","","","","","html-keyboard-response","112","1526647","0.0-16.0-1.11","666f31820e74d2b2fe99a088","6790928bebf0b969fc839b02","6798263b5b803b9954dc3944","passed","","767","","","","","","","","","","","","","","f","yesOrNo","","","","5","","","lp","1000","","","12","499","151"
"","","","","","html-keyboard-response","113","1528658","0.0-16.0-0.12","666f31820e74d2b2fe99a088","6790928bebf0b969fc839b02","6798263b5b803b9954dc3944","passed","","","","","","","","","","","","","","","","","ballFalling","604.4000000000001","596.8711431702998","394.5","10","fallScene","false","","","","","13","",""
"","","","","","html-keyboard-response","114","1529663","0.0-16.0-1.12","666f31820e74d2b2fe99a088","6790928bebf0b969fc839b02","6798263b5b803b9954dc3944","passed","","649","","","","","","","","","","","","","","f","yesOrNo","","","","10","","","lp","1000","","","13","603.4000000000001","215.50214355555383"
"","","","","","html-keyboard-response","115","1531225","0.0-16.0-0.13","666f31820e74d2b2fe99a088","6790928bebf0b969fc839b02","6798263b5b803b9954dc3944","passed","","","","","","","","","","","","","","","","","ballFalling","322.3","379.3711431702997","245.25","1","fallScene","false","","","","","14","",""
"","","","","","html-keyboard-response","116","1532230","0.0-16.0-1.13","666f31820e74d2b2fe99a088","6790928bebf0b969fc839b02","6798263b5b803b9954dc3944","passed","","686","","","","","","","","","","","","","","j","yesOrNo","","","","1","","","mid","1000","","","14","390.27114317029975","300"
"","","","","","html-keyboard-response","117","1533724","0.0-16.0-0.14","666f31820e74d2b2fe99a088","6790928bebf0b969fc839b02","6798263b5b803b9954dc3944","passed","","","","","","","","","","","","","","","","","ballFalling","604.4000000000001","667.6211431702998","201.78","9","fallScene","false","","","","","15","",""
"","","","","","html-keyboard-response","118","1534729","0.0-16.0-1.14","666f31820e74d2b2fe99a088","6790928bebf0b969fc839b02","6798263b5b803b9954dc3944","passed","","699","","","","","","","","","","","","","","f","yesOrNo","","","","9","","","lp","1000","","","15","605.4000000000001","151"
"","","","","","html-keyboard-response","119","1536308","0.0-16.0-0.15","666f31820e74d2b2fe99a088","6790928bebf0b969fc839b02","6798263b5b803b9954dc3944","passed","","","","","","","","","","","","","","","","","ballFalling","500","553.4711431702997","282.51","7","fallScene","false","","","","","16","",""
"","","","","","html-keyboard-response","120","1537313","0.0-16.0-1.15","666f31820e74d2b2fe99a088","6790928bebf0b969fc839b02","6798263b5b803b9954dc3944","passed","","null","","","","","","","","","","","","","","null","yesOrNo","","","","7","","","lp","1000","","","16","501","227.2843295913261"
"","","","","","html-keyboard-response","121","1538808","0.0-16.0-0.16","666f31820e74d2b2fe99a088","6790928bebf0b969fc839b02","6798263b5b803b9954dc3944","passed","","","","","","","","","","","","","","","","","ballFalling","604.4000000000001","667.6211431702998","201.78","9","fallScene","true","","","","","17","",""
"","","","","","html-keyboard-response","122","1539813","0.0-16.0-1.16","666f31820e74d2b2fe99a088","6790928bebf0b969fc839b02","6798263b5b803b9954dc3944","passed","","985","","","","","","","","","","","","","","f","yesOrNo","","","","9","","","mid","1000","","","17","605.4000000000001","300"
"","","","","","html-keyboard-response","123","1541374","0.0-16.0-0.17","666f31820e74d2b2fe99a088","6790928bebf0b969fc839b02","6798263b5b803b9954dc3944","passed","","","","","","","","","","","","","","","","","ballFalling","322.3","296.07114317029976","371.46","3","fallScene","false","","","","","18","",""
"","","","","","html-keyboard-response","124","1542379","0.0-16.0-1.17","666f31820e74d2b2fe99a088","6790928bebf0b969fc839b02","6798263b5b803b9954dc3944","passed","","693","","","","","","","","","","","","","","f","yesOrNo","","","","3","","","lp","1000","","","18","321.3","287.3327096511259"
"","","","","","html-keyboard-response","125","1543873","0.0-16.0-0.18","666f31820e74d2b2fe99a088","6790928bebf0b969fc839b02","6798263b5b803b9954dc3944","passed","","","","","","","","","","","","","","","","","ballFalling","604.4000000000001","667.6211431702998","201.78","9","fallScene","false","","","","","19","",""
"","","","","","html-keyboard-response","126","1544878","0.0-16.0-1.18","666f31820e74d2b2fe99a088","6790928bebf0b969fc839b02","6798263b5b803b9954dc3944","passed","","627","","","","","","","","","","","","","","j","yesOrNo","","","","9","","","mid","1000","","","19","605.4000000000001","300"
"","","","","","html-keyboard-response","127","1546440","0.0-16.0-0.19","666f31820e74d2b2fe99a088","6790928bebf0b969fc839b02","6798263b5b803b9954dc3944","passed","","","","","","","","","","","","","","","","","ballFalling","322.3","296.07114317029976","371.46","3","fallScene","true","","","","","20","",""
"","","","","","html-keyboard-response","128","1547446","0.0-16.0-1.19","666f31820e74d2b2fe99a088","6790928bebf0b969fc839b02","6798263b5b803b9954dc3944","passed","","434","","","","","","","","","","","","","","j","yesOrNo","","","","3","","","mid","1000","","","20","321.3","300"
"","","","","","html-keyboard-response","129","1549456","0.0-16.0-0.20","666f31820e74d2b2fe99a088","6790928bebf0b969fc839b02","6798263b5b803b9954dc3944","passed","","","","","","","","","","","","","","","","","ballFalling","500","510.8711431702997","369.03","8","fallScene","true","","","","","21","",""
"","","","","","html-keyboard-response","130","1550461","0.0-16.0-1.20","666f31820e74d2b2fe99a088","6790928bebf0b969fc839b02","6798263b5b803b9954dc3944","passed","","708","","","","","","","","","","","","","","f","yesOrNo","","","","8","","","gt","1000","","","21","510.8711431702997","369.03"
"","","","","","html-keyboard-response","131","1551956","0.0-16.0-0.21","666f31820e74d2b2fe99a088","6790928bebf0b969fc839b02","6798263b5b803b9954dc3944","passed","","","","","","","","","","","","","","","","","ballFalling","604.4000000000001","667.6211431702998","201.78","9","fallScene","false","","","","","22","",""
"","","","","","html-keyboard-response","132","1552961","0.0-16.0-1.21","666f31820e74d2b2fe99a088","6790928bebf0b969fc839b02","6798263b5b803b9954dc3944","passed","","631","","","","","","","","","","","","","","f","yesOrNo","","","","9","","","gt","1000","","","22","667.6211431702998","201.78"
"","","","","","html-keyboard-response","133","1554755","0.0-16.0-0.22","666f31820e74d2b2fe99a088","6790928bebf0b969fc839b02","6798263b5b803b9954dc3944","passed","","","","","","","","","","","","","","","","","ballFalling","322.3","308.07114317029976","253.89","2","fallScene","false","","","","","23","",""
"","","","","","html-keyboard-response","134","1555762","0.0-16.0-1.22","666f31820e74d2b2fe99a088","6790928bebf0b969fc839b02","6798263b5b803b9954dc3944","passed","","401","","","","","","","","","","","","","","j","yesOrNo","","","","2","","","gt","1000","","","23","308.07114317029976","253.89"
"","","","","","html-keyboard-response","135","1557322","0.0-16.0-0.23","666f31820e74d2b2fe99a088","6790928bebf0b969fc839b02","6798263b5b803b9954dc3944","passed","","","","","","","","","","","","","","","","","ballFalling","500","453.67114317029973","210.33","5","fallScene","false","","","","","24","",""
"","","","","","html-keyboard-response","136","1558327","0.0-16.0-1.23","666f31820e74d2b2fe99a088","6790928bebf0b969fc839b02","6798263b5b803b9954dc3944","passed","","527","","","","","","","","","","","","","","f","yesOrNo","","","","5","","","gt","1000","","","24","453.6711431702998","210.33"
"","","","","","html-keyboard-response","137","1596916","0.0-17.0","666f31820e74d2b2fe99a088","6790928bebf0b969fc839b02","6798263b5b803b9954dc3944","passed","","38588","","","","","","","","","","","","","<p><span style=""font-size:40px;"">BLOCK 2</span></p><p><span style=""font-size:25px;"">You have <b style=""color: #FF644F;""><strong>3 second(s)</strong></b> to respond to the following trials.</span><br></p><p></p> <!-- Blank line -->
                <p id=""blinking-text"" style=""font-weight; animation: blink 2s infinite;"">Press Space to continue</p>
                <style>
                    @keyframes blink {
                        50% {
                            opacity: 0;
                        }
                    }
                </style></p>"," ","","","","","","","","","","","","","",""
"","","","","","html-keyboard-response","138","1598467","0.0-18.0-0.0","666f31820e74d2b2fe99a088","6790928bebf0b969fc839b02","6798263b5b803b9954dc3944","passed","","","","","","","","","","","","","","","","","ballFalling","322.3","296.07114317029976","371.46","3","fallScene","true","","","","","25","",""
"","","","","","html-keyboard-response","139","1601472","0.0-18.0-1.0","666f31820e74d2b2fe99a088","6790928bebf0b969fc839b02","6798263b5b803b9954dc3944","passed","","1039","","","","","","","","","","","","","","j","yesOrNo","","","","3","","","lp","3000","","","25","321.3","287.3327096511259"
"","","","","","html-keyboard-response","140","1603033","0.0-18.0-0.1","666f31820e74d2b2fe99a088","6790928bebf0b969fc839b02","6798263b5b803b9954dc3944","passed","","","","","","","","","","","","","","","","","ballFalling","500","453.67114317029973","210.33","5","fallScene","true","","","","","26","",""
"","","","","","html-keyboard-response","141","1606038","0.0-18.0-1.1","666f31820e74d2b2fe99a088","6790928bebf0b969fc839b02","6798263b5b803b9954dc3944","passed","","718","","","","","","","","","","","","","","f","yesOrNo","","","","5","","","gt","3000","","","26","453.6711431702998","210.33"
"","","","","","html-keyboard-response","142","1607600","0.0-18.0-0.2","666f31820e74d2b2fe99a088","6790928bebf0b969fc839b02","6798263b5b803b9954dc3944","passed","","","","","","","","","","","","","","","","","ballFalling","322.3","296.07114317029976","371.46","3","fallScene","false","","","","","27","",""
"","","","","","html-keyboard-response","143","1610606","0.0-18.0-1.2","666f31820e74d2b2fe99a088","6790928bebf0b969fc839b02","6798263b5b803b9954dc3944","passed","","549","","","","","","","","","","","","","","f","yesOrNo","","","","3","","","gt","3000","","","27","296.07114317029976","371.46"
"","","","","","html-keyboard-response","144","1612266","0.0-18.0-0.3","666f31820e74d2b2fe99a088","6790928bebf0b969fc839b02","6798263b5b803b9954dc3944","passed","","","","","","","","","","","","","","","","","ballFalling","500","479.92114317029973","330.87","6","fallScene","true","","","","","28","",""
"","","","","","html-keyboard-response","145","1615272","0.0-18.0-1.3","666f31820e74d2b2fe99a088","6790928bebf0b969fc839b02","6798263b5b803b9954dc3944","passed","","1352","","","","","","","","","","","","","","f","yesOrNo","","","","6","","","gt","3000","","","28","479.9211431702998","330.87"
"","","","","","html-keyboard-response","146","1616832","0.0-18.0-0.4","666f31820e74d2b2fe99a088","6790928bebf0b969fc839b02","6798263b5b803b9954dc3944","passed","","","","","","","","","","","","","","","","","ballFalling","604.4000000000001","650.0211431702996","404.58000000000004","11","fallScene","false","","","","","29","",""
"","","","","","html-keyboard-response","147","1619838","0.0-18.0-1.4","666f31820e74d2b2fe99a088","6790928bebf0b969fc839b02","6798263b5b803b9954dc3944","passed","","858","","","","","","","","","","","","","","f","yesOrNo","","","","11","","","mid","3000","","","29","605.4000000000001","300"
"","","","","","html-keyboard-response","148","1621332","0.0-18.0-0.5","666f31820e74d2b2fe99a088","6790928bebf0b969fc839b02","6798263b5b803b9954dc3944","passed","","","","","","","","","","","","","","","","","ballFalling","604.4000000000001","667.6211431702998","201.78","9","fallScene","false","","","","","30","",""
"","","","","","html-keyboard-response","149","1624337","0.0-18.0-1.5","666f31820e74d2b2fe99a088","6790928bebf0b969fc839b02","6798263b5b803b9954dc3944","passed","","749","","","","","","","","","","","","","","f","yesOrNo","","","","9","","","gt","3000","","","30","667.6211431702998","201.78"
"","","","","","html-keyboard-response","150","1625916","0.0-18.0-0.6","666f31820e74d2b2fe99a088","6790928bebf0b969fc839b02","6798263b5b803b9954dc3944","passed","","","","","","","","","","","","","","","","","ballFalling","500","553.4711431702997","282.51","7","fallScene","true","","","","","31","",""
"","","","","","html-keyboard-response","151","1628921","0.0-18.0-1.6","666f31820e74d2b2fe99a088","6790928bebf0b969fc839b02","6798263b5b803b9954dc3944","passed","","902","","","","","","","","","","","","","","f","yesOrNo","","","","7","","","lp","3000","","","31","501","227.2843295913261"
"","","","","","html-keyboard-response","152","1630482","0.0-18.0-0.7","666f31820e74d2b2fe99a088","6790928bebf0b969fc839b02","6798263b5b803b9954dc3944","passed","","","","","","","","","","","","","","","","","ballFalling","322.3","379.3711431702997","245.25","1","fallScene","true","","","","","32","",""
"","","","","","html-keyboard-response","153","1633487","0.0-18.0-1.7","666f31820e74d2b2fe99a088","6790928bebf0b969fc839b02","6798263b5b803b9954dc3944","passed","","903","","","","","","","","","","","","","","f","yesOrNo","","","","1","","","lp","3000","","","32","323.3","217.74551669457017"
"","","","","","html-keyboard-response","154","1635147","0.0-18.0-0.8","666f31820e74d2b2fe99a088","6790928bebf0b969fc839b02","6798263b5b803b9954dc3944","passed","","","","","","","","","","","","","","","","","ballFalling","500","479.92114317029973","330.87","6","fallScene","true","","","","","33","",""
"","","","","","html-keyboard-response","155","1638152","0.0-18.0-1.8","666f31820e74d2b2fe99a088","6790928bebf0b969fc839b02","6798263b5b803b9954dc3944","passed","","471","","","","","","","","","","","","","","j","yesOrNo","","","","6","","","mid","3000","","","33","499","300"
"","","","","","html-keyboard-response","156","1639647","0.0-18.0-0.9","666f31820e74d2b2fe99a088","6790928bebf0b969fc839b02","6798263b5b803b9954dc3944","passed","","","","","","","","","","","","","","","","","ballFalling","604.4000000000001","667.6211431702998","201.78","9","fallScene","true","","","","","34","",""
"","","","","","html-keyboard-response","157","1642651","0.0-18.0-1.9","666f31820e74d2b2fe99a088","6790928bebf0b969fc839b02","6798263b5b803b9954dc3944","passed","","606","","","","","","","","","","","","","","f","yesOrNo","","","","9","","","lp","3000","","","34","605.4000000000001","151"
"","","","","","html-keyboard-response","158","1644213","0.0-18.0-0.10","666f31820e74d2b2fe99a088","6790928bebf0b969fc839b02","6798263b5b803b9954dc3944","passed","","","","","","","","","","","","","","","","","ballFalling","322.3","379.3711431702997","245.25","1","fallScene","true","","","","","35","",""
"","","","","","html-keyboard-response","159","1647217","0.0-18.0-1.10","666f31820e74d2b2fe99a088","6790928bebf0b969fc839b02","6798263b5b803b9954dc3944","passed","","1074","","","","","","","","","","","","","","f","yesOrNo","","","","1","","","lp","3000","","","35","323.3","217.74551669457017"
"","","","","","html-keyboard-response","160","1649012","0.0-18.0-0.11","666f31820e74d2b2fe99a088","6790928bebf0b969fc839b02","6798263b5b803b9954dc3944","passed","","","","","","","","","","","","","","","","","ballFalling","322.3","308.07114317029976","253.89","2","fallScene","false","","","","","36","",""
"","","","","","html-keyboard-response","161","1652018","0.0-18.0-1.11","666f31820e74d2b2fe99a088","6790928bebf0b969fc839b02","6798263b5b803b9954dc3944","passed","","1519","","","","","","","","","","","","","","j","yesOrNo","","","","2","","","mid","3000","","","36","321.3","300"
"","","","","","html-keyboard-response","162","1653578","0.0-18.0-0.12","666f31820e74d2b2fe99a088","6790928bebf0b969fc839b02","6798263b5b803b9954dc3944","passed","","","","","","","","","","","","","","","","","ballFalling","322.3","379.3711431702997","245.25","1","fallScene","true","","","","","37","",""
"","","","","","html-keyboard-response","163","1656585","0.0-18.0-1.12","666f31820e74d2b2fe99a088","6790928bebf0b969fc839b02","6798263b5b803b9954dc3944","passed","","1042","","","","","","","","","","","","","","j","yesOrNo","","","","1","","","mid","3000","","","37","390.27114317029975","300"
"","","","","","html-keyboard-response","164","1658161","0.0-18.0-0.13","666f31820e74d2b2fe99a088","6790928bebf0b969fc839b02","6798263b5b803b9954dc3944","passed","","","","","","","","","","","","","","","","","ballFalling","500","553.4711431702997","282.51","7","fallScene","false","","","","","38","",""
"","","","","","html-keyboard-response","165","1661168","0.0-18.0-1.13","666f31820e74d2b2fe99a088","6790928bebf0b969fc839b02","6798263b5b803b9954dc3944","passed","","1114","","","","","","","","","","","","","","f","yesOrNo","","","","7","","","gt","3000","","","38","553.4711431702997","282.51"
"","","","","","html-keyboard-response","166","1662961","0.0-18.0-0.14","666f31820e74d2b2fe99a088","6790928bebf0b969fc839b02","6798263b5b803b9954dc3944","passed","","","","","","","","","","","","","","","","","ballFalling","322.3","308.07114317029976","253.89","2","fallScene","false","","","","","39","",""
"","","","","","html-keyboard-response","167","1665966","0.0-18.0-1.14","666f31820e74d2b2fe99a088","6790928bebf0b969fc839b02","6798263b5b803b9954dc3944","passed","","689","","","","","","","","","","","","","","j","yesOrNo","","","","2","","","gt","3000","","","39","308.07114317029976","253.89"
"","","","","","html-keyboard-response","168","1667527","0.0-18.0-0.15","666f31820e74d2b2fe99a088","6790928bebf0b969fc839b02","6798263b5b803b9954dc3944","passed","","","","","","","","","","","","","","","","","ballFalling","322.3","356.42114317029973","357.87","4","fallScene","true","","","","","40","",""
"","","","","","html-keyboard-response","169","1670532","0.0-18.0-1.15","666f31820e74d2b2fe99a088","6790928bebf0b969fc839b02","6798263b5b803b9954dc3944","passed","","1583","","","","","","","","","","","","","","f","yesOrNo","","","","4","","","mid","3000","","","40","390.27114317029975","300"
"","","","","","html-keyboard-response","170","1672093","0.0-18.0-0.16","666f31820e74d2b2fe99a088","6790928bebf0b969fc839b02","6798263b5b803b9954dc3944","passed","","","","","","","","","","","","","","","","","ballFalling","322.3","356.42114317029973","357.87","4","fallScene","true","","","","","41","",""
"","","","","","html-keyboard-response","171","1675099","0.0-18.0-1.16","666f31820e74d2b2fe99a088","6790928bebf0b969fc839b02","6798263b5b803b9954dc3944","passed","","1008","","","","","","","","","","","","","","f","yesOrNo","","","","4","","","lp","3000","","","41","323.3","297.4070551689986"
"","","","","","html-keyboard-response","172","1676659","0.0-18.0-0.17","666f31820e74d2b2fe99a088","6790928bebf0b969fc839b02","6798263b5b803b9954dc3944","passed","","","","","","","","","","","","","","","","","ballFalling","604.4000000000001","575.4211431702997","266.76","12","fallScene","false","","","","","42","",""
"","","","","","html-keyboard-response","173","1679663","0.0-18.0-1.17","666f31820e74d2b2fe99a088","6790928bebf0b969fc839b02","6798263b5b803b9954dc3944","passed","","620","","","","","","","","","","","","","","f","yesOrNo","","","","12","","","lp","3000","","","42","603.4000000000001","151"
"","","","","","html-keyboard-response","174","1681226","0.0-18.0-0.18","666f31820e74d2b2fe99a088","6790928bebf0b969fc839b02","6798263b5b803b9954dc3944","passed","","","","","","","","","","","","","","","","","ballFalling","604.4000000000001","575.4211431702997","266.76","12","fallScene","true","","","","","43","",""
"","","","","","html-keyboard-response","175","1684232","0.0-18.0-1.18","666f31820e74d2b2fe99a088","6790928bebf0b969fc839b02","6798263b5b803b9954dc3944","passed","","617","","","","","","","","","","","","","","f","yesOrNo","","","","12","","","mid","3000","","","43","536.4288568297004","300"
"","","","","","html-keyboard-response","176","1685792","0.0-18.0-0.19","666f31820e74d2b2fe99a088","6790928bebf0b969fc839b02","6798263b5b803b9954dc3944","passed","","","","","","","","","","","","","","","","","ballFalling","500","453.67114317029973","210.33","5","fallScene","true","","","","","44","",""
"","","","","","html-keyboard-response","177","1688797","0.0-18.0-1.19","666f31820e74d2b2fe99a088","6790928bebf0b969fc839b02","6798263b5b803b9954dc3944","passed","","999","","","","","","","","","","","","","","f","yesOrNo","","","","5","","","lp","3000","","","44","499","151"
"","","","","","html-keyboard-response","178","1690458","0.0-18.0-0.20","666f31820e74d2b2fe99a088","6790928bebf0b969fc839b02","6798263b5b803b9954dc3944","passed","","","","","","","","","","","","","","","","","ballFalling","500","479.92114317029973","330.87","6","fallScene","false","","","","","45","",""
"","","","","","html-keyboard-response","179","1693464","0.0-18.0-1.20","666f31820e74d2b2fe99a088","6790928bebf0b969fc839b02","6798263b5b803b9954dc3944","passed","","725","","","","","","","","","","","","","","j","yesOrNo","","","","6","","","mid","3000","","","45","499","300"
"","","","","","html-keyboard-response","180","1695024","0.0-18.0-0.21","666f31820e74d2b2fe99a088","6790928bebf0b969fc839b02","6798263b5b803b9954dc3944","passed","","","","","","","","","","","","","","","","","ballFalling","604.4000000000001","650.0211431702996","404.58000000000004","11","fallScene","false","","","","","46","",""
"","","","","","html-keyboard-response","181","1698029","0.0-18.0-1.21","666f31820e74d2b2fe99a088","6790928bebf0b969fc839b02","6798263b5b803b9954dc3944","passed","","884","","","","","","","","","","","","","","j","yesOrNo","","","","11","","","gt","3000","","","46","650.0211431702996","404.58"
"","","","","","html-keyboard-response","182","1699593","0.0-18.0-0.22","666f31820e74d2b2fe99a088","6790928bebf0b969fc839b02","6798263b5b803b9954dc3944","passed","","","","","","","","","","","","","","","","","ballFalling","322.3","296.07114317029976","371.46","3","fallScene","true","","","","","47","",""
"","","","","","html-keyboard-response","183","1702597","0.0-18.0-1.22","666f31820e74d2b2fe99a088","6790928bebf0b969fc839b02","6798263b5b803b9954dc3944","passed","","602","","","","","","","","","","","","","","j","yesOrNo","","","","3","","","gt","3000","","","47","296.07114317029976","371.46"
"","","","","","html-keyboard-response","184","1704156","0.0-18.0-0.23","666f31820e74d2b2fe99a088","6790928bebf0b969fc839b02","6798263b5b803b9954dc3944","passed","","","","","","","","","","","","","","","","","ballFalling","322.3","296.07114317029976","371.46","3","fallScene","true","","","","","48","",""
"","","","","","html-keyboard-response","185","1707163","0.0-18.0-1.23","666f31820e74d2b2fe99a088","6790928bebf0b969fc839b02","6798263b5b803b9954dc3944","passed","","492","","","","","","","","","","","","","","j","yesOrNo","","","","3","","","mid","3000","","","48","321.3","300"
"","","","","","html-keyboard-response","186","1780934","0.0-19.0","666f31820e74d2b2fe99a088","6790928bebf0b969fc839b02","6798263b5b803b9954dc3944","passed","","73766","","","","","","","","","","","","","<p><span style=""font-size:40px;"">BLOCK 3</span></p><p><span style=""font-size:25px;"">You have <b style=""color: #FF644F;""><strong>1 second(s)</strong></b> to respond to the following trials.</span><br></p><p></p> <!-- Blank line -->
                <p id=""blinking-text"" style=""font-weight; animation: blink 2s infinite;"">Press Space to continue</p>
                <style>
                    @keyframes blink {
                        50% {
                            opacity: 0;
                        }
                    }
                </style></p>"," ","","","","","","","","","","","","","",""
"","","","","","html-keyboard-response","187","1782498","0.0-20.0-0.0","666f31820e74d2b2fe99a088","6790928bebf0b969fc839b02","6798263b5b803b9954dc3944","passed","","","","","","","","","","","","","","","","","ballFalling","604.4000000000001","650.0211431702996","404.58000000000004","11","fallScene","false","","","","","49","",""
"","","","","","html-keyboard-response","188","1783504","0.0-20.0-1.0","666f31820e74d2b2fe99a088","6790928bebf0b969fc839b02","6798263b5b803b9954dc3944","passed","","690","","","","","","","","","","","","","","j","yesOrNo","","","","11","","","lp","1000","","","49","605.4000000000001","372.6340973215488"
"","","","","","html-keyboard-response","189","1785298","0.0-20.0-0.1","666f31820e74d2b2fe99a088","6790928bebf0b969fc839b02","6798263b5b803b9954dc3944","passed","","","","","","","","","","","","","","","","","ballFalling","322.3","308.07114317029976","253.89","2","fallScene","false","","","","","50","",""
"","","","","","html-keyboard-response","190","1786304","0.0-20.0-1.1","666f31820e74d2b2fe99a088","6790928bebf0b969fc839b02","6798263b5b803b9954dc3944","passed","","735","","","","","","","","","","","","","","j","yesOrNo","","","","2","","","gt","1000","","","50","308.07114317029976","253.89"
"","","","","","html-keyboard-response","191","1788315","0.0-20.0-0.2","666f31820e74d2b2fe99a088","6790928bebf0b969fc839b02","6798263b5b803b9954dc3944","passed","","","","","","","","","","","","","","","","","ballFalling","604.4000000000001","596.8711431702998","394.5","10","fallScene","false","","","","","51","",""
"","","","","","html-keyboard-response","192","1789320","0.0-20.0-1.2","666f31820e74d2b2fe99a088","6790928bebf0b969fc839b02","6798263b5b803b9954dc3944","passed","","865","","","","","","","","","","","","","","f","yesOrNo","","","","10","","","lp","1000","","","51","603.4000000000001","215.50214355555383"
"","","","","","html-keyboard-response","193","1791330","0.0-20.0-0.3","666f31820e74d2b2fe99a088","6790928bebf0b969fc839b02","6798263b5b803b9954dc3944","passed","","","","","","","","","","","","","","","","","ballFalling","604.4000000000001","596.8711431702998","394.5","10","fallScene","false","","","","","52","",""
"","","","","","html-keyboard-response","194","1792335","0.0-20.0-1.3","666f31820e74d2b2fe99a088","6790928bebf0b969fc839b02","6798263b5b803b9954dc3944","passed","","800","","","","","","","","","","","","","","f","yesOrNo","","","","10","","","gt","1000","","","52","596.8711431702998","394.5"
"","","","","","html-keyboard-response","195","1793897","0.0-20.0-0.4","666f31820e74d2b2fe99a088","6790928bebf0b969fc839b02","6798263b5b803b9954dc3944","passed","","","","","","","","","","","","","","","","","ballFalling","322.3","356.42114317029973","357.87","4","fallScene","true","","","","","53","",""
"","","","","","html-keyboard-response","196","1794902","0.0-20.0-1.4","666f31820e74d2b2fe99a088","6790928bebf0b969fc839b02","6798263b5b803b9954dc3944","passed","","784","","","","","","","","","","","","","","f","yesOrNo","","","","4","","","lp","1000","","","53","323.3","297.4070551689986"
"","","","","","html-keyboard-response","197","1796463","0.0-20.0-0.5","666f31820e74d2b2fe99a088","6790928bebf0b969fc839b02","6798263b5b803b9954dc3944","passed","","","","","","","","","","","","","","","","","ballFalling","604.4000000000001","650.0211431702996","404.58000000000004","11","fallScene","true","","","","","54","",""
"","","","","","html-keyboard-response","198","1797469","0.0-20.0-1.5","666f31820e74d2b2fe99a088","6790928bebf0b969fc839b02","6798263b5b803b9954dc3944","passed","","571","","","","","","","","","","","","","","f","yesOrNo","","","","11","","","mid","1000","","","54","605.4000000000001","300"
"","","","","","html-keyboard-response","199","1799479","0.0-20.0-0.6","666f31820e74d2b2fe99a088","6790928bebf0b969fc839b02","6798263b5b803b9954dc3944","passed","","","","","","","","","","","","","","","","","ballFalling","604.4000000000001","596.8711431702998","394.5","10","fallScene","false","","","","","55","",""
"","","","","","html-keyboard-response","200","1800485","0.0-20.0-1.6","666f31820e74d2b2fe99a088","6790928bebf0b969fc839b02","6798263b5b803b9954dc3944","passed","","738","","","","","","","","","","","","","","f","yesOrNo","","","","10","","","gt","1000","","","55","596.8711431702998","394.5"
"","","","","","html-keyboard-response","201","1802062","0.0-20.0-0.7","666f31820e74d2b2fe99a088","6790928bebf0b969fc839b02","6798263b5b803b9954dc3944","passed","","","","","","","","","","","","","","","","","ballFalling","500","553.4711431702997","282.51","7","fallScene","false","","","","","56","",""
"","","","","","html-keyboard-response","202","1803068","0.0-20.0-1.7","666f31820e74d2b2fe99a088","6790928bebf0b969fc839b02","6798263b5b803b9954dc3944","passed","","508","","","","","","","","","","","","","","j","yesOrNo","","","","7","","","gt","1000","","","56","553.4711431702997","282.51"
"","","","","","html-keyboard-response","203","1804629","0.0-20.0-0.8","666f31820e74d2b2fe99a088","6790928bebf0b969fc839b02","6798263b5b803b9954dc3944","passed","","","","","","","","","","","","","","","","","ballFalling","604.4000000000001","650.0211431702996","404.58000000000004","11","fallScene","false","","","","","57","",""
"","","","","","html-keyboard-response","204","1805635","0.0-20.0-1.8","666f31820e74d2b2fe99a088","6790928bebf0b969fc839b02","6798263b5b803b9954dc3944","passed","","727","","","","","","","","","","","","","","f","yesOrNo","","","","11","","","gt","1000","","","57","650.0211431702996","404.58"
"","","","","","html-keyboard-response","205","1807195","0.0-20.0-0.9","666f31820e74d2b2fe99a088","6790928bebf0b969fc839b02","6798263b5b803b9954dc3944","passed","","","","","","","","","","","","","","","","","ballFalling","322.3","379.3711431702997","245.25","1","fallScene","false","","","","","58","",""
"","","","","","html-keyboard-response","206","1808200","0.0-20.0-1.9","666f31820e74d2b2fe99a088","6790928bebf0b969fc839b02","6798263b5b803b9954dc3944","passed","","732","","","","","","","","","","","","","","j","yesOrNo","","","","1","","","lp","1000","","","58","323.3","217.74551669457017"
"","","","","","html-keyboard-response","207","1809762","0.0-20.0-0.10","666f31820e74d2b2fe99a088","6790928bebf0b969fc839b02","6798263b5b803b9954dc3944","passed","","","","","","","","","","","","","","","","","ballFalling","322.3","356.42114317029973","357.87","4","fallScene","false","","","","","59","",""
"","","","","","html-keyboard-response","208","1810768","0.0-20.0-1.10","666f31820e74d2b2fe99a088","6790928bebf0b969fc839b02","6798263b5b803b9954dc3944","passed","","598","","","","","","","","","","","","","","j","yesOrNo","","","","4","","","lp","1000","","","59","323.3","297.4070551689986"
"","","","","","html-keyboard-response","209","1812345","0.0-20.0-0.11","666f31820e74d2b2fe99a088","6790928bebf0b969fc839b02","6798263b5b803b9954dc3944","passed","","","","","","","","","","","","","","","","","ballFalling","500","553.4711431702997","282.51","7","fallScene","false","","","","","60","",""
"","","","","","html-keyboard-response","210","1813351","0.0-20.0-1.11","666f31820e74d2b2fe99a088","6790928bebf0b969fc839b02","6798263b5b803b9954dc3944","passed","","null","","","","","","","","","","","","","","null","yesOrNo","","","","7","","","lp","1000","","","60","501","227.2843295913261"
"","","","","","html-keyboard-response","211","1815361","0.0-20.0-0.12","666f31820e74d2b2fe99a088","6790928bebf0b969fc839b02","6798263b5b803b9954dc3944","passed","","","","","","","","","","","","","","","","","ballFalling","500","510.8711431702997","369.03","8","fallScene","false","","","","","61","",""
"","","","","","html-keyboard-response","212","1816367","0.0-20.0-1.12","666f31820e74d2b2fe99a088","6790928bebf0b969fc839b02","6798263b5b803b9954dc3944","passed","","697","","","","","","","","","","","","","","j","yesOrNo","","","","8","","","mid","1000","","","61","501","300"
"","","","","","html-keyboard-response","213","1817928","0.0-20.0-0.13","666f31820e74d2b2fe99a088","6790928bebf0b969fc839b02","6798263b5b803b9954dc3944","passed","","","","","","","","","","","","","","","","","ballFalling","604.4000000000001","575.4211431702997","266.76","12","fallScene","true","","","","","62","",""
"","","","","","html-keyboard-response","214","1818934","0.0-20.0-1.13","666f31820e74d2b2fe99a088","6790928bebf0b969fc839b02","6798263b5b803b9954dc3944","passed","","704","","","","","","","","","","","","","","j","yesOrNo","","","","12","","","gt","1000","","","62","575.4211431702997","266.76"
"","","","","","html-keyboard-response","215","1820594","0.0-20.0-0.14","666f31820e74d2b2fe99a088","6790928bebf0b969fc839b02","6798263b5b803b9954dc3944","passed","","","","","","","","","","","","","","","","","ballFalling","500","479.92114317029973","330.87","6","fallScene","true","","","","","63","",""
"","","","","","html-keyboard-response","216","1821600","0.0-20.0-1.14","666f31820e74d2b2fe99a088","6790928bebf0b969fc839b02","6798263b5b803b9954dc3944","passed","","665","","","","","","","","","","","","","","f","yesOrNo","","","","6","","","lp","1000","","","63","499","189.92909825697632"
"","","","","","html-keyboard-response","217","1823193","0.0-20.0-0.15","666f31820e74d2b2fe99a088","6790928bebf0b969fc839b02","6798263b5b803b9954dc3944","passed","","","","","","","","","","","","","","","","","ballFalling","500","553.4711431702997","282.51","7","fallScene","false","","","","","64","",""
"","","","","","html-keyboard-response","218","1824198","0.0-20.0-1.15","666f31820e74d2b2fe99a088","6790928bebf0b969fc839b02","6798263b5b803b9954dc3944","passed","","738","","","","","","","","","","","","","","j","yesOrNo","","","","7","","","mid","1000","","","64","501","300"
"","","","","","html-keyboard-response","219","1825850","0.0-20.0-0.16","666f31820e74d2b2fe99a088","6790928bebf0b969fc839b02","6798263b5b803b9954dc3944","passed","","","","","","","","","","","","","","","","","ballFalling","500","479.92114317029973","330.87","6","fallScene","true","","","","","65","",""
"","","","","","html-keyboard-response","220","1826854","0.0-20.0-1.16","666f31820e74d2b2fe99a088","6790928bebf0b969fc839b02","6798263b5b803b9954dc3944","passed","","547","","","","","","","","","","","","","","j","yesOrNo","","","","6","","","gt","1000","","","65","479.9211431702998","330.87"
"","","","","","html-keyboard-response","221","1828414","0.0-20.0-0.17","666f31820e74d2b2fe99a088","6790928bebf0b969fc839b02","6798263b5b803b9954dc3944","passed","","","","","","","","","","","","","","","","","ballFalling","604.4000000000001","575.4211431702997","266.76","12","fallScene","false","","","","","66","",""
"","","","","","html-keyboard-response","222","1829419","0.0-20.0-1.17","666f31820e74d2b2fe99a088","6790928bebf0b969fc839b02","6798263b5b803b9954dc3944","passed","","618","","","","","","","","","","","","","","f","yesOrNo","","","","12","","","lp","1000","","","66","603.4000000000001","151"
"","","","","","html-keyboard-response","223","1830976","0.0-20.0-0.18","666f31820e74d2b2fe99a088","6790928bebf0b969fc839b02","6798263b5b803b9954dc3944","passed","","","","","","","","","","","","","","","","","ballFalling","604.4000000000001","575.4211431702997","266.76","12","fallScene","false","","","","","67","",""
"","","","","","html-keyboard-response","224","1831980","0.0-20.0-1.18","666f31820e74d2b2fe99a088","6790928bebf0b969fc839b02","6798263b5b803b9954dc3944","passed","","633","","","","","","","","","","","","","","f","yesOrNo","","","","12","","","mid","1000","","","67","536.4288568297004","300"
"","","","","","html-keyboard-response","225","1833777","0.0-20.0-0.19","666f31820e74d2b2fe99a088","6790928bebf0b969fc839b02","6798263b5b803b9954dc3944","passed","","","","","","","","","","","","","","","","","ballFalling","322.3","308.07114317029976","253.89","2","fallScene","true","","","","","68","",""
"","","","","","html-keyboard-response","226","1834782","0.0-20.0-1.19","666f31820e74d2b2fe99a088","6790928bebf0b969fc839b02","6798263b5b803b9954dc3944","passed","","517","","","","","","","","","","","","","","j","yesOrNo","","","","2","","","mid","1000","","","68","321.3","300"
"","","","","","html-keyboard-response","227","1836576","0.0-20.0-0.20","666f31820e74d2b2fe99a088","6790928bebf0b969fc839b02","6798263b5b803b9954dc3944","passed","","","","","","","","","","","","","","","","","ballFalling","322.3","308.07114317029976","253.89","2","fallScene","false","","","","","69","",""
"","","","","","html-keyboard-response","228","1837581","0.0-20.0-1.20","666f31820e74d2b2fe99a088","6790928bebf0b969fc839b02","6798263b5b803b9954dc3944","passed","","983","","","","","","","","","","","","","","j","yesOrNo","","","","2","","","lp","1000","","","69","321.3","151"
"","","","","","html-keyboard-response","229","1839125","0.0-20.0-0.21","666f31820e74d2b2fe99a088","6790928bebf0b969fc839b02","6798263b5b803b9954dc3944","passed","","","","","","","","","","","","","","","","","ballFalling","322.3","356.42114317029973","357.87","4","fallScene","true","","","","","70","",""
"","","","","","html-keyboard-response","230","1840131","0.0-20.0-1.21","666f31820e74d2b2fe99a088","6790928bebf0b969fc839b02","6798263b5b803b9954dc3944","passed","","null","","","","","","","","","","","","","","null","yesOrNo","","","","4","","","mid","1000","","","70","390.27114317029975","300"
"","","","","","html-keyboard-response","231","1841792","0.0-20.0-0.22","666f31820e74d2b2fe99a088","6790928bebf0b969fc839b02","6798263b5b803b9954dc3944","passed","","","","","","","","","","","","","","","","","ballFalling","500","479.92114317029973","330.87","6","fallScene","true","","","","","71","",""
"","","","","","html-keyboard-response","232","1842796","0.0-20.0-1.22","666f31820e74d2b2fe99a088","6790928bebf0b969fc839b02","6798263b5b803b9954dc3944","passed","","507","","","","","","","","","","","","","","f","yesOrNo","","","","6","","","gt","1000","","","71","479.9211431702998","330.87"
"","","","","","html-keyboard-response","233","1844358","0.0-20.0-0.23","666f31820e74d2b2fe99a088","6790928bebf0b969fc839b02","6798263b5b803b9954dc3944","passed","","","","","","","","","","","","","","","","","ballFalling","322.3","379.3711431702997","245.25","1","fallScene","false","","","","","72","",""
"","","","","","html-keyboard-response","234","1845364","0.0-20.0-1.23","666f31820e74d2b2fe99a088","6790928bebf0b969fc839b02","6798263b5b803b9954dc3944","passed","","629","","","","","","","","","","","","","","j","yesOrNo","","","","1","","","gt","1000","","","72","379.3711431702997","245.25"
"","","","","","html-keyboard-response","235","1861853","0.0-21.0","666f31820e74d2b2fe99a088","6790928bebf0b969fc839b02","6798263b5b803b9954dc3944","passed","","16488","","","","","","","","","","","","","<p><span style=""font-size:40px;"">BLOCK 4</span></p><p><span style=""font-size:25px;"">You have <b style=""color: #FF644F;""><strong>3 second(s)</strong></b> to respond to the following trials.</span><br></p><p></p> <!-- Blank line -->
                <p id=""blinking-text"" style=""font-weight; animation: blink 2s infinite;"">Press Space to continue</p>
                <style>
                    @keyframes blink {
                        50% {
                            opacity: 0;
                        }
                    }
                </style></p>"," ","","","","","","","","","","","","","",""
"","","","","","html-keyboard-response","236","1863407","0.0-22.0-0.0","666f31820e74d2b2fe99a088","6790928bebf0b969fc839b02","6798263b5b803b9954dc3944","passed","","","","","","","","","","","","","","","","","ballFalling","604.4000000000001","575.4211431702997","266.76","12","fallScene","true","","","","","73","",""
"","","","","","html-keyboard-response","237","1866412","0.0-22.0-1.0","666f31820e74d2b2fe99a088","6790928bebf0b969fc839b02","6798263b5b803b9954dc3944","passed","","523","","","","","","","","","","","","","","f","yesOrNo","","","","12","","","lp","3000","","","73","603.4000000000001","151"
"","","","","","html-keyboard-response","238","1867972","0.0-22.0-0.1","666f31820e74d2b2fe99a088","6790928bebf0b969fc839b02","6798263b5b803b9954dc3944","passed","","","","","","","","","","","","","","","","","ballFalling","500","453.67114317029973","210.33","5","fallScene","false","","","","","74","",""
"","","","","","html-keyboard-response","239","1870977","0.0-22.0-1.1","666f31820e74d2b2fe99a088","6790928bebf0b969fc839b02","6798263b5b803b9954dc3944","passed","","null","","","","","","","","","","","","","","null","yesOrNo","","","","5","","","gt","3000","","","74","453.6711431702998","210.33"
"","","","","","html-keyboard-response","240","1873704","0.0-22.0-0.2","666f31820e74d2b2fe99a088","6790928bebf0b969fc839b02","6798263b5b803b9954dc3944","passed","","","","","","","","","","","","","","","","","ballFalling","604.4000000000001","667.6211431702998","201.78","9","fallScene","false","","","","","75","",""
"","","","","","html-keyboard-response","241","1876708","0.0-22.0-1.2","666f31820e74d2b2fe99a088","6790928bebf0b969fc839b02","6798263b5b803b9954dc3944","passed","","null","","","","","","","","","","","","","","null","yesOrNo","","","","9","","","mid","3000","","","75","605.4000000000001","300"
"","","","","","html-keyboard-response","242","1878705","0.0-22.0-0.3","666f31820e74d2b2fe99a088","6790928bebf0b969fc839b02","6798263b5b803b9954dc3944","passed","","","","","","","","","","","","","","","","","ballFalling","604.4000000000001","596.8711431702998","394.5","10","fallScene","true","","","","","76","",""
"","","","","","html-keyboard-response","243","1881709","0.0-22.0-1.3","666f31820e74d2b2fe99a088","6790928bebf0b969fc839b02","6798263b5b803b9954dc3944","passed","","2762","","","","","","","","","","","","","","f","yesOrNo","","","","10","","","gt","3000","","","76","596.8711431702998","394.5"
"","","","","","html-keyboard-response","244","1883271","0.0-22.0-0.4","666f31820e74d2b2fe99a088","6790928bebf0b969fc839b02","6798263b5b803b9954dc3944","passed","","","","","","","","","","","","","","","","","ballFalling","322.3","379.3711431702997","245.25","1","fallScene","true","","","","","77","",""
"","","","","","html-keyboard-response","245","1886277","0.0-22.0-1.4","666f31820e74d2b2fe99a088","6790928bebf0b969fc839b02","6798263b5b803b9954dc3944","passed","","518","","","","","","","","","","","","","","j","yesOrNo","","","","1","","","gt","3000","","","77","379.3711431702997","245.25"
"","","","","","html-keyboard-response","246","1887839","0.0-22.0-0.5","666f31820e74d2b2fe99a088","6790928bebf0b969fc839b02","6798263b5b803b9954dc3944","passed","","","","","","","","","","","","","","","","","ballFalling","604.4000000000001","650.0211431702996","404.58000000000004","11","fallScene","false","","","","","78","",""
"","","","","","html-keyboard-response","247","1890843","0.0-22.0-1.5","666f31820e74d2b2fe99a088","6790928bebf0b969fc839b02","6798263b5b803b9954dc3944","passed","","688","","","","","","","","","","","","","","f","yesOrNo","","","","11","","","lp","3000","","","78","605.4000000000001","372.6340973215488"
"","","","","","html-keyboard-response","248","1892853","0.0-22.0-0.6","666f31820e74d2b2fe99a088","6790928bebf0b969fc839b02","6798263b5b803b9954dc3944","passed","","","","","","","","","","","","","","","","","ballFalling","500","510.8711431702997","369.03","8","fallScene","true","","","","","79","",""
"","","","","","html-keyboard-response","249","1895858","0.0-22.0-1.6","666f31820e74d2b2fe99a088","6790928bebf0b969fc839b02","6798263b5b803b9954dc3944","passed","","1056","","","","","","","","","","","","","","f","yesOrNo","","","","8","","","lp","3000","","","79","501","151"
"","","","","","html-keyboard-response","250","1897520","0.0-22.0-0.7","666f31820e74d2b2fe99a088","6790928bebf0b969fc839b02","6798263b5b803b9954dc3944","passed","","","","","","","","","","","","","","","","","ballFalling","500","479.92114317029973","330.87","6","fallScene","false","","","","","80","",""
"","","","","","html-keyboard-response","251","1900524","0.0-22.0-1.7","666f31820e74d2b2fe99a088","6790928bebf0b969fc839b02","6798263b5b803b9954dc3944","passed","","700","","","","","","","","","","","","","","j","yesOrNo","","","","6","","","gt","3000","","","80","479.9211431702998","330.87"
"","","","","","html-keyboard-response","252","1902536","0.0-22.0-0.8","666f31820e74d2b2fe99a088","6790928bebf0b969fc839b02","6798263b5b803b9954dc3944","passed","","","","","","","","","","","","","","","","","ballFalling","500","510.8711431702997","369.03","8","fallScene","true","","","","","81","",""
"","","","","","html-keyboard-response","253","1905541","0.0-22.0-1.8","666f31820e74d2b2fe99a088","6790928bebf0b969fc839b02","6798263b5b803b9954dc3944","passed","","765","","","","","","","","","","","","","","j","yesOrNo","","","","8","","","mid","3000","","","81","501","300"
"","","","","","html-keyboard-response","254","1907103","0.0-22.0-0.9","666f31820e74d2b2fe99a088","6790928bebf0b969fc839b02","6798263b5b803b9954dc3944","passed","","","","","","","","","","","","","","","","","ballFalling","322.3","379.3711431702997","245.25","1","fallScene","true","","","","","82","",""
"","","","","","html-keyboard-response","255","1910107","0.0-22.0-1.9","666f31820e74d2b2fe99a088","6790928bebf0b969fc839b02","6798263b5b803b9954dc3944","passed","","584","","","","","","","","","","","","","","f","yesOrNo","","","","1","","","mid","3000","","","82","390.27114317029975","300"
"","","","","","html-keyboard-response","256","1911667","0.0-22.0-0.10","666f31820e74d2b2fe99a088","6790928bebf0b969fc839b02","6798263b5b803b9954dc3944","passed","","","","","","","","","","","","","","","","","ballFalling","500","453.67114317029973","210.33","5","fallScene","false","","","","","83","",""
"","","","","","html-keyboard-response","257","1914672","0.0-22.0-1.10","666f31820e74d2b2fe99a088","6790928bebf0b969fc839b02","6798263b5b803b9954dc3944","passed","","1161","","","","","","","","","","","","","","f","yesOrNo","","","","5","","","lp","3000","","","83","499","151"
"","","","","","html-keyboard-response","258","1916251","0.0-22.0-0.11","666f31820e74d2b2fe99a088","6790928bebf0b969fc839b02","6798263b5b803b9954dc3944","passed","","","","","","","","","","","","","","","","","ballFalling","500","553.4711431702997","282.51","7","fallScene","false","","","","","84","",""
"","","","","","html-keyboard-response","259","1919256","0.0-22.0-1.11","666f31820e74d2b2fe99a088","6790928bebf0b969fc839b02","6798263b5b803b9954dc3944","passed","","1104","","","","","","","","","","","","","","j","yesOrNo","","","","7","","","mid","3000","","","84","501","300"
"","","","","","html-keyboard-response","260","1921267","0.0-22.0-0.12","666f31820e74d2b2fe99a088","6790928bebf0b969fc839b02","6798263b5b803b9954dc3944","passed","","","","","","","","","","","","","","","","","ballFalling","604.4000000000001","596.8711431702998","394.5","10","fallScene","false","","","","","85","",""
"","","","","","html-keyboard-response","261","1924271","0.0-22.0-1.12","666f31820e74d2b2fe99a088","6790928bebf0b969fc839b02","6798263b5b803b9954dc3944","passed","","529","","","","","","","","","","","","","","f","yesOrNo","","","","10","","","mid","3000","","","85","536.4288568297004","300"
"","","","","","html-keyboard-response","262","1925833","0.0-22.0-0.13","666f31820e74d2b2fe99a088","6790928bebf0b969fc839b02","6798263b5b803b9954dc3944","passed","","","","","","","","","","","","","","","","","ballFalling","322.3","356.42114317029973","357.87","4","fallScene","false","","","","","86","",""
"","","","","","html-keyboard-response","263","1928839","0.0-22.0-1.13","666f31820e74d2b2fe99a088","6790928bebf0b969fc839b02","6798263b5b803b9954dc3944","passed","","1083","","","","","","","","","","","","","","f","yesOrNo","","","","4","","","gt","3000","","","86","356.42114317029973","357.87"
"","","","","","html-keyboard-response","264","1930385","0.0-22.0-0.14","666f31820e74d2b2fe99a088","6790928bebf0b969fc839b02","6798263b5b803b9954dc3944","passed","","","","","","","","","","","","","","","","","ballFalling","500","453.67114317029973","210.33","5","fallScene","true","","","","","87","",""
"","","","","","html-keyboard-response","265","1933390","0.0-22.0-1.14","666f31820e74d2b2fe99a088","6790928bebf0b969fc839b02","6798263b5b803b9954dc3944","passed","","1015","","","","","","","","","","","","","","j","yesOrNo","","","","5","","","mid","3000","","","87","499","300"
"","","","","","html-keyboard-response","266","1934951","0.0-22.0-0.15","666f31820e74d2b2fe99a088","6790928bebf0b969fc839b02","6798263b5b803b9954dc3944","passed","","","","","","","","","","","","","","","","","ballFalling","322.3","296.07114317029976","371.46","3","fallScene","true","","","","","88","",""
"","","","","","html-keyboard-response","267","1937954","0.0-22.0-1.15","666f31820e74d2b2fe99a088","6790928bebf0b969fc839b02","6798263b5b803b9954dc3944","passed","","2186","","","","","","","","","","","","","","j","yesOrNo","","","","3","","","mid","3000","","","88","321.3","300"
"","","","","","html-keyboard-response","268","1939515","0.0-22.0-0.16","666f31820e74d2b2fe99a088","6790928bebf0b969fc839b02","6798263b5b803b9954dc3944","passed","","","","","","","","","","","","","","","","","ballFalling","500","453.67114317029973","210.33","5","fallScene","false","","","","","89","",""
"","","","","","html-keyboard-response","269","1942519","0.0-22.0-1.16","666f31820e74d2b2fe99a088","6790928bebf0b969fc839b02","6798263b5b803b9954dc3944","passed","","791","","","","","","","","","","","","","","j","yesOrNo","","","","5","","","mid","3000","","","89","499","300"
"","","","","","html-keyboard-response","270","1944099","0.0-22.0-0.17","666f31820e74d2b2fe99a088","6790928bebf0b969fc839b02","6798263b5b803b9954dc3944","passed","","","","","","","","","","","","","","","","","ballFalling","500","553.4711431702997","282.51","7","fallScene","true","","","","","90","",""
"","","","","","html-keyboard-response","271","1947106","0.0-22.0-1.17","666f31820e74d2b2fe99a088","6790928bebf0b969fc839b02","6798263b5b803b9954dc3944","passed","","571","","","","","","","","","","","","","","j","yesOrNo","","","","7","","","gt","3000","","","90","553.4711431702997","282.51"
"","","","","","html-keyboard-response","272","1948897","0.0-22.0-0.18","666f31820e74d2b2fe99a088","6790928bebf0b969fc839b02","6798263b5b803b9954dc3944","passed","","","","","","","","","","","","","","","","","ballFalling","322.3","308.07114317029976","253.89","2","fallScene","false","","","","","91","",""
"","","","","","html-keyboard-response","273","1951902","0.0-22.0-1.18","666f31820e74d2b2fe99a088","6790928bebf0b969fc839b02","6798263b5b803b9954dc3944","passed","","1214","","","","","","","","","","","","","","f","yesOrNo","","","","2","","","lp","3000","","","91","321.3","151"
"","","","","","html-keyboard-response","274","1953463","0.0-22.0-0.19","666f31820e74d2b2fe99a088","6790928bebf0b969fc839b02","6798263b5b803b9954dc3944","passed","","","","","","","","","","","","","","","","","ballFalling","604.4000000000001","575.4211431702997","266.76","12","fallScene","true","","","","","92","",""
"","","","","","html-keyboard-response","275","1956468","0.0-22.0-1.19","666f31820e74d2b2fe99a088","6790928bebf0b969fc839b02","6798263b5b803b9954dc3944","passed","","1352","","","","","","","","","","","","","","j","yesOrNo","","","","12","","","gt","3000","","","92","575.4211431702997","266.76"
"","","","","","html-keyboard-response","276","1957963","0.0-22.0-0.20","666f31820e74d2b2fe99a088","6790928bebf0b969fc839b02","6798263b5b803b9954dc3944","passed","","","","","","","","","","","","","","","","","ballFalling","604.4000000000001","667.6211431702998","201.78","9","fallScene","true","","","","","93","",""
"","","","","","html-keyboard-response","277","1960968","0.0-22.0-1.20","666f31820e74d2b2fe99a088","6790928bebf0b969fc839b02","6798263b5b803b9954dc3944","passed","","798","","","","","","","","","","","","","","f","yesOrNo","","","","9","","","lp","3000","","","93","605.4000000000001","151"
"","","","","","html-keyboard-response","278","1962529","0.0-22.0-0.21","666f31820e74d2b2fe99a088","6790928bebf0b969fc839b02","6798263b5b803b9954dc3944","passed","","","","","","","","","","","","","","","","","ballFalling","604.4000000000001","650.0211431702996","404.58000000000004","11","fallScene","true","","","","","94","",""
"","","","","","html-keyboard-response","279","1965534","0.0-22.0-1.21","666f31820e74d2b2fe99a088","6790928bebf0b969fc839b02","6798263b5b803b9954dc3944","passed","","803","","","","","","","","","","","","","","f","yesOrNo","","","","11","","","mid","3000","","","94","605.4000000000001","300"
"","","","","","html-keyboard-response","280","1967096","0.0-22.0-0.22","666f31820e74d2b2fe99a088","6790928bebf0b969fc839b02","6798263b5b803b9954dc3944","passed","","","","","","","","","","","","","","","","","ballFalling","604.4000000000001","650.0211431702996","404.58000000000004","11","fallScene","true","","","","","95","",""
"","","","","","html-keyboard-response","281","1970101","0.0-22.0-1.22","666f31820e74d2b2fe99a088","6790928bebf0b969fc839b02","6798263b5b803b9954dc3944","passed","","980","","","","","","","","","","","","","","j","yesOrNo","","","","11","","","gt","3000","","","95","650.0211431702996","404.58"
"","","","","","html-keyboard-response","282","1971663","0.0-22.0-0.23","666f31820e74d2b2fe99a088","6790928bebf0b969fc839b02","6798263b5b803b9954dc3944","passed","","","","","","","","","","","","","","","","","ballFalling","604.4000000000001","650.0211431702996","404.58000000000004","11","fallScene","true","","","","","96","",""
"","","","","","html-keyboard-response","283","1974669","0.0-22.0-1.23","666f31820e74d2b2fe99a088","6790928bebf0b969fc839b02","6798263b5b803b9954dc3944","passed","","647","","","","","","","","","","","","","","j","yesOrNo","","","","11","","","lp","3000","","","96","605.4000000000001","372.6340973215488"
"","","","","","html-keyboard-response","284","2040545","0.0-23.0","666f31820e74d2b2fe99a088","6790928bebf0b969fc839b02","6798263b5b803b9954dc3944","passed","","65874","","","","","","","","","","","","","<p><span style=""font-size:40px;"">BLOCK 5</span></p><p><span style=""font-size:25px;"">You have <b style=""color: #FF644F;""><strong>1 second(s)</strong></b> to respond to the following trials.</span><br></p><p></p> <!-- Blank line -->
                <p id=""blinking-text"" style=""font-weight; animation: blink 2s infinite;"">Press Space to continue</p>
                <style>
                    @keyframes blink {
                        50% {
                            opacity: 0;
                        }
                    }
                </style></p>"," ","","","","","","","","","","","","","",""
"","","","","","html-keyboard-response","285","2042339","0.0-24.0-0.0","666f31820e74d2b2fe99a088","6790928bebf0b969fc839b02","6798263b5b803b9954dc3944","passed","","","","","","","","","","","","","","","","","ballFalling","322.3","308.07114317029976","253.89","2","fallScene","true","","","","","97","",""
"","","","","","html-keyboard-response","286","2043343","0.0-24.0-1.0","666f31820e74d2b2fe99a088","6790928bebf0b969fc839b02","6798263b5b803b9954dc3944","passed","","823","","","","","","","","","","","","","","f","yesOrNo","","","","2","","","lp","1000","","","97","321.3","151"
"","","","","","html-keyboard-response","287","2044904","0.0-24.0-0.1","666f31820e74d2b2fe99a088","6790928bebf0b969fc839b02","6798263b5b803b9954dc3944","passed","","","","","","","","","","","","","","","","","ballFalling","604.4000000000001","650.0211431702996","404.58000000000004","11","fallScene","false","","","","","98","",""
"","","","","","html-keyboard-response","288","2045908","0.0-24.0-1.1","666f31820e74d2b2fe99a088","6790928bebf0b969fc839b02","6798263b5b803b9954dc3944","passed","","599","","","","","","","","","","","","","","f","yesOrNo","","","","11","","","gt","1000","","","98","650.0211431702996","404.58"
"","","","","","html-keyboard-response","289","2047569","0.0-24.0-0.2","666f31820e74d2b2fe99a088","6790928bebf0b969fc839b02","6798263b5b803b9954dc3944","passed","","","","","","","","","","","","","","","","","ballFalling","500","479.92114317029973","330.87","6","fallScene","true","","","","","99","",""
"","","","","","html-keyboard-response","290","2048577","0.0-24.0-1.2","666f31820e74d2b2fe99a088","6790928bebf0b969fc839b02","6798263b5b803b9954dc3944","passed","","390","","","","","","","","","","","","","","j","yesOrNo","","","","6","","","lp","1000","","","99","499","189.92909825697632"
"","","","","","html-keyboard-response","291","2050136","0.0-24.0-0.3","666f31820e74d2b2fe99a088","6790928bebf0b969fc839b02","6798263b5b803b9954dc3944","passed","","","","","","","","","","","","","","","","","ballFalling","604.4000000000001","575.4211431702997","266.76","12","fallScene","true","","","","","100","",""
"","","","","","html-keyboard-response","292","2051142","0.0-24.0-1.3","666f31820e74d2b2fe99a088","6790928bebf0b969fc839b02","6798263b5b803b9954dc3944","passed","","650","","","","","","","","","","","","","","f","yesOrNo","","","","12","","","lp","1000","","","100","603.4000000000001","151"
"","","","","","html-keyboard-response","293","2052703","0.0-24.0-0.4","666f31820e74d2b2fe99a088","6790928bebf0b969fc839b02","6798263b5b803b9954dc3944","passed","","","","","","","","","","","","","","","","","ballFalling","322.3","296.07114317029976","371.46","3","fallScene","false","","","","","101","",""
"","","","","","html-keyboard-response","294","2053708","0.0-24.0-1.4","666f31820e74d2b2fe99a088","6790928bebf0b969fc839b02","6798263b5b803b9954dc3944","passed","","575","","","","","","","","","","","","","","j","yesOrNo","","","","3","","","lp","1000","","","101","321.3","287.3327096511259"
"","","","","","html-keyboard-response","295","2055719","0.0-24.0-0.5","666f31820e74d2b2fe99a088","6790928bebf0b969fc839b02","6798263b5b803b9954dc3944","passed","","","","","","","","","","","","","","","","","ballFalling","500","510.8711431702997","369.03","8","fallScene","true","","","","","102","",""
