"success","timeout","failed_images","failed_audio","failed_video","trial_type","trial_index","time_elapsed","internal_node_id","subject_id","study_id","session_id","practiceTestResult","view_history","rt","width","height","webaudio","browser","browser_version","mobile","os","fullscreen","vsync_rate","webcam","microphone","url","stimulus","response","task","ball_X","obstacle_groundTruth_x","obstacle_groundTruth_y","stimulus_idx","trial_name","flipped","choice","timeLimit","question_order","currentTrial","obstacle_choice_x","obstacle_choice_y"
"true","false","[]","[]","[]","preload","0","22","0.0-0.0","668340555d67e9d1df712a45","6790928bebf0b969fc839b02","679826202b2114cc04234446","passed","","","","","","","","","","","","","","","","","","","","","","","","","","","","",""
"","","","","","instructions","1","1753","0.0-1.0","668340555d67e9d1df712a45","6790928bebf0b969fc839b02","679826202b2114cc04234446","passed","[{""page_index"":0,""viewing_time"":1730}]","1731","","","","","","","","","","","","","","","","","","","","","","","","","","",""
"","","","","","browser-check","2","2740","0.0-2.0","668340555d67e9d1df712a45","6790928bebf0b969fc839b02","679826202b2114cc04234446","passed","","","1059","888","true","chrome","131.0.0","false","Linux","true","61","false","true","","","","","","","","","","","","","","","",""
"","","","","","external-html","3","4676","0.0-3.0","668340555d67e9d1df712a45","6790928bebf0b969fc839b02","679826202b2114cc04234446","passed","","1824","","","","","","","","","","","","consent.html","","","","","","","","","","","","","","",""
"true","","","","","fullscreen","4","6442","0.0-4.0","668340555d67e9d1df712a45","6790928bebf0b969fc839b02","679826202b2114cc04234446","passed","","1464","","","","","","","","","","","","","","","","","","","","","","","","","","",""
"","","","","","browser-check","5","7458","0.0-5.0","668340555d67e9d1df712a45","6790928bebf0b969fc839b02","679826202b2114cc04234446","passed","","","1920","1080","true","chrome","131.0.0","false","Linux","true","60.04","false","true","","","","","","","","","","","","","","","",""
"","","","","","html-keyboard-response","6","8930","0.0-6.0","668340555d67e9d1df712a45","6790928bebf0b969fc839b02","679826202b2114cc04234446","passed","","1472","","","","","","","","","","","","","<p><b>This experiment requires keyboard input.</b></p> 
        <p><b>To ensure your response will be recorded successfully, please press 'Space' to continue.</b></p>
        <p>If you can't proceed, you won't be able to complete this study.</p>
        <p></p> <!-- Blank line -->
        <p id=""blinking-text"" style=""font-weight; animation: blink 2s infinite;"">Press Space to continue</p>
        <style>
            @keyframes blink {
                50% {
                    opacity: 0;
                }
            }
        </style>"," ","","","","","","","","","","","","",""
"","","","","","html-keyboard-response","7","9648","0.0-7.0","668340555d67e9d1df712a45","6790928bebf0b969fc839b02","679826202b2114cc04234446","passed","","718","","","","","","","","","","","","","<p><b>This experiment requires keyboard input.</b></p> 
        <p><b>To ensure your response will be recorded successfully, please press the 'f' key to continue.</b></p>
        <p>If you can't proceed, you won't be able to complete this study.</p>
        <p></p> <!-- Blank line -->
        <p id=""blinking-text"" style=""font-weight; animation: blink 2s infinite;"">Press f to continue</p>
        <style>
            @keyframes blink {
                50% {
                    opacity: 0;
                }
            }
        </style>","f","","","","","","","","","","","","",""
"","","","","","html-keyboard-response","8","9962","0.0-8.0","668340555d67e9d1df712a45","6790928bebf0b969fc839b02","679826202b2114cc04234446","passed","","313","","","","","","","","","","","","","<p><b>This experiment requires keyboard input.</b></p> 
        <p><b>To ensure your response will be recorded successfully, please press the 'j' key to continue.</b></p>
        <p>If you can't proceed, you won't be able to complete this study.</p>
        <p></p> <!-- Blank line -->
        <p id=""blinking-text"" style=""font-weight; animation: blink 2s infinite;"">Press j to continue</p>
        <style>
            @keyframes blink {
                50% {
                    opacity: 0;
                }
            }
        </style>","j","","","","","","","","","","","","",""
"","","","","","browser-check","9","10975","0.0-9.0","668340555d67e9d1df712a45","6790928bebf0b969fc839b02","679826202b2114cc04234446","passed","","","1920","1080","true","chrome","131.0.0","false","Linux","true","59.99","false","true","","","","","","","","","","","","","","","",""
"","","","","","survey-text","10","14556","0.0-10.0","668340555d67e9d1df712a45","6790928bebf0b969fc839b02","679826202b2114cc04234446","passed","","3578","","","","","","","","","","","","","","{""prolificID"":""668340555d67e9d1df712a45""}","","","","","","","","","","","","",""
"","","","","","instructions","11","25654","0.0-11.0-0.0-0.0","668340555d67e9d1df712a45","6790928bebf0b969fc839b02","679826202b2114cc04234446","passed","[{""page_index"":0,""viewing_time"":2758},{""page_index"":1,""viewing_time"":788},{""page_index"":2,""viewing_time"":4374},{""page_index"":3,""viewing_time"":3177}]","11097","","","","","","","","","","","","","","","","","","","","","","","","","","",""
"","","","","","html-keyboard-response","12","28645","0.0-11.0-0.0-1.0","668340555d67e9d1df712a45","6790928bebf0b969fc839b02","679826202b2114cc04234446","passed","","2489","","","","","","","","","","","","","<br>Remember! After a ball falls, the screen will disappear, and you'll decide if the proposed position is where the hidden triangle was. <br>You will now practice this by watching a few videos and making decisions.<p>To respond:<br style=""margin-bottom: 5px; text-indent: -20px; padding-left: 20px;"">- Press <b style=""color: #12AD2B;"">J for Yes</b>, if you think the triangle is in the correct position.<br style=""margin-top: 0; text-indent: -20px; padding-left: 20px;"">- Press <b style=""color: orange;"">F for No</b>, if you think the triangle is not in the correct position.</p><p>In this practice round, there is no time limit. Focus on getting comfortable with the task first.<br>Press either J or F to begin your practice trials.</p><img src = ""YesOrNo_instruction.png"" style=""width: 65%;""></img>","f","","","","","","","","","","","","",""
"","","","","","html-keyboard-response","13","30739","0.0-11.0-0.0-2.0-0.0","668340555d67e9d1df712a45","6790928bebf0b969fc839b02","679826202b2114cc04234446","passed","","","","","","","","","","","","","","","","","ballFalling_prac","660","666","350","3","fallScene","false","","","","","",""
"","","","","","html-keyboard-response","14","32961","0.0-11.0-0.0-2.0-1.0","668340555d67e9d1df712a45","6790928bebf0b969fc839b02","679826202b2114cc04234446","passed","","2218","","","","","","","","","","","","","","f","yesOrNo_prac_noTimed","","","","3","","","wrong direction","NA","","","",""
"","","","","","html-keyboard-response","15","34521","0.0-11.0-0.0-2.0-0.1","668340555d67e9d1df712a45","6790928bebf0b969fc839b02","679826202b2114cc04234446","passed","","","","","","","","","","","","","","","","","ballFalling_prac","416","464","296","1","fallScene","false","","","","","",""
"","","","","","html-keyboard-response","16","36177","0.0-11.0-0.0-2.0-1.1","668340555d67e9d1df712a45","6790928bebf0b969fc839b02","679826202b2114cc04234446","passed","","1654","","","","","","","","","","","","","","j","yesOrNo_prac_noTimed","","","","1","","","gt","NA","","","",""
"","","","","","html-keyboard-response","17","37753","0.0-11.0-0.0-2.0-0.2","668340555d67e9d1df712a45","6790928bebf0b969fc839b02","679826202b2114cc04234446","passed","","","","","","","","","","","","","","","","","ballFalling_prac","441","414","302","5","fallScene","true","","","","","",""
"","","","","","html-keyboard-response","18","39273","0.0-11.0-0.0-2.0-1.2","668340555d67e9d1df712a45","6790928bebf0b969fc839b02","679826202b2114cc04234446","passed","","1518","","","","","","","","","","","","","","j","yesOrNo_prac_noTimed","","","","5","","","close gt","NA","","","",""
"","","","","","instructions","19","70827","0.0-11.0-0.0-3.0","668340555d67e9d1df712a45","6790928bebf0b969fc839b02","679826202b2114cc04234446","passed","[{""page_index"":0,""viewing_time"":20039},{""page_index"":1,""viewing_time"":11514}]","31554","","","","","","","","","","","","","","","","","","","","","","","","","","",""
"","","","","","html-button-response","20","73199","0.0-11.0-0.0-4.0","668340555d67e9d1df712a45","6790928bebf0b969fc839b02","679826202b2114cc04234446","passed","","1870","","","","","","","","","","","","","<p>To make sure you understood the task, we just have a <b>brief quiz</b> here.</p><p>If you need to review the instructions, click 'Previous'.</p><p>It's important to understand the task to do the study, so you have to pass the quiz to move to the study.</p>","1","","","","","","","","","","","","",""
"","","","","","survey-multi-choice","21","76836","0.0-11.0-1.0-0.0","668340555d67e9d1df712a45","6790928bebf0b969fc839b02","679826202b2114cc04234446","passed","","3636","","","","","","","","","","","","","","{""generalProcedure"":""Watch a video of a ball falling, some of it behind a gray screen. After each video, decide if the triangle is at the spot where the ball hit the triangle behind the screen. There is time limit for the response.""}","","","","","","","","","","[0]","","",""
"","","","","","survey-multi-choice","22","79050","0.0-11.0-1.0-1.0","668340555d67e9d1df712a45","6790928bebf0b969fc839b02","679826202b2114cc04234446","passed","","2213","","","","","","","","","","","","","","{""checkBallHitObstacle"":""Yes.""}","","","","","","","","","","[0]","","",""
"","","","","","survey-multi-choice","23","81598","0.0-11.0-1.0-2.0","668340555d67e9d1df712a45","6790928bebf0b969fc839b02","679826202b2114cc04234446","passed","","2546","","","","","","","","","","","","","","{""checkTriangleVisibility"":""No, the triangle is hidden behind the gray screen.""}","","","","","","","","","","[0]","","",""
"","","","","","survey-multi-choice","24","83399","0.0-11.0-1.0-3.0","668340555d67e9d1df712a45","6790928bebf0b969fc839b02","679826202b2114cc04234446","passed","","1799","","","","","","","","","","","","","","{""checkTimedResponse"":""Your response will not be recorded, and the trial will move to the next one.""}","","","","","","","","","","[0]","","",""
"","","","","","survey-multi-choice","25","85764","0.0-11.0-1.0-4.0","668340555d67e9d1df712a45","6790928bebf0b969fc839b02","679826202b2114cc04234446","passed","","2361","","","","","","","","","","","","","","{""checkTimeBlockNotice"":""At the beginning of each block.""}","","","","","","","","","","[0]","","",""
"","","","","","survey-multi-choice","26","88389","0.0-11.0-1.0-5.0","668340555d67e9d1df712a45","6790928bebf0b969fc839b02","679826202b2114cc04234446","passed","","2623","","","","","","","","","","","","","","{""checkTimeBlockSameness"":""Yes, the time limit is the same for all trials within a block.""}","","","","","","","","","","[0]","","",""
"","","","","","survey-multi-choice","27","98270","0.0-11.0-1.0-6.0","668340555d67e9d1df712a45","6790928bebf0b969fc839b02","679826202b2114cc04234446","passed","","9881","","","","","","","","","","","","","","{""checkTrianglePrecision"":""No. The proposed purple triangle is not in the correct position because it doesn't match the location of the white triangle exactly.""}","","","","","","","","","","[0]","","",""
"","","","","","instructions","28","141380","0.0-12.0","668340555d67e9d1df712a45","6790928bebf0b969fc839b02","679826202b2114cc04234446","passed","[{""page_index"":0,""viewing_time"":5958},{""page_index"":1,""viewing_time"":10692},{""page_index"":2,""viewing_time"":6984},{""page_index"":1,""viewing_time"":6569},{""page_index"":2,""viewing_time"":5769},{""page_index"":3,""viewing_time"":7137}]","43109","","","","","","","","","","","","","","","","","","","","","","","","","","",""
"","","","","","instructions","29","145280","0.0-13.0-0.0","668340555d67e9d1df712a45","6790928bebf0b969fc839b02","679826202b2114cc04234446","passed","[{""page_index"":0,""viewing_time"":3899}]","3899","","","","","","","","","","","","","","","","","","","","","","","","","","",""
"","","","","","html-keyboard-response","30","148074","0.0-13.0-1.0","668340555d67e9d1df712a45","6790928bebf0b969fc839b02","679826202b2114cc04234446","passed","","2794","","","","","","","","","","","","","<p><span style=""font-size:40px;"">Practice BLOCK 1</span></p><p><span style=""font-size:25px;"">You have <b style=""color: #FF644F;""><strong>3 second(s)</strong></b> to respond to the following trials.</span><br></p><p id=""blinking-text"" style=""font-weight; animation: blink 2s infinite;"">Press Space to continue</p><style>
                    @keyframes blink {
                        50% {
                            opacity: 0;
                        }
                    }
                </style>"," ","","","","","","","","","","","","",""
"","","","","","html-keyboard-response","31","149626","0.0-13.0-2.0-0.0","668340555d67e9d1df712a45","6790928bebf0b969fc839b02","679826202b2114cc04234446","passed","","","","","","","","","","","","","","","","","ballFalling_prac","416","464","296","1","fallScene","false","","","","","",""
"","","","","","html-keyboard-response","32","152630","0.0-13.0-2.0-1.0","668340555d67e9d1df712a45","6790928bebf0b969fc839b02","679826202b2114cc04234446","passed","","2119","","","","","","","","","","","","","","j","yesOrNo_prac","","","","1","","","far gt","3000","","","",""
"","","","","","html-keyboard-response","33","154192","0.0-13.0-2.0-0.1","668340555d67e9d1df712a45","6790928bebf0b969fc839b02","679826202b2114cc04234446","passed","","","","","","","","","","","","","","","","","ballFalling_prac","660","610","263","4","fallScene","false","","","","","",""
"","","","","","html-keyboard-response","34","157196","0.0-13.0-2.0-1.1","668340555d67e9d1df712a45","6790928bebf0b969fc839b02","679826202b2114cc04234446","passed","","1369","","","","","","","","","","","","","","f","yesOrNo_prac","","","","4","","","gt","3000","","","",""
"","","","","","html-keyboard-response","35","158758","0.0-13.0-2.0-0.2","668340555d67e9d1df712a45","6790928bebf0b969fc839b02","679826202b2114cc04234446","passed","","","","","","","","","","","","","","","","","ballFalling_prac","584","536","296","1","fallScene","true","","","","","",""
"","","","","","html-keyboard-response","36","161760","0.0-13.0-2.0-1.2","668340555d67e9d1df712a45","6790928bebf0b969fc839b02","679826202b2114cc04234446","passed","","948","","","","","","","","","","","","","","f","yesOrNo_prac","","","","1","","","close gt","3000","","","",""
"","","","","","html-keyboard-response","37","163330","0.0-13.0-3.0","668340555d67e9d1df712a45","6790928bebf0b969fc839b02","679826202b2114cc04234446","passed","","1569","","","","","","","","","","","","","<p><span style=""font-size:40px;"">Practice BLOCK 2</span></p><p><span style=""font-size:25px;"">You have <b style=""color: #FF644F;""><strong>1 second(s)</strong></b> to respond to the following trials.</span><br></p><p id=""blinking-text"" style=""font-weight; animation: blink 2s infinite;"">Press Space to continue</p><style>
                    @keyframes blink {
                        50% {
                            opacity: 0;
                        }
                    }
                </style>"," ","","","","","","","","","","","","",""
"","","","","","html-keyboard-response","38","164907","0.0-13.0-4.0-0.0","668340555d67e9d1df712a45","6790928bebf0b969fc839b02","679826202b2114cc04234446","passed","","","","","","","","","","","","","","","","","ballFalling_prac","660","610","263","4","fallScene","false","","","","","",""
"","","","","","html-keyboard-response","39","165910","0.0-13.0-4.0-1.0","668340555d67e9d1df712a45","6790928bebf0b969fc839b02","679826202b2114cc04234446","passed","","622","","","","","","","","","","","","","","j","yesOrNo_prac","","","","4","","","far gt","1000","","","",""
"","","","","","html-keyboard-response","40","168023","0.0-13.0-4.0-0.1","668340555d67e9d1df712a45","6790928bebf0b969fc839b02","679826202b2114cc04234446","passed","","","","","","","","","","","","","","","","","ballFalling_prac","340","334","350","3","fallScene","true","","","","","",""
"","","","","","html-keyboard-response","41","169025","0.0-13.0-4.0-1.1","668340555d67e9d1df712a45","6790928bebf0b969fc839b02","679826202b2114cc04234446","passed","","817","","","","","","","","","","","","","","f","yesOrNo_prac","","","","3","","","close gt","1000","","","",""
"","","","","","html-keyboard-response","42","170589","0.0-13.0-4.0-0.2","668340555d67e9d1df712a45","6790928bebf0b969fc839b02","679826202b2114cc04234446","passed","","","","","","","","","","","","","","","","","ballFalling_prac","441","500","317","6","fallScene","true","","","","","",""
"","","","","","html-keyboard-response","43","171591","0.0-13.0-4.0-1.2","668340555d67e9d1df712a45","6790928bebf0b969fc839b02","679826202b2114cc04234446","passed","","843","","","","","","","","","","","","","","j","yesOrNo_prac","","","","6","","","gt","1000","","","",""
"","","","","","instructions","44","175392","0.0-13.0-5.0","668340555d67e9d1df712a45","6790928bebf0b969fc839b02","679826202b2114cc04234446","passed","[{""page_index"":0,""viewing_time"":3801}]","3801","","","","","","","","","","","","","","","","","","","","","","","","","","",""
"","","","","","html-keyboard-response","45","176917","0.0-13.0-6.0","668340555d67e9d1df712a45","6790928bebf0b969fc839b02","679826202b2114cc04234446","passed","","1523","","","","","","","","","","","","","<p><span style=""font-size:40px;"">Practice Test BLOCK 1</span></p><p><span style=""font-size:25px;"">You have <b style=""color: #FF644F;""><strong>1 second(s)</strong></b> to respond to the following trials.</span><br></p><p id=""blinking-text"" style=""font-weight; animation: blink 2s infinite;"">Press Space to continue</p><style>
                    @keyframes blink {
                        50% {
                            opacity: 0;
                        }
                    }
                </style>"," ","","","","","","","","","","","","",""
"","","","","","html-keyboard-response","46","178487","0.0-13.0-7.0-0.0","668340555d67e9d1df712a45","6790928bebf0b969fc839b02","679826202b2114cc04234446","passed","","","","","","","","","","","","","","","","","ballFalling_prac","559","586","302","5","fallScene","false","","","","","",""
"","","","","","html-keyboard-response","47","179490","0.0-13.0-7.0-1.0","668340555d67e9d1df712a45","6790928bebf0b969fc839b02","679826202b2114cc04234446","passed","","850","","","","","","","","","","","","","","j","yesOrNo_prac","","","","5","","","gt","1000","","","",""
"","","","","","html-keyboard-response","48","181053","0.0-13.0-7.0-0.1","668340555d67e9d1df712a45","6790928bebf0b969fc839b02","679826202b2114cc04234446","passed","","","","","","","","","","","","","","","","","ballFalling_prac","441","500","317","6","fallScene","true","","","","","",""
"","","","","","html-keyboard-response","49","182055","0.0-13.0-7.0-1.1","668340555d67e9d1df712a45","6790928bebf0b969fc839b02","679826202b2114cc04234446","passed","","794","","","","","","","","","","","","","","j","yesOrNo_prac","","","","6","","","close gt","1000","","","",""
"","","","","","html-keyboard-response","50","183637","0.0-13.0-7.0-0.2","668340555d67e9d1df712a45","6790928bebf0b969fc839b02","679826202b2114cc04234446","passed","","","","","","","","","","","","","","","","","ballFalling_prac","340","390","263","4","fallScene","true","","","","","",""
"","","","","","html-keyboard-response","51","184639","0.0-13.0-7.0-1.2","668340555d67e9d1df712a45","6790928bebf0b969fc839b02","679826202b2114cc04234446","passed","","830","","","","","","","","","","","","","","f","yesOrNo_prac","","","","4","","","far gt","1000","","","",""
"","","","","","html-keyboard-response","52","185898","0.0-13.0-8.0","668340555d67e9d1df712a45","6790928bebf0b969fc839b02","679826202b2114cc04234446","passed","","1258","","","","","","","","","","","","","<p><span style=""font-size:40px;"">Practice Test BLOCK 2</span></p><p><span style=""font-size:25px;"">You have <b style=""color: #FF644F;""><strong>3 second(s)</strong></b> to respond to the following trials.</span><br></p><p id=""blinking-text"" style=""font-weight; animation: blink 2s infinite;"">Press Space to continue</p><style>
                    @keyframes blink {
                        50% {
                            opacity: 0;
                        }
                    }
                </style>"," ","","","","","","","","","","","","",""
"","","","","","html-keyboard-response","53","187470","0.0-13.0-9.0-0.0","668340555d67e9d1df712a45","6790928bebf0b969fc839b02","679826202b2114cc04234446","passed","","","","","","","","","","","","","","","","","ballFalling_prac","416","365","249","2","fallScene","false","","","","","",""
"","","","","","html-keyboard-response","54","190473","0.0-13.0-9.0-1.0","668340555d67e9d1df712a45","6790928bebf0b969fc839b02","679826202b2114cc04234446","passed","","1639","","","","","","","","","","","","","","j","yesOrNo_prac","","","","2","","","gt","3000","","","",""
"","","","","","html-keyboard-response","55","192054","0.0-13.0-9.0-0.1","668340555d67e9d1df712a45","6790928bebf0b969fc839b02","679826202b2114cc04234446","passed","","","","","","","","","","","","","","","","","ballFalling_prac","340","390","263","4","fallScene","true","","","","","",""
"","","","","","html-keyboard-response","56","195056","0.0-13.0-9.0-1.1","668340555d67e9d1df712a45","6790928bebf0b969fc839b02","679826202b2114cc04234446","passed","","1343","","","","","","","","","","","","","","j","yesOrNo_prac","","","","4","","","close gt","3000","","","",""
"","","","","","html-keyboard-response","57","196638","0.0-13.0-9.0-0.2","668340555d67e9d1df712a45","6790928bebf0b969fc839b02","679826202b2114cc04234446","passed","","","","","","","","","","","","","","","","","ballFalling_prac","559","586","302","5","fallScene","false","","","","","",""
"","","","","","html-keyboard-response","58","199641","0.0-13.0-9.0-1.2","668340555d67e9d1df712a45","6790928bebf0b969fc839b02","679826202b2114cc04234446","passed","","870","","","","","","","","","","","","","","j","yesOrNo_prac","","","","5","","","far gt","3000","","","",""
"","","","","","instructions","59","204426","0.0-14.0","668340555d67e9d1df712a45","6790928bebf0b969fc839b02","679826202b2114cc04234446","passed","[{""page_index"":0,""viewing_time"":4784}]","4784","","","","","","","","","","","","","","","","","","","","","","","","","","",""
"","","","","","html-keyboard-response","60","206485","0.0-15.0","668340555d67e9d1df712a45","6790928bebf0b969fc839b02","679826202b2114cc04234446","passed","","2059","","","","","","","","","","","","","<p><span style=""font-size:40px;"">BLOCK 1</span></p><p><span style=""font-size:25px;"">You have <b style=""color: #FF644F;""><strong>1 second(s)</strong></b> to respond to the following trials.</span><br></p><p></p> <!-- Blank line -->
                <p id=""blinking-text"" style=""font-weight; animation: blink 2s infinite;"">Press Space to continue</p>
                <style>
                    @keyframes blink {
                        50% {
                            opacity: 0;
                        }
                    }
                </style></p>"," ","","","","","","","","","","","","",""
"","","","","","html-keyboard-response","61","208487","0.0-16.0-0.0","668340555d67e9d1df712a45","6790928bebf0b969fc839b02","679826202b2114cc04234446","passed","","","","","","","","","","","","","","","","","ballFalling","500","510.8711431702997","369.03","8","fallScene","true","","","","1","",""
"","","","","","html-keyboard-response","62","209490","0.0-16.0-1.0","668340555d67e9d1df712a45","6790928bebf0b969fc839b02","679826202b2114cc04234446","passed","","846","","","","","","","","","","","","","","f","yesOrNo","","","","8","","","lp","1000","","1","501","151"
"","","","","","html-keyboard-response","63","211054","0.0-16.0-0.1","668340555d67e9d1df712a45","6790928bebf0b969fc839b02","679826202b2114cc04234446","passed","","","","","","","","","","","","","","","","","ballFalling","322.3","379.3711431702997","245.25","1","fallScene","true","","","","2","",""
"","","","","","html-keyboard-response","64","212056","0.0-16.0-1.1","668340555d67e9d1df712a45","6790928bebf0b969fc839b02","679826202b2114cc04234446","passed","","null","","","","","","","","","","","","","","null","yesOrNo","","","","1","","","gt","1000","","2","379.3711431702997","245.25"
"","","","","","html-keyboard-response","65","213620","0.0-16.0-0.2","668340555d67e9d1df712a45","6790928bebf0b969fc839b02","679826202b2114cc04234446","passed","","","","","","","","","","","","","","","","","ballFalling","604.4000000000001","575.4211431702997","266.76","12","fallScene","true","","","","3","",""
"","","","","","html-keyboard-response","66","214623","0.0-16.0-1.2","668340555d67e9d1df712a45","6790928bebf0b969fc839b02","679826202b2114cc04234446","passed","","937","","","","","","","","","","","","","","f","yesOrNo","","","","12","","","gt","1000","","3","575.4211431702997","266.76"
"","","","","","html-keyboard-response","67","216187","0.0-16.0-0.3","668340555d67e9d1df712a45","6790928bebf0b969fc839b02","679826202b2114cc04234446","passed","","","","","","","","","","","","","","","","","ballFalling","604.4000000000001","575.4211431702997","266.76","12","fallScene","false","","","","4","",""
"","","","","","html-keyboard-response","68","217189","0.0-16.0-1.3","668340555d67e9d1df712a45","6790928bebf0b969fc839b02","679826202b2114cc04234446","passed","","774","","","","","","","","","","","","","","f","yesOrNo","","","","12","","","mid","1000","","4","536.4288568297004","300"
"","","","","","html-keyboard-response","69","218754","0.0-16.0-0.4","668340555d67e9d1df712a45","6790928bebf0b969fc839b02","679826202b2114cc04234446","passed","","","","","","","","","","","","","","","","","ballFalling","500","453.67114317029973","210.33","5","fallScene","true","","","","5","",""
"","","","","","html-keyboard-response","70","219756","0.0-16.0-1.4","668340555d67e9d1df712a45","6790928bebf0b969fc839b02","679826202b2114cc04234446","passed","","null","","","","","","","","","","","","","","null","yesOrNo","","","","5","","","gt","1000","","5","453.6711431702998","210.33"
"","","","","","html-keyboard-response","71","221320","0.0-16.0-0.5","668340555d67e9d1df712a45","6790928bebf0b969fc839b02","679826202b2114cc04234446","passed","","","","","","","","","","","","","","","","","ballFalling","604.4000000000001","650.0211431702996","404.58000000000004","11","fallScene","false","","","","6","",""
"","","","","","html-keyboard-response","72","222322","0.0-16.0-1.5","668340555d67e9d1df712a45","6790928bebf0b969fc839b02","679826202b2114cc04234446","passed","","784","","","","","","","","","","","","","","j","yesOrNo","","","","11","","","mid","1000","","6","605.4000000000001","300"
"","","","","","html-keyboard-response","73","223903","0.0-16.0-0.6","668340555d67e9d1df712a45","6790928bebf0b969fc839b02","679826202b2114cc04234446","passed","","","","","","","","","","","","","","","","","ballFalling","500","553.4711431702997","282.51","7","fallScene","false","","","","7","",""
"","","","","","html-keyboard-response","74","224905","0.0-16.0-1.6","668340555d67e9d1df712a45","6790928bebf0b969fc839b02","679826202b2114cc04234446","passed","","828","","","","","","","","","","","","","","f","yesOrNo","","","","7","","","gt","1000","","7","553.4711431702997","282.51"
"","","","","","html-keyboard-response","75","226920","0.0-16.0-0.7","668340555d67e9d1df712a45","6790928bebf0b969fc839b02","679826202b2114cc04234446","passed","","","","","","","","","","","","","","","","","ballFalling","604.4000000000001","596.8711431702998","394.5","10","fallScene","false","","","","8","",""
"","","","","","html-keyboard-response","76","227922","0.0-16.0-1.7","668340555d67e9d1df712a45","6790928bebf0b969fc839b02","679826202b2114cc04234446","passed","","876","","","","","","","","","","","","","","f","yesOrNo","","","","10","","","gt","1000","","8","596.8711431702998","394.5"
"","","","","","html-keyboard-response","77","229486","0.0-16.0-0.8","668340555d67e9d1df712a45","6790928bebf0b969fc839b02","679826202b2114cc04234446","passed","","","","","","","","","","","","","","","","","ballFalling","322.3","296.07114317029976","371.46","3","fallScene","true","","","","9","",""
"","","","","","html-keyboard-response","78","230489","0.0-16.0-1.8","668340555d67e9d1df712a45","6790928bebf0b969fc839b02","679826202b2114cc04234446","passed","","764","","","","","","","","","","","","","","f","yesOrNo","","","","3","","","gt","1000","","9","296.07114317029976","371.46"
"","","","","","html-keyboard-response","79","232053","0.0-16.0-0.9","668340555d67e9d1df712a45","6790928bebf0b969fc839b02","679826202b2114cc04234446","passed","","","","","","","","","","","","","","","","","ballFalling","322.3","356.42114317029973","357.87","4","fallScene","true","","","","10","",""
"","","","","","html-keyboard-response","80","233055","0.0-16.0-1.9","668340555d67e9d1df712a45","6790928bebf0b969fc839b02","679826202b2114cc04234446","passed","","816","","","","","","","","","","","","","","j","yesOrNo","","","","4","","","gt","1000","","10","356.42114317029973","357.87"
"","","","","","html-keyboard-response","81","234553","0.0-16.0-0.10","668340555d67e9d1df712a45","6790928bebf0b969fc839b02","679826202b2114cc04234446","passed","","","","","","","","","","","","","","","","","ballFalling","604.4000000000001","667.6211431702998","201.78","9","fallScene","true","","","","11","",""
"","","","","","html-keyboard-response","82","235555","0.0-16.0-1.10","668340555d67e9d1df712a45","6790928bebf0b969fc839b02","679826202b2114cc04234446","passed","","598","","","","","","","","","","","","","","j","yesOrNo","","","","9","","","mid","1000","","11","605.4000000000001","300"
"","","","","","html-keyboard-response","83","237119","0.0-16.0-0.11","668340555d67e9d1df712a45","6790928bebf0b969fc839b02","679826202b2114cc04234446","passed","","","","","","","","","","","","","","","","","ballFalling","500","453.67114317029973","210.33","5","fallScene","false","","","","12","",""
"","","","","","html-keyboard-response","84","238121","0.0-16.0-1.11","668340555d67e9d1df712a45","6790928bebf0b969fc839b02","679826202b2114cc04234446","passed","","556","","","","","","","","","","","","","","f","yesOrNo","","","","5","","","lp","1000","","12","499","151"
"","","","","","html-keyboard-response","85","239785","0.0-16.0-0.12","668340555d67e9d1df712a45","6790928bebf0b969fc839b02","679826202b2114cc04234446","passed","","","","","","","","","","","","","","","","","ballFalling","500","479.92114317029973","330.87","6","fallScene","false","","","","13","",""
"","","","","","html-keyboard-response","86","240788","0.0-16.0-1.12","668340555d67e9d1df712a45","6790928bebf0b969fc839b02","679826202b2114cc04234446","passed","","726","","","","","","","","","","","","","","j","yesOrNo","","","","6","","","gt","1000","","13","479.9211431702998","330.87"
"","","","","","html-keyboard-response","87","242586","0.0-16.0-0.13","668340555d67e9d1df712a45","6790928bebf0b969fc839b02","679826202b2114cc04234446","passed","","","","","","","","","","","","","","","","","ballFalling","322.3","308.07114317029976","253.89","2","fallScene","false","","","","14","",""
"","","","","","html-keyboard-response","88","243587","0.0-16.0-1.13","668340555d67e9d1df712a45","6790928bebf0b969fc839b02","679826202b2114cc04234446","passed","","689","","","","","","","","","","","","","","f","yesOrNo","","","","2","","","lp","1000","","14","321.3","151"
"","","","","","html-keyboard-response","89","245602","0.0-16.0-0.14","668340555d67e9d1df712a45","6790928bebf0b969fc839b02","679826202b2114cc04234446","passed","","","","","","","","","","","","","","","","","ballFalling","500","510.8711431702997","369.03","8","fallScene","false","","","","15","",""
"","","","","","html-keyboard-response","90","246606","0.0-16.0-1.14","668340555d67e9d1df712a45","6790928bebf0b969fc839b02","679826202b2114cc04234446","passed","","799","","","","","","","","","","","","","","f","yesOrNo","","","","8","","","gt","1000","","15","510.8711431702997","369.03"
"","","","","","html-keyboard-response","91","248618","0.0-16.0-0.15","668340555d67e9d1df712a45","6790928bebf0b969fc839b02","679826202b2114cc04234446","passed","","","","","","","","","","","","","","","","","ballFalling","500","510.8711431702997","369.03","8","fallScene","true","","","","16","",""
"","","","","","html-keyboard-response","92","249620","0.0-16.0-1.15","668340555d67e9d1df712a45","6790928bebf0b969fc839b02","679826202b2114cc04234446","passed","","767","","","","","","","","","","","","","","j","yesOrNo","","","","8","","","mid","1000","","16","501","300"
"","","","","","html-keyboard-response","93","251118","0.0-16.0-0.16","668340555d67e9d1df712a45","6790928bebf0b969fc839b02","679826202b2114cc04234446","passed","","","","","","","","","","","","","","","","","ballFalling","604.4000000000001","667.6211431702998","201.78","9","fallScene","false","","","","17","",""
"","","","","","html-keyboard-response","94","252120","0.0-16.0-1.16","668340555d67e9d1df712a45","6790928bebf0b969fc839b02","679826202b2114cc04234446","passed","","629","","","","","","","","","","","","","","f","yesOrNo","","","","9","","","gt","1000","","17","667.6211431702998","201.78"
"","","","","","html-keyboard-response","95","254134","0.0-16.0-0.17","668340555d67e9d1df712a45","6790928bebf0b969fc839b02","679826202b2114cc04234446","passed","","","","","","","","","","","","","","","","","ballFalling","604.4000000000001","596.8711431702998","394.5","10","fallScene","true","","","","18","",""
"","","","","","html-keyboard-response","96","255137","0.0-16.0-1.17","668340555d67e9d1df712a45","6790928bebf0b969fc839b02","679826202b2114cc04234446","passed","","885","","","","","","","","","","","","","","f","yesOrNo","","","","10","","","gt","1000","","18","596.8711431702998","394.5"
"","","","","","html-keyboard-response","97","256801","0.0-16.0-0.18","668340555d67e9d1df712a45","6790928bebf0b969fc839b02","679826202b2114cc04234446","passed","","","","","","","","","","","","","","","","","ballFalling","500","479.92114317029973","330.87","6","fallScene","true","","","","19","",""
"","","","","","html-keyboard-response","98","257802","0.0-16.0-1.18","668340555d67e9d1df712a45","6790928bebf0b969fc839b02","679826202b2114cc04234446","passed","","893","","","","","","","","","","","","","","f","yesOrNo","","","","6","","","lp","1000","","19","499","189.92909825697632"
"","","","","","html-keyboard-response","99","259817","0.0-16.0-0.19","668340555d67e9d1df712a45","6790928bebf0b969fc839b02","679826202b2114cc04234446","passed","","","","","","","","","","","","","","","","","ballFalling","604.4000000000001","596.8711431702998","394.5","10","fallScene","false","","","","20","",""
"","","","","","html-keyboard-response","100","260818","0.0-16.0-1.19","668340555d67e9d1df712a45","6790928bebf0b969fc839b02","679826202b2114cc04234446","passed","","null","","","","","","","","","","","","","","null","yesOrNo","","","","10","","","lp","1000","","20","603.4000000000001","215.50214355555383"
"","","","","","html-keyboard-response","101","262384","0.0-16.0-0.20","668340555d67e9d1df712a45","6790928bebf0b969fc839b02","679826202b2114cc04234446","passed","","","","","","","","","","","","","","","","","ballFalling","604.4000000000001","650.0211431702996","404.58000000000004","11","fallScene","true","","","","21","",""
"","","","","","html-keyboard-response","102","263386","0.0-16.0-1.20","668340555d67e9d1df712a45","6790928bebf0b969fc839b02","679826202b2114cc04234446","passed","","707","","","","","","","","","","","","","","f","yesOrNo","","","","11","","","gt","1000","","21","650.0211431702996","404.58"
"","","","","","html-keyboard-response","103","265400","0.0-16.0-0.21","668340555d67e9d1df712a45","6790928bebf0b969fc839b02","679826202b2114cc04234446","passed","","","","","","","","","","","","","","","","","ballFalling","604.4000000000001","596.8711431702998","394.5","10","fallScene","true","","","","22","",""
"","","","","","html-keyboard-response","104","266402","0.0-16.0-1.21","668340555d67e9d1df712a45","6790928bebf0b969fc839b02","679826202b2114cc04234446","passed","","728","","","","","","","","","","","","","","f","yesOrNo","","","","10","","","mid","1000","","22","536.4288568297004","300"
"","","","","","html-keyboard-response","105","267983","0.0-16.0-0.22","668340555d67e9d1df712a45","6790928bebf0b969fc839b02","679826202b2114cc04234446","passed","","","","","","","","","","","","","","","","","ballFalling","500","553.4711431702997","282.51","7","fallScene","false","","","","23","",""
"","","","","","html-keyboard-response","106","268985","0.0-16.0-1.22","668340555d67e9d1df712a45","6790928bebf0b969fc839b02","679826202b2114cc04234446","passed","","768","","","","","","","","","","","","","","f","yesOrNo","","","","7","","","lp","1000","","23","501","227.2843295913261"
"","","","","","html-keyboard-response","107","270549","0.0-16.0-0.23","668340555d67e9d1df712a45","6790928bebf0b969fc839b02","679826202b2114cc04234446","passed","","","","","","","","","","","","","","","","","ballFalling","604.4000000000001","650.0211431702996","404.58000000000004","11","fallScene","true","","","","24","",""
"","","","","","html-keyboard-response","108","271551","0.0-16.0-1.23","668340555d67e9d1df712a45","6790928bebf0b969fc839b02","679826202b2114cc04234446","passed","","651","","","","","","","","","","","","","","f","yesOrNo","","","","11","","","gt","1000","","24","650.0211431702996","404.58"
"","","","","","html-keyboard-response","109","274852","0.0-17.0","668340555d67e9d1df712a45","6790928bebf0b969fc839b02","679826202b2114cc04234446","passed","","3300","","","","","","","","","","","","","<p><span style=""font-size:40px;"">BLOCK 2</span></p><p><span style=""font-size:25px;"">You have <b style=""color: #FF644F;""><strong>3 second(s)</strong></b> to respond to the following trials.</span><br></p><p></p> <!-- Blank line -->
                <p id=""blinking-text"" style=""font-weight; animation: blink 2s infinite;"">Press Space to continue</p>
                <style>
                    @keyframes blink {
                        50% {
                            opacity: 0;
                        }
                    }
                </style></p>"," ","","","","","","","","","","","","",""
"","","","","","html-keyboard-response","110","276415","0.0-18.0-0.0","668340555d67e9d1df712a45","6790928bebf0b969fc839b02","679826202b2114cc04234446","passed","","","","","","","","","","","","","","","","","ballFalling","322.3","296.07114317029976","371.46","3","fallScene","false","","","","25","",""
"","","","","","html-keyboard-response","111","279417","0.0-18.0-1.0","668340555d67e9d1df712a45","6790928bebf0b969fc839b02","679826202b2114cc04234446","passed","","827","","","","","","","","","","","","","","f","yesOrNo","","","","3","","","mid","3000","","25","321.3","300"
"","","","","","html-keyboard-response","112","280914","0.0-18.0-0.1","668340555d67e9d1df712a45","6790928bebf0b969fc839b02","679826202b2114cc04234446","passed","","","","","","","","","","","","","","","","","ballFalling","604.4000000000001","667.6211431702998","201.78","9","fallScene","true","","","","26","",""
"","","","","","html-keyboard-response","113","283916","0.0-18.0-1.1","668340555d67e9d1df712a45","6790928bebf0b969fc839b02","679826202b2114cc04234446","passed","","2239","","","","","","","","","","","","","","f","yesOrNo","","","","9","","","mid","3000","","26","605.4000000000001","300"
"","","","","","html-keyboard-response","114","285481","0.0-18.0-0.2","668340555d67e9d1df712a45","6790928bebf0b969fc839b02","679826202b2114cc04234446","passed","","","","","","","","","","","","","","","","","ballFalling","322.3","379.3711431702997","245.25","1","fallScene","false","","","","27","",""
"","","","","","html-keyboard-response","115","288483","0.0-18.0-1.2","668340555d67e9d1df712a45","6790928bebf0b969fc839b02","679826202b2114cc04234446","passed","","985","","","","","","","","","","","","","","j","yesOrNo","","","","1","","","gt","3000","","27","379.3711431702997","245.25"
"","","","","","html-keyboard-response","116","290047","0.0-18.0-0.3","668340555d67e9d1df712a45","6790928bebf0b969fc839b02","679826202b2114cc04234446","passed","","","","","","","","","","","","","","","","","ballFalling","604.4000000000001","575.4211431702997","266.76","12","fallScene","false","","","","28","",""
"","","","","","html-keyboard-response","117","293050","0.0-18.0-1.3","668340555d67e9d1df712a45","6790928bebf0b969fc839b02","679826202b2114cc04234446","passed","","718","","","","","","","","","","","","","","j","yesOrNo","","","","12","","","gt","3000","","28","575.4211431702997","266.76"
"","","","","","html-keyboard-response","118","294613","0.0-18.0-0.4","668340555d67e9d1df712a45","6790928bebf0b969fc839b02","679826202b2114cc04234446","passed","","","","","","","","","","","","","","","","","ballFalling","322.3","296.07114317029976","371.46","3","fallScene","false","","","","29","",""
"","","","","","html-keyboard-response","119","297615","0.0-18.0-1.4","668340555d67e9d1df712a45","6790928bebf0b969fc839b02","679826202b2114cc04234446","passed","","1406","","","","","","","","","","","","","","f","yesOrNo","","","","3","","","gt","3000","","29","296.07114317029976","371.46"
"","","","","","html-keyboard-response","120","299412","0.0-18.0-0.5","668340555d67e9d1df712a45","6790928bebf0b969fc839b02","679826202b2114cc04234446","passed","","","","","","","","","","","","","","","","","ballFalling","322.3","308.07114317029976","253.89","2","fallScene","false","","","","30","",""
"","","","","","html-keyboard-response","121","302415","0.0-18.0-1.5","668340555d67e9d1df712a45","6790928bebf0b969fc839b02","679826202b2114cc04234446","passed","","1036","","","","","","","","","","","","","","f","yesOrNo","","","","2","","","gt","3000","","30","308.07114317029976","253.89"
"","","","","","html-keyboard-response","122","304428","0.0-18.0-0.6","668340555d67e9d1df712a45","6790928bebf0b969fc839b02","679826202b2114cc04234446","passed","","","","","","","","","","","","","","","","","ballFalling","500","510.8711431702997","369.03","8","fallScene","true","","","","31","",""
"","","","","","html-keyboard-response","123","307429","0.0-18.0-1.6","668340555d67e9d1df712a45","6790928bebf0b969fc839b02","679826202b2114cc04234446","passed","","1877","","","","","","","","","","","","","","f","yesOrNo","","","","8","","","mid","3000","","31","501","300"
"","","","","","html-keyboard-response","124","309010","0.0-18.0-0.7","668340555d67e9d1df712a45","6790928bebf0b969fc839b02","679826202b2114cc04234446","passed","","","","","","","","","","","","","","","","","ballFalling","500","553.4711431702997","282.51","7","fallScene","false","","","","32","",""
"","","","","","html-keyboard-response","125","312012","0.0-18.0-1.7","668340555d67e9d1df712a45","6790928bebf0b969fc839b02","679826202b2114cc04234446","passed","","1115","","","","","","","","","","","","","","f","yesOrNo","","","","7","","","lp","3000","","32","501","227.2843295913261"
"","","","","","html-keyboard-response","126","313577","0.0-18.0-0.8","668340555d67e9d1df712a45","6790928bebf0b969fc839b02","679826202b2114cc04234446","passed","","","","","","","","","","","","","","","","","ballFalling","322.3","379.3711431702997","245.25","1","fallScene","false","","","","33","",""
"","","","","","html-keyboard-response","127","316578","0.0-18.0-1.8","668340555d67e9d1df712a45","6790928bebf0b969fc839b02","679826202b2114cc04234446","passed","","756","","","","","","","","","","","","","","f","yesOrNo","","","","1","","","lp","3000","","33","323.3","217.74551669457017"
"","","","","","html-keyboard-response","128","318142","0.0-18.0-0.9","668340555d67e9d1df712a45","6790928bebf0b969fc839b02","679826202b2114cc04234446","passed","","","","","","","","","","","","","","","","","ballFalling","604.4000000000001","650.0211431702996","404.58000000000004","11","fallScene","false","","","","34","",""
"","","","","","html-keyboard-response","129","321144","0.0-18.0-1.9","668340555d67e9d1df712a45","6790928bebf0b969fc839b02","679826202b2114cc04234446","passed","","1108","","","","","","","","","","","","","","f","yesOrNo","","","","11","","","lp","3000","","34","605.4000000000001","372.6340973215488"
"","","","","","html-keyboard-response","130","322708","0.0-18.0-0.10","668340555d67e9d1df712a45","6790928bebf0b969fc839b02","679826202b2114cc04234446","passed","","","","","","","","","","","","","","","","","ballFalling","322.3","356.42114317029973","357.87","4","fallScene","false","","","","35","",""
"","","","","","html-keyboard-response","131","325710","0.0-18.0-1.10","668340555d67e9d1df712a45","6790928bebf0b969fc839b02","679826202b2114cc04234446","passed","","748","","","","","","","","","","","","","","f","yesOrNo","","","","4","","","lp","3000","","35","323.3","297.4070551689986"
"","","","","","html-keyboard-response","132","327274","0.0-18.0-0.11","668340555d67e9d1df712a45","6790928bebf0b969fc839b02","679826202b2114cc04234446","passed","","","","","","","","","","","","","","","","","ballFalling","322.3","356.42114317029973","357.87","4","fallScene","true","","","","36","",""
"","","","","","html-keyboard-response","133","330276","0.0-18.0-1.11","668340555d67e9d1df712a45","6790928bebf0b969fc839b02","679826202b2114cc04234446","passed","","834","","","","","","","","","","","","","","f","yesOrNo","","","","4","","","lp","3000","","36","323.3","297.4070551689986"
"","","","","","html-keyboard-response","134","331840","0.0-18.0-0.12","668340555d67e9d1df712a45","6790928bebf0b969fc839b02","679826202b2114cc04234446","passed","","","","","","","","","","","","","","","","","ballFalling","500","453.67114317029973","210.33","5","fallScene","true","","","","37","",""
"","","","","","html-keyboard-response","135","334844","0.0-18.0-1.12","668340555d67e9d1df712a45","6790928bebf0b969fc839b02","679826202b2114cc04234446","passed","","1108","","","","","","","","","","","","","","j","yesOrNo","","","","5","","","gt","3000","","37","453.6711431702998","210.33"
"","","","","","html-keyboard-response","136","336406","0.0-18.0-0.13","668340555d67e9d1df712a45","6790928bebf0b969fc839b02","679826202b2114cc04234446","passed","","","","","","","","","","","","","","","","","ballFalling","500","453.67114317029973","210.33","5","fallScene","false","","","","38","",""
"","","","","","html-keyboard-response","137","339408","0.0-18.0-1.13","668340555d67e9d1df712a45","6790928bebf0b969fc839b02","679826202b2114cc04234446","passed","","861","","","","","","","","","","","","","","j","yesOrNo","","","","5","","","gt","3000","","38","453.6711431702998","210.33"
"","","","","","html-keyboard-response","138","340972","0.0-18.0-0.14","668340555d67e9d1df712a45","6790928bebf0b969fc839b02","679826202b2114cc04234446","passed","","","","","","","","","","","","","","","","","ballFalling","604.4000000000001","575.4211431702997","266.76","12","fallScene","true","","","","39","",""
"","","","","","html-keyboard-response","139","343976","0.0-18.0-1.14","668340555d67e9d1df712a45","6790928bebf0b969fc839b02","679826202b2114cc04234446","passed","","710","","","","","","","","","","","","","","j","yesOrNo","","","","12","","","gt","3000","","39","575.4211431702997","266.76"
"","","","","","html-keyboard-response","140","345538","0.0-18.0-0.15","668340555d67e9d1df712a45","6790928bebf0b969fc839b02","679826202b2114cc04234446","passed","","","","","","","","","","","","","","","","","ballFalling","604.4000000000001","575.4211431702997","266.76","12","fallScene","false","","","","40","",""
"","","","","","html-keyboard-response","141","348540","0.0-18.0-1.15","668340555d67e9d1df712a45","6790928bebf0b969fc839b02","679826202b2114cc04234446","passed","","2313","","","","","","","","","","","","","","f","yesOrNo","","","","12","","","mid","3000","","40","536.4288568297004","300"
"","","","","","html-keyboard-response","142","350554","0.0-18.0-0.16","668340555d67e9d1df712a45","6790928bebf0b969fc839b02","679826202b2114cc04234446","passed","","","","","","","","","","","","","","","","","ballFalling","500","510.8711431702997","369.03","8","fallScene","false","","","","41","",""
"","","","","","html-keyboard-response","143","353557","0.0-18.0-1.16","668340555d67e9d1df712a45","6790928bebf0b969fc839b02","679826202b2114cc04234446","passed","","2526","","","","","","","","","","","","","","j","yesOrNo","","","","8","","","lp","3000","","41","501","151"
"","","","","","html-keyboard-response","144","355569","0.0-18.0-0.17","668340555d67e9d1df712a45","6790928bebf0b969fc839b02","679826202b2114cc04234446","passed","","","","","","","","","","","","","","","","","ballFalling","604.4000000000001","596.8711431702998","394.5","10","fallScene","true","","","","42","",""
"","","","","","html-keyboard-response","145","358571","0.0-18.0-1.17","668340555d67e9d1df712a45","6790928bebf0b969fc839b02","679826202b2114cc04234446","passed","","1351","","","","","","","","","","","","","","f","yesOrNo","","","","10","","","mid","3000","","42","536.4288568297004","300"
"","","","","","html-keyboard-response","146","360136","0.0-18.0-0.18","668340555d67e9d1df712a45","6790928bebf0b969fc839b02","679826202b2114cc04234446","passed","","","","","","","","","","","","","","","","","ballFalling","604.4000000000001","575.4211431702997","266.76","12","fallScene","false","","","","43","",""
"","","","","","html-keyboard-response","147","363138","0.0-18.0-1.18","668340555d67e9d1df712a45","6790928bebf0b969fc839b02","679826202b2114cc04234446","passed","","1044","","","","","","","","","","","","","","f","yesOrNo","","","","12","","","lp","3000","","43","603.4000000000001","151"
"","","","","","html-keyboard-response","148","364702","0.0-18.0-0.19","668340555d67e9d1df712a45","6790928bebf0b969fc839b02","679826202b2114cc04234446","passed","","","","","","","","","","","","","","","","","ballFalling","322.3","379.3711431702997","245.25","1","fallScene","true","","","","44","",""
"","","","","","html-keyboard-response","149","367703","0.0-18.0-1.19","668340555d67e9d1df712a45","6790928bebf0b969fc839b02","679826202b2114cc04234446","passed","","1799","","","","","","","","","","","","","","f","yesOrNo","","","","1","","","mid","3000","","44","390.27114317029975","300"
"","","","","","html-keyboard-response","150","369284","0.0-18.0-0.20","668340555d67e9d1df712a45","6790928bebf0b969fc839b02","679826202b2114cc04234446","passed","","","","","","","","","","","","","","","","","ballFalling","500","553.4711431702997","282.51","7","fallScene","true","","","","45","",""
"","","","","","html-keyboard-response","151","372286","0.0-18.0-1.20","668340555d67e9d1df712a45","6790928bebf0b969fc839b02","679826202b2114cc04234446","passed","","1147","","","","","","","","","","","","","","j","yesOrNo","","","","7","","","mid","3000","","45","501","300"
"","","","","","html-keyboard-response","152","373783","0.0-18.0-0.21","668340555d67e9d1df712a45","6790928bebf0b969fc839b02","679826202b2114cc04234446","passed","","","","","","","","","","","","","","","","","ballFalling","604.4000000000001","667.6211431702998","201.78","9","fallScene","false","","","","46","",""
"","","","","","html-keyboard-response","153","376785","0.0-18.0-1.21","668340555d67e9d1df712a45","6790928bebf0b969fc839b02","679826202b2114cc04234446","passed","","938","","","","","","","","","","","","","","f","yesOrNo","","","","9","","","lp","3000","","46","605.4000000000001","151"
"","","","","","html-keyboard-response","154","378349","0.0-18.0-0.22","668340555d67e9d1df712a45","6790928bebf0b969fc839b02","679826202b2114cc04234446","passed","","","","","","","","","","","","","","","","","ballFalling","604.4000000000001","650.0211431702996","404.58000000000004","11","fallScene","true","","","","47","",""
"","","","","","html-keyboard-response","155","381351","0.0-18.0-1.22","668340555d67e9d1df712a45","6790928bebf0b969fc839b02","679826202b2114cc04234446","passed","","923","","","","","","","","","","","","","","f","yesOrNo","","","","11","","","lp","3000","","47","605.4000000000001","372.6340973215488"
"","","","","","html-keyboard-response","156","382915","0.0-18.0-0.23","668340555d67e9d1df712a45","6790928bebf0b969fc839b02","679826202b2114cc04234446","passed","","","","","","","","","","","","","","","","","ballFalling","322.3","379.3711431702997","245.25","1","fallScene","true","","","","48","",""
"","","","","","html-keyboard-response","157","385917","0.0-18.0-1.23","668340555d67e9d1df712a45","6790928bebf0b969fc839b02","679826202b2114cc04234446","passed","","863","","","","","","","","","","","","","","j","yesOrNo","","","","1","","","gt","3000","","48","379.3711431702997","245.25"
"","","","","","html-keyboard-response","158","387293","0.0-19.0","668340555d67e9d1df712a45","6790928bebf0b969fc839b02","679826202b2114cc04234446","passed","","1376","","","","","","","","","","","","","<p><span style=""font-size:40px;"">BLOCK 3</span></p><p><span style=""font-size:25px;"">You have <b style=""color: #FF644F;""><strong>1 second(s)</strong></b> to respond to the following trials.</span><br></p><p></p> <!-- Blank line -->
                <p id=""blinking-text"" style=""font-weight; animation: blink 2s infinite;"">Press Space to continue</p>
                <style>
                    @keyframes blink {
                        50% {
                            opacity: 0;
                        }
                    }
                </style></p>"," ","","","","","","","","","","","","",""
"","","","","","html-keyboard-response","159","388780","0.0-20.0-0.0","668340555d67e9d1df712a45","6790928bebf0b969fc839b02","679826202b2114cc04234446","passed","","","","","","","","","","","","","","","","","ballFalling","604.4000000000001","667.6211431702998","201.78","9","fallScene","true","","","","49","",""
"","","","","","html-keyboard-response","160","389783","0.0-20.0-1.0","668340555d67e9d1df712a45","6790928bebf0b969fc839b02","679826202b2114cc04234446","passed","","650","","","","","","","","","","","","","","f","yesOrNo","","","","9","","","lp","1000","","49","605.4000000000001","151"
"","","","","","html-keyboard-response","161","391346","0.0-20.0-0.1","668340555d67e9d1df712a45","6790928bebf0b969fc839b02","679826202b2114cc04234446","passed","","","","","","","","","","","","","","","","","ballFalling","604.4000000000001","650.0211431702996","404.58000000000004","11","fallScene","true","","","","50","",""
"","","","","","html-keyboard-response","162","392348","0.0-20.0-1.1","668340555d67e9d1df712a45","6790928bebf0b969fc839b02","679826202b2114cc04234446","passed","","746","","","","","","","","","","","","","","f","yesOrNo","","","","11","","","lp","1000","","50","605.4000000000001","372.6340973215488"
"","","","","","html-keyboard-response","163","393846","0.0-20.0-0.2","668340555d67e9d1df712a45","6790928bebf0b969fc839b02","679826202b2114cc04234446","passed","","","","","","","","","","","","","","","","","ballFalling","604.4000000000001","667.6211431702998","201.78","9","fallScene","false","","","","51","",""
"","","","","","html-keyboard-response","164","394849","0.0-20.0-1.2","668340555d67e9d1df712a45","6790928bebf0b969fc839b02","679826202b2114cc04234446","passed","","732","","","","","","","","","","","","","","j","yesOrNo","","","","9","","","gt","1000","","51","667.6211431702998","201.78"
"","","","","","html-keyboard-response","165","396413","0.0-20.0-0.3","668340555d67e9d1df712a45","6790928bebf0b969fc839b02","679826202b2114cc04234446","passed","","","","","","","","","","","","","","","","","ballFalling","322.3","296.07114317029976","371.46","3","fallScene","false","","","","52","",""
"","","","","","html-keyboard-response","166","397415","0.0-20.0-1.3","668340555d67e9d1df712a45","6790928bebf0b969fc839b02","679826202b2114cc04234446","passed","","734","","","","","","","","","","","","","","f","yesOrNo","","","","3","","","lp","1000","","52","321.3","287.3327096511259"
"","","","","","html-keyboard-response","167","398979","0.0-20.0-0.4","668340555d67e9d1df712a45","6790928bebf0b969fc839b02","679826202b2114cc04234446","passed","","","","","","","","","","","","","","","","","ballFalling","322.3","379.3711431702997","245.25","1","fallScene","false","","","","53","",""
"","","","","","html-keyboard-response","168","399981","0.0-20.0-1.4","668340555d67e9d1df712a45","6790928bebf0b969fc839b02","679826202b2114cc04234446","passed","","840","","","","","","","","","","","","","","j","yesOrNo","","","","1","","","mid","1000","","53","390.27114317029975","300"
"","","","","","html-keyboard-response","169","401561","0.0-20.0-0.5","668340555d67e9d1df712a45","6790928bebf0b969fc839b02","679826202b2114cc04234446","passed","","","","","","","","","","","","","","","","","ballFalling","500","553.4711431702997","282.51","7","fallScene","true","","","","54","",""
"","","","","","html-keyboard-response","170","402563","0.0-20.0-1.5","668340555d67e9d1df712a45","6790928bebf0b969fc839b02","679826202b2114cc04234446","passed","","834","","","","","","","","","","","","","","f","yesOrNo","","","","7","","","mid","1000","","54","501","300"
"","","","","","html-keyboard-response","171","404128","0.0-20.0-0.6","668340555d67e9d1df712a45","6790928bebf0b969fc839b02","679826202b2114cc04234446","passed","","","","","","","","","","","","","","","","","ballFalling","322.3","379.3711431702997","245.25","1","fallScene","false","","","","55","",""
"","","","","","html-keyboard-response","172","405130","0.0-20.0-1.6","668340555d67e9d1df712a45","6790928bebf0b969fc839b02","679826202b2114cc04234446","passed","","804","","","","","","","","","","","","","","f","yesOrNo","","","","1","","","lp","1000","","55","323.3","217.74551669457017"
"","","","","","html-keyboard-response","173","406927","0.0-20.0-0.7","668340555d67e9d1df712a45","6790928bebf0b969fc839b02","679826202b2114cc04234446","passed","","","","","","","","","","","","","","","","","ballFalling","322.3","308.07114317029976","253.89","2","fallScene","false","","","","56","",""
"","","","","","html-keyboard-response","174","407929","0.0-20.0-1.7","668340555d67e9d1df712a45","6790928bebf0b969fc839b02","679826202b2114cc04234446","passed","","733","","","","","","","","","","","","","","j","yesOrNo","","","","2","","","gt","1000","","56","308.07114317029976","253.89"
"","","","","","html-keyboard-response","175","409493","0.0-20.0-0.8","668340555d67e9d1df712a45","6790928bebf0b969fc839b02","679826202b2114cc04234446","passed","","","","","","","","","","","","","","","","","ballFalling","322.3","356.42114317029973","357.87","4","fallScene","true","","","","57","",""
"","","","","","html-keyboard-response","176","410495","0.0-20.0-1.8","668340555d67e9d1df712a45","6790928bebf0b969fc839b02","679826202b2114cc04234446","passed","","968","","","","","","","","","","","","","","j","yesOrNo","","","","4","","","lp","1000","","57","323.3","297.4070551689986"
"","","","","","html-keyboard-response","177","412060","0.0-20.0-0.9","668340555d67e9d1df712a45","6790928bebf0b969fc839b02","679826202b2114cc04234446","passed","","","","","","","","","","","","","","","","","ballFalling","604.4000000000001","575.4211431702997","266.76","12","fallScene","false","","","","58","",""
"","","","","","html-keyboard-response","178","413062","0.0-20.0-1.9","668340555d67e9d1df712a45","6790928bebf0b969fc839b02","679826202b2114cc04234446","passed","","562","","","","","","","","","","","","","","f","yesOrNo","","","","12","","","lp","1000","","58","603.4000000000001","151"
"","","","","","html-keyboard-response","179","414626","0.0-20.0-0.10","668340555d67e9d1df712a45","6790928bebf0b969fc839b02","679826202b2114cc04234446","passed","","","","","","","","","","","","","","","","","ballFalling","604.4000000000001","650.0211431702996","404.58000000000004","11","fallScene","true","","","","59","",""
"","","","","","html-keyboard-response","180","415628","0.0-20.0-1.10","668340555d67e9d1df712a45","6790928bebf0b969fc839b02","679826202b2114cc04234446","passed","","787","","","","","","","","","","","","","","f","yesOrNo","","","","11","","","lp","1000","","59","605.4000000000001","372.6340973215488"
"","","","","","html-keyboard-response","181","417209","0.0-20.0-0.11","668340555d67e9d1df712a45","6790928bebf0b969fc839b02","679826202b2114cc04234446","passed","","","","","","","","","","","","","","","","","ballFalling","500","553.4711431702997","282.51","7","fallScene","true","","","","60","",""
"","","","","","html-keyboard-response","182","418211","0.0-20.0-1.11","668340555d67e9d1df712a45","6790928bebf0b969fc839b02","679826202b2114cc04234446","passed","","712","","","","","","","","","","","","","","j","yesOrNo","","","","7","","","lp","1000","","60","501","227.2843295913261"
"","","","","","html-keyboard-response","183","419875","0.0-20.0-0.12","668340555d67e9d1df712a45","6790928bebf0b969fc839b02","679826202b2114cc04234446","passed","","","","","","","","","","","","","","","","","ballFalling","500","479.92114317029973","330.87","6","fallScene","true","","","","61","",""
"","","","","","html-keyboard-response","184","420878","0.0-20.0-1.12","668340555d67e9d1df712a45","6790928bebf0b969fc839b02","679826202b2114cc04234446","passed","","856","","","","","","","","","","","","","","f","yesOrNo","","","","6","","","gt","1000","","61","479.9211431702998","330.87"
"","","","","","html-keyboard-response","185","422441","0.0-20.0-0.13","668340555d67e9d1df712a45","6790928bebf0b969fc839b02","679826202b2114cc04234446","passed","","","","","","","","","","","","","","","","","ballFalling","604.4000000000001","575.4211431702997","266.76","12","fallScene","false","","","","62","",""
"","","","","","html-keyboard-response","186","423444","0.0-20.0-1.13","668340555d67e9d1df712a45","6790928bebf0b969fc839b02","679826202b2114cc04234446","passed","","794","","","","","","","","","","","","","","j","yesOrNo","","","","12","","","mid","1000","","62","536.4288568297004","300"
"","","","","","html-keyboard-response","187","425007","0.0-20.0-0.14","668340555d67e9d1df712a45","6790928bebf0b969fc839b02","679826202b2114cc04234446","passed","","","","","","","","","","","","","","","","","ballFalling","322.3","356.42114317029973","357.87","4","fallScene","false","","","","63","",""
"","","","","","html-keyboard-response","188","426009","0.0-20.0-1.14","668340555d67e9d1df712a45","6790928bebf0b969fc839b02","679826202b2114cc04234446","passed","","874","","","","","","","","","","","","","","f","yesOrNo","","","","4","","","lp","1000","","63","323.3","297.4070551689986"
"","","","","","html-keyboard-response","189","427578","0.0-20.0-0.15","668340555d67e9d1df712a45","6790928bebf0b969fc839b02","679826202b2114cc04234446","passed","","","","","","","","","","","","","","","","","ballFalling","322.3","296.07114317029976","371.46","3","fallScene","true","","","","64","",""
"","","","","","html-keyboard-response","190","428580","0.0-20.0-1.15","668340555d67e9d1df712a45","6790928bebf0b969fc839b02","679826202b2114cc04234446","passed","","null","","","","","","","","","","","","","","null","yesOrNo","","","","3","","","lp","1000","","64","321.3","287.3327096511259"
"","","","","","html-keyboard-response","191","430373","0.0-20.0-0.16","668340555d67e9d1df712a45","6790928bebf0b969fc839b02","679826202b2114cc04234446","passed","","","","","","","","","","","","","","","","","ballFalling","322.3","308.07114317029976","253.89","2","fallScene","true","","","","65","",""
"","","","","","html-keyboard-response","192","431374","0.0-20.0-1.16","668340555d67e9d1df712a45","6790928bebf0b969fc839b02","679826202b2114cc04234446","passed","","849","","","","","","","","","","","","","","j","yesOrNo","","","","2","","","gt","1000","","65","308.07114317029976","253.89"
"","","","","","html-keyboard-response","193","432873","0.0-20.0-0.17","668340555d67e9d1df712a45","6790928bebf0b969fc839b02","679826202b2114cc04234446","passed","","","","","","","","","","","","","","","","","ballFalling","604.4000000000001","667.6211431702998","201.78","9","fallScene","false","","","","66","",""
"","","","","","html-keyboard-response","194","433875","0.0-20.0-1.17","668340555d67e9d1df712a45","6790928bebf0b969fc839b02","679826202b2114cc04234446","passed","","555","","","","","","","","","","","","","","f","yesOrNo","","","","9","","","lp","1000","","66","605.4000000000001","151"
"","","","","","html-keyboard-response","195","435888","0.0-20.0-0.18","668340555d67e9d1df712a45","6790928bebf0b969fc839b02","679826202b2114cc04234446","passed","","","","","","","","","","","","","","","","","ballFalling","604.4000000000001","596.8711431702998","394.5","10","fallScene","true","","","","67","",""
"","","","","","html-keyboard-response","196","436891","0.0-20.0-1.18","668340555d67e9d1df712a45","6790928bebf0b969fc839b02","679826202b2114cc04234446","passed","","813","","","","","","","","","","","","","","f","yesOrNo","","","","10","","","lp","1000","","67","603.4000000000001","215.50214355555383"
"","","","","","html-keyboard-response","197","438455","0.0-20.0-0.19","668340555d67e9d1df712a45","6790928bebf0b969fc839b02","679826202b2114cc04234446","passed","","","","","","","","","","","","","","","","","ballFalling","322.3","379.3711431702997","245.25","1","fallScene","false","","","","68","",""
"","","","","","html-keyboard-response","198","439457","0.0-20.0-1.19","668340555d67e9d1df712a45","6790928bebf0b969fc839b02","679826202b2114cc04234446","passed","","883","","","","","","","","","","","","","","f","yesOrNo","","","","1","","","lp","1000","","68","323.3","217.74551669457017"
"","","","","","html-keyboard-response","199","441022","0.0-20.0-0.20","668340555d67e9d1df712a45","6790928bebf0b969fc839b02","679826202b2114cc04234446","passed","","","","","","","","","","","","","","","","","ballFalling","604.4000000000001","650.0211431702996","404.58000000000004","11","fallScene","true","","","","69","",""
"","","","","","html-keyboard-response","200","442024","0.0-20.0-1.20","668340555d67e9d1df712a45","6790928bebf0b969fc839b02","679826202b2114cc04234446","passed","","823","","","","","","","","","","","","","","f","yesOrNo","","","","11","","","mid","1000","","69","605.4000000000001","300"
"","","","","","html-keyboard-response","201","443523","0.0-20.0-0.21","668340555d67e9d1df712a45","6790928bebf0b969fc839b02","679826202b2114cc04234446","passed","","","","","","","","","","","","","","","","","ballFalling","604.4000000000001","667.6211431702998","201.78","9","fallScene","false","","","","70","",""
"","","","","","html-keyboard-response","202","444524","0.0-20.0-1.21","668340555d67e9d1df712a45","6790928bebf0b969fc839b02","679826202b2114cc04234446","passed","","null","","","","","","","","","","","","","","null","yesOrNo","","","","9","","","mid","1000","","70","605.4000000000001","300"
"","","","","","html-keyboard-response","203","446090","0.0-20.0-0.22","668340555d67e9d1df712a45","6790928bebf0b969fc839b02","679826202b2114cc04234446","passed","","","","","","","","","","","","","","","","","ballFalling","322.3","356.42114317029973","357.87","4","fallScene","false","","","","71","",""
"","","","","","html-keyboard-response","204","447091","0.0-20.0-1.22","668340555d67e9d1df712a45","6790928bebf0b969fc839b02","679826202b2114cc04234446","passed","","894","","","","","","","","","","","","","","j","yesOrNo","","","","4","","","mid","1000","","71","390.27114317029975","300"
"","","","","","html-keyboard-response","205","449107","0.0-20.0-0.23","668340555d67e9d1df712a45","6790928bebf0b969fc839b02","679826202b2114cc04234446","passed","","","","","","","","","","","","","","","","","ballFalling","500","510.8711431702997","369.03","8","fallScene","true","","","","72","",""
"","","","","","html-keyboard-response","206","450109","0.0-20.0-1.23","668340555d67e9d1df712a45","6790928bebf0b969fc839b02","679826202b2114cc04234446","passed","","862","","","","","","","","","","","","","","f","yesOrNo","","","","8","","","gt","1000","","72","510.8711431702997","369.03"
"","","","","","html-keyboard-response","207","451067","0.0-21.0","668340555d67e9d1df712a45","6790928bebf0b969fc839b02","679826202b2114cc04234446","passed","","958","","","","","","","","","","","","","<p><span style=""font-size:40px;"">BLOCK 4</span></p><p><span style=""font-size:25px;"">You have <b style=""color: #FF644F;""><strong>1 second(s)</strong></b> to respond to the following trials.</span><br></p><p></p> <!-- Blank line -->
                <p id=""blinking-text"" style=""font-weight; animation: blink 2s infinite;"">Press Space to continue</p>
                <style>
                    @keyframes blink {
                        50% {
                            opacity: 0;
                        }
                    }
                </style></p>"," ","","","","","","","","","","","","",""
"","","","","","html-keyboard-response","208","452624","0.0-22.0-0.0","668340555d67e9d1df712a45","6790928bebf0b969fc839b02","679826202b2114cc04234446","passed","","","","","","","","","","","","","","","","","ballFalling","322.3","379.3711431702997","245.25","1","fallScene","true","","","","73","",""
"","","","","","html-keyboard-response","209","453627","0.0-22.0-1.0","668340555d67e9d1df712a45","6790928bebf0b969fc839b02","679826202b2114cc04234446","passed","","null","","","","","","","","","","","","","","null","yesOrNo","","","","1","","","gt","1000","","73","379.3711431702997","245.25"
"","","","","","html-keyboard-response","210","455291","0.0-22.0-0.1","668340555d67e9d1df712a45","6790928bebf0b969fc839b02","679826202b2114cc04234446","passed","","","","","","","","","","","","","","","","","ballFalling","500","479.92114317029973","330.87","6","fallScene","false","","","","74","",""
"","","","","","html-keyboard-response","211","456294","0.0-22.0-1.1","668340555d67e9d1df712a45","6790928bebf0b969fc839b02","679826202b2114cc04234446","passed","","577","","","","","","","","","","","","","","j","yesOrNo","","","","6","","","mid","1000","","74","499","300"
"","","","","","html-keyboard-response","212","457859","0.0-22.0-0.2","668340555d67e9d1df712a45","6790928bebf0b969fc839b02","679826202b2114cc04234446","passed","","","","","","","","","","","","","","","","","ballFalling","604.4000000000001","575.4211431702997","266.76","12","fallScene","true","","","","75","",""
"","","","","","html-keyboard-response","213","458861","0.0-22.0-1.2","668340555d67e9d1df712a45","6790928bebf0b969fc839b02","679826202b2114cc04234446","passed","","650","","","","","","","","","","","","","","f","yesOrNo","","","","12","","","lp","1000","","75","603.4000000000001","151"
"","","","","","html-keyboard-response","214","460426","0.0-22.0-0.3","668340555d67e9d1df712a45","6790928bebf0b969fc839b02","679826202b2114cc04234446","passed","","","","","","","","","","","","","","","","","ballFalling","500","453.67114317029973","210.33","5","fallScene","false","","","","76","",""
"","","","","","html-keyboard-response","215","461427","0.0-22.0-1.3","668340555d67e9d1df712a45","6790928bebf0b969fc839b02","679826202b2114cc04234446","passed","","621","","","","","","","","","","","","","","j","yesOrNo","","","","5","","","mid","1000","","76","499","300"
"","","","","","html-keyboard-response","216","463226","0.0-22.0-0.4","668340555d67e9d1df712a45","6790928bebf0b969fc839b02","679826202b2114cc04234446","passed","","","","","","","","","","","","","","","","","ballFalling","322.3","308.07114317029976","253.89","2","fallScene","true","","","","77","",""
"","","","","","html-keyboard-response","217","464229","0.0-22.0-1.4","668340555d67e9d1df712a45","6790928bebf0b969fc839b02","679826202b2114cc04234446","passed","","860","","","","","","","","","","","","","","f","yesOrNo","","","","2","","","lp","1000","","77","321.3","151"
"","","","","","html-keyboard-response","218","466244","0.0-22.0-0.5","668340555d67e9d1df712a45","6790928bebf0b969fc839b02","679826202b2114cc04234446","passed","","","","","","","","","","","","","","","","","ballFalling","500","510.8711431702997","369.03","8","fallScene","true","","","","78","",""
"","","","","","html-keyboard-response","219","467246","0.0-22.0-1.5","668340555d67e9d1df712a45","6790928bebf0b969fc839b02","679826202b2114cc04234446","passed","","761","","","","","","","","","","","","","","j","yesOrNo","","","","8","","","mid","1000","","78","501","300"
"","","","","","html-keyboard-response","220","469044","0.0-22.0-0.6","668340555d67e9d1df712a45","6790928bebf0b969fc839b02","679826202b2114cc04234446","passed","","","","","","","","","","","","","","","","","ballFalling","322.3","308.07114317029976","253.89","2","fallScene","false","","","","79","",""
"","","","","","html-keyboard-response","221","470046","0.0-22.0-1.6","668340555d67e9d1df712a45","6790928bebf0b969fc839b02","679826202b2114cc04234446","passed","","499","","","","","","","","","","","","","","j","yesOrNo","","","","2","","","mid","1000","","79","321.3","300"
"","","","","","html-keyboard-response","222","471610","0.0-22.0-0.7","668340555d67e9d1df712a45","6790928bebf0b969fc839b02","679826202b2114cc04234446","passed","","","","","","","","","","","","","","","","","ballFalling","500","453.67114317029973","210.33","5","fallScene","false","","","","80","",""
"","","","","","html-keyboard-response","223","472613","0.0-22.0-1.7","668340555d67e9d1df712a45","6790928bebf0b969fc839b02","679826202b2114cc04234446","passed","","894","","","","","","","","","","","","","","j","yesOrNo","","","","5","","","gt","1000","","80","453.6711431702998","210.33"
"","","","","","html-keyboard-response","224","474411","0.0-22.0-0.8","668340555d67e9d1df712a45","6790928bebf0b969fc839b02","679826202b2114cc04234446","passed","","","","","","","","","","","","","","","","","ballFalling","322.3","308.07114317029976","253.89","2","fallScene","false","","","","81","",""
"","","","","","html-keyboard-response","225","475413","0.0-22.0-1.8","668340555d67e9d1df712a45","6790928bebf0b969fc839b02","679826202b2114cc04234446","passed","","502","","","","","","","","","","","","","","j","yesOrNo","","","","2","","","mid","1000","","81","321.3","300"
"","","","","","html-keyboard-response","226","476978","0.0-22.0-0.9","668340555d67e9d1df712a45","6790928bebf0b969fc839b02","679826202b2114cc04234446","passed","","","","","","","","","","","","","","","","","ballFalling","322.3","379.3711431702997","245.25","1","fallScene","false","","","","82","",""
"","","","","","html-keyboard-response","227","477980","0.0-22.0-1.9","668340555d67e9d1df712a45","6790928bebf0b969fc839b02","679826202b2114cc04234446","passed","","625","","","","","","","","","","","","","","j","yesOrNo","","","","1","","","mid","1000","","82","390.27114317029975","300"
"","","","","","html-keyboard-response","228","479545","0.0-22.0-0.10","668340555d67e9d1df712a45","6790928bebf0b969fc839b02","679826202b2114cc04234446","passed","","","","","","","","","","","","","","","","","ballFalling","500","453.67114317029973","210.33","5","fallScene","true","","","","83","",""
"","","","","","html-keyboard-response","229","480547","0.0-22.0-1.10","668340555d67e9d1df712a45","6790928bebf0b969fc839b02","679826202b2114cc04234446","passed","","743","","","","","","","","","","","","","","f","yesOrNo","","","","5","","","lp","1000","","83","499","151"
"","","","","","html-keyboard-response","230","482112","0.0-22.0-0.11","668340555d67e9d1df712a45","6790928bebf0b969fc839b02","679826202b2114cc04234446","passed","","","","","","","","","","","","","","","","","ballFalling","322.3","296.07114317029976","371.46","3","fallScene","false","","","","84","",""
"","","","","","html-keyboard-response","231","483114","0.0-22.0-1.11","668340555d67e9d1df712a45","6790928bebf0b969fc839b02","679826202b2114cc04234446","passed","","920","","","","","","","","","","","","","","f","yesOrNo","","","","3","","","mid","1000","","84","321.3","300"
"","","","","","html-keyboard-response","232","484696","0.0-22.0-0.12","668340555d67e9d1df712a45","6790928bebf0b969fc839b02","679826202b2114cc04234446","passed","","","","","","","","","","","","","","","","","ballFalling","500","553.4711431702997","282.51","7","fallScene","true","","","","85","",""
"","","","","","html-keyboard-response","233","485699","0.0-22.0-1.12","668340555d67e9d1df712a45","6790928bebf0b969fc839b02","679826202b2114cc04234446","passed","","590","","","","","","","","","","","","","","j","yesOrNo","","","","7","","","gt","1000","","85","553.4711431702997","282.51"
"","","","","","html-keyboard-response","234","487713","0.0-22.0-0.13","668340555d67e9d1df712a45","6790928bebf0b969fc839b02","679826202b2114cc04234446","passed","","","","","","","","","","","","","","","","","ballFalling","604.4000000000001","596.8711431702998","394.5","10","fallScene","true","","","","86","",""
"","","","","","html-keyboard-response","235","488715","0.0-22.0-1.13","668340555d67e9d1df712a45","6790928bebf0b969fc839b02","679826202b2114cc04234446","passed","","881","","","","","","","","","","","","","","f","yesOrNo","","","","10","","","mid","1000","","86","536.4288568297004","300"
"","","","","","html-keyboard-response","236","490729","0.0-22.0-0.14","668340555d67e9d1df712a45","6790928bebf0b969fc839b02","679826202b2114cc04234446","passed","","","","","","","","","","","","","","","","","ballFalling","500","510.8711431702997","369.03","8","fallScene","false","","","","87","",""
"","","","","","html-keyboard-response","237","491731","0.0-22.0-1.14","668340555d67e9d1df712a45","6790928bebf0b969fc839b02","679826202b2114cc04234446","passed","","652","","","","","","","","","","","","","","j","yesOrNo","","","","8","","","lp","1000","","87","501","151"
"","","","","","html-keyboard-response","238","493296","0.0-22.0-0.15","668340555d67e9d1df712a45","6790928bebf0b969fc839b02","679826202b2114cc04234446","passed","","","","","","","","","","","","","","","","","ballFalling","322.3","356.42114317029973","357.87","4","fallScene","false","","","","88","",""
"","","","","","html-keyboard-response","239","494298","0.0-22.0-1.15","668340555d67e9d1df712a45","6790928bebf0b969fc839b02","679826202b2114cc04234446","passed","","826","","","","","","","","","","","","","","f","yesOrNo","","","","4","","","gt","1000","","88","356.42114317029973","357.87"
"","","","","","html-keyboard-response","240","495880","0.0-22.0-0.16","668340555d67e9d1df712a45","6790928bebf0b969fc839b02","679826202b2114cc04234446","passed","","","","","","","","","","","","","","","","","ballFalling","500","553.4711431702997","282.51","7","fallScene","true","","","","89","",""
"","","","","","html-keyboard-response","241","496882","0.0-22.0-1.16","668340555d67e9d1df712a45","6790928bebf0b969fc839b02","679826202b2114cc04234446","passed","","981","","","","","","","","","","","","","","f","yesOrNo","","","","7","","","mid","1000","","89","501","300"
"","","","","","html-keyboard-response","242","498447","0.0-22.0-0.17","668340555d67e9d1df712a45","6790928bebf0b969fc839b02","679826202b2114cc04234446","passed","","","","","","","","","","","","","","","","","ballFalling","604.4000000000001","575.4211431702997","266.76","12","fallScene","false","","","","90","",""
"","","","","","html-keyboard-response","243","499450","0.0-22.0-1.17","668340555d67e9d1df712a45","6790928bebf0b969fc839b02","679826202b2114cc04234446","passed","","471","","","","","","","","","","","","","","j","yesOrNo","","","","12","","","gt","1000","","90","575.4211431702997","266.76"
"","","","","","html-keyboard-response","244","501014","0.0-22.0-0.18","668340555d67e9d1df712a45","6790928bebf0b969fc839b02","679826202b2114cc04234446","passed","","","","","","","","","","","","","","","","","ballFalling","322.3","296.07114317029976","371.46","3","fallScene","true","","","","91","",""
"","","","","","html-keyboard-response","245","502016","0.0-22.0-1.18","668340555d67e9d1df712a45","6790928bebf0b969fc839b02","679826202b2114cc04234446","passed","","454","","","","","","","","","","","","","","j","yesOrNo","","","","3","","","gt","1000","","91","296.07114317029976","371.46"
"","","","","","html-keyboard-response","246","503681","0.0-22.0-0.19","668340555d67e9d1df712a45","6790928bebf0b969fc839b02","679826202b2114cc04234446","passed","","","","","","","","","","","","","","","","","ballFalling","500","479.92114317029973","330.87","6","fallScene","false","","","","92","",""
"","","","","","html-keyboard-response","247","504683","0.0-22.0-1.19","668340555d67e9d1df712a45","6790928bebf0b969fc839b02","679826202b2114cc04234446","passed","","842","","","","","","","","","","","","","","f","yesOrNo","","","","6","","","mid","1000","","92","499","300"
"","","","","","html-keyboard-response","248","506248","0.0-22.0-0.20","668340555d67e9d1df712a45","6790928bebf0b969fc839b02","679826202b2114cc04234446","passed","","","","","","","","","","","","","","","","","ballFalling","322.3","296.07114317029976","371.46","3","fallScene","true","","","","93","",""
"","","","","","html-keyboard-response","249","507250","0.0-22.0-1.20","668340555d67e9d1df712a45","6790928bebf0b969fc839b02","679826202b2114cc04234446","passed","","769","","","","","","","","","","","","","","f","yesOrNo","","","","3","","","mid","1000","","93","321.3","300"
"","","","","","html-keyboard-response","250","508815","0.0-22.0-0.21","668340555d67e9d1df712a45","6790928bebf0b969fc839b02","679826202b2114cc04234446","passed","","","","","","","","","","","","","","","","","ballFalling","322.3","356.42114317029973","357.87","4","fallScene","false","","","","94","",""
"","","","","","html-keyboard-response","251","509817","0.0-22.0-1.21","668340555d67e9d1df712a45","6790928bebf0b969fc839b02","679826202b2114cc04234446","passed","","980","","","","","","","","","","","","","","j","yesOrNo","","","","4","","","mid","1000","","94","390.27114317029975","300"
"","","","","","html-keyboard-response","252","511382","0.0-22.0-0.22","668340555d67e9d1df712a45","6790928bebf0b969fc839b02","679826202b2114cc04234446","passed","","","","","","","","","","","","","","","","","ballFalling","500","453.67114317029973","210.33","5","fallScene","false","","","","95","",""
"","","","","","html-keyboard-response","253","512384","0.0-22.0-1.22","668340555d67e9d1df712a45","6790928bebf0b969fc839b02","679826202b2114cc04234446","passed","","912","","","","","","","","","","","","","","f","yesOrNo","","","","5","","","mid","1000","","95","499","300"
"","","","","","html-keyboard-response","254","514048","0.0-22.0-0.23","668340555d67e9d1df712a45","6790928bebf0b969fc839b02","679826202b2114cc04234446","passed","","","","","","","","","","","","","","","","","ballFalling","500","479.92114317029973","330.87","6","fallScene","true","","","","96","",""
"","","","","","html-keyboard-response","255","515051","0.0-22.0-1.23","668340555d67e9d1df712a45","6790928bebf0b969fc839b02","679826202b2114cc04234446","passed","","805","","","","","","","","","","","","","","f","yesOrNo","","","","6","","","lp","1000","","96","499","189.92909825697632"
"","","","","","html-keyboard-response","256","515814","0.0-23.0","668340555d67e9d1df712a45","6790928bebf0b969fc839b02","679826202b2114cc04234446","passed","","763","","","","","","","","","","","","","<p><span style=""font-size:40px;"">BLOCK 5</span></p><p><span style=""font-size:25px;"">You have <b style=""color: #FF644F;""><strong>3 second(s)</strong></b> to respond to the following trials.</span><br></p><p></p> <!-- Blank line -->
                <p id=""blinking-text"" style=""font-weight; animation: blink 2s infinite;"">Press Space to continue</p>
                <style>
                    @keyframes blink {
                        50% {
                            opacity: 0;
                        }
                    }
                </style></p>"," ","","","","","","","","","","","","",""
"","","","","","html-keyboard-response","257","517365","0.0-24.0-0.0","668340555d67e9d1df712a45","6790928bebf0b969fc839b02","679826202b2114cc04234446","passed","","","","","","","","","","","","","","","","","ballFalling","322.3","356.42114317029973","357.87","4","fallScene","false","","","","97","",""
"","","","","","html-keyboard-response","258","520367","0.0-24.0-1.0","668340555d67e9d1df712a45","6790928bebf0b969fc839b02","679826202b2114cc04234446","passed","","606","","","","","","","","","","","","","","j","yesOrNo","","","","4","","","gt","3000","","97","356.42114317029973","357.87"
"","","","","","html-keyboard-response","259","521932","0.0-24.0-0.1","668340555d67e9d1df712a45","6790928bebf0b969fc839b02","679826202b2114cc04234446","passed","","","","","","","","","","","","","","","","","ballFalling","604.4000000000001","650.0211431702996","404.58000000000004","11","fallScene","false","","","","98","",""
"","","","","","html-keyboard-response","260","524934","0.0-24.0-1.1","668340555d67e9d1df712a45","6790928bebf0b969fc839b02","679826202b2114cc04234446","passed","","729","","","","","","","","","","","","","","f","yesOrNo","","","","11","","","gt","3000","","98","650.0211431702996","404.58"
"","","","","","html-keyboard-response","261","526499","0.0-24.0-0.2","668340555d67e9d1df712a45","6790928bebf0b969fc839b02","679826202b2114cc04234446","passed","","","","","","","","","","","","","","","","","ballFalling","322.3","296.07114317029976","371.46","3","fallScene","true","","","","99","",""
"","","","","","html-keyboard-response","262","529501","0.0-24.0-1.2","668340555d67e9d1df712a45","6790928bebf0b969fc839b02","679826202b2114cc04234446","passed","","1347","","","","","","","","","","","","","","f","yesOrNo","","","","3","","","lp","3000","","99","321.3","287.3327096511259"
"","","","","","html-keyboard-response","263","531083","0.0-24.0-0.3","668340555d67e9d1df712a45","6790928bebf0b969fc839b02","679826202b2114cc04234446","passed","","","","","","","","","","","","","","","","","ballFalling","500","553.4711431702997","282.51","7","fallScene","true","","","","100","",""
"","","","","","html-keyboard-response","264","534084","0.0-24.0-1.3","668340555d67e9d1df712a45","6790928bebf0b969fc839b02","679826202b2114cc04234446","passed","","956","","","","","","","","","","","","","","j","yesOrNo","","","","7","","","lp","3000","","100","501","227.2843295913261"
"","","","","","html-keyboard-response","265","535649","0.0-24.0-0.4","668340555d67e9d1df712a45","6790928bebf0b969fc839b02","679826202b2114cc04234446","passed","","","","","","","","","","","","","","","","","ballFalling","322.3","356.42114317029973","357.87","4","fallScene","false","","","","101","",""
"","","","","","html-keyboard-response","266","538651","0.0-24.0-1.4","668340555d67e9d1df712a45","6790928bebf0b969fc839b02","679826202b2114cc04234446","passed","","795","","","","","","","","","","","","","","f","yesOrNo","","","","4","","","gt","3000","","101","356.42114317029973","357.87"
"","","","","","html-keyboard-response","267","540216","0.0-24.0-0.5","668340555d67e9d1df712a45","6790928bebf0b969fc839b02","679826202b2114cc04234446","passed","","","","","","","","","","","","","","","","","ballFalling","604.4000000000001","650.0211431702996","404.58000000000004","11","fallScene","false","","","","102","",""
"","","","","","html-keyboard-response","268","543218","0.0-24.0-1.5","668340555d67e9d1df712a45","6790928bebf0b969fc839b02","679826202b2114cc04234446","passed","","1009","","","","","","","","","","","","","","f","yesOrNo","","","","11","","","mid","3000","","102","605.4000000000001","300"
"","","","","","html-keyboard-response","269","544716","0.0-24.0-0.6","668340555d67e9d1df712a45","6790928bebf0b969fc839b02","679826202b2114cc04234446","passed","","","","","","","","","","","","","","","","","ballFalling","604.4000000000001","667.6211431702998","201.78","9","fallScene","false","","","","103","",""
"","","","","","html-keyboard-response","270","547718","0.0-24.0-1.6","668340555d67e9d1df712a45","6790928bebf0b969fc839b02","679826202b2114cc04234446","passed","","1713","","","","","","","","","","","","","","j","yesOrNo","","","","9","","","mid","3000","","103","605.4000000000001","300"
"","","","","","html-keyboard-response","271","549733","0.0-24.0-0.7","668340555d67e9d1df712a45","6790928bebf0b969fc839b02","679826202b2114cc04234446","passed","","","","","","","","","","","","","","","","","ballFalling","500","510.8711431702997","369.03","8","fallScene","true","","","","104","",""
"","","","","","html-keyboard-response","272","552735","0.0-24.0-1.7","668340555d67e9d1df712a45","6790928bebf0b969fc839b02","679826202b2114cc04234446","passed","","1431","","","","","","","","","","","","","","j","yesOrNo","","","","8","","","gt","3000","","104","510.8711431702997","369.03"
"","","","","","html-keyboard-response","273","554750","0.0-24.0-0.8","668340555d67e9d1df712a45","6790928bebf0b969fc839b02","679826202b2114cc04234446","passed","","","","","","","","","","","","","","","","","ballFalling","604.4000000000001","596.8711431702998","394.5","10","fallScene","false","","","","105","",""
"","","","","","html-keyboard-response","274","557752","0.0-24.0-1.8","668340555d67e9d1df712a45","6790928bebf0b969fc839b02","679826202b2114cc04234446","passed","","1109","","","","","","","","","","","","","","j","yesOrNo","","","","10","","","gt","3000","","105","596.8711431702998","394.5"
"","","","","","html-keyboard-response","275","559550","0.0-24.0-0.9","668340555d67e9d1df712a45","6790928bebf0b969fc839b02","679826202b2114cc04234446","passed","","","","","","","","","","","","","","","","","ballFalling","322.3","308.07114317029976","253.89","2","fallScene","false","","","","106","",""
"","","","","","html-keyboard-response","276","562552","0.0-24.0-1.9","668340555d67e9d1df712a45","6790928bebf0b969fc839b02","679826202b2114cc04234446","passed","","657","","","","","","","","","","","","","","j","yesOrNo","","","","2","","","mid","3000","","106","321.3","300"
"","","","","","html-keyboard-response","277","564117","0.0-24.0-0.10","668340555d67e9d1df712a45","6790928bebf0b969fc839b02","679826202b2114cc04234446","passed","","","","","","","","","","","","","","","","","ballFalling","604.4000000000001","575.4211431702997","266.76","12","fallScene","true","","","","107","",""
"","","","","","html-keyboard-response","278","567119","0.0-24.0-1.10","668340555d67e9d1df712a45","6790928bebf0b969fc839b02","679826202b2114cc04234446","passed","","829","","","","","","","","","","","","","","f","yesOrNo","","","","12","","","mid","3000","","107","536.4288568297004","300"
"","","","","","html-keyboard-response","279","568683","0.0-24.0-0.11","668340555d67e9d1df712a45","6790928bebf0b969fc839b02","679826202b2114cc04234446","passed","","","","","","","","","","","","","","","","","ballFalling","322.3","356.42114317029973","357.87","4","fallScene","false","","","","108","",""
"","","","","","html-keyboard-response","280","571685","0.0-24.0-1.11","668340555d67e9d1df712a45","6790928bebf0b969fc839b02","679826202b2114cc04234446","passed","","1143","","","","","","","","","","","","","","j","yesOrNo","","","","4","","","mid","3000","","108","390.27114317029975","300"
"","","","","","html-keyboard-response","281","573483","0.0-24.0-0.12","668340555d67e9d1df712a45","6790928bebf0b969fc839b02","679826202b2114cc04234446","passed","","","","","","","","","","","","","","","","","ballFalling","322.3","308.07114317029976","253.89","2","fallScene","true","","","","109","",""
"","","","","","html-keyboard-response","282","576485","0.0-24.0-1.12","668340555d67e9d1df712a45","6790928bebf0b969fc839b02","679826202b2114cc04234446","passed","","1168","","","","","","","","","","","","","","j","yesOrNo","","","","2","","","lp","3000","","109","321.3","151"
"","","","","","html-keyboard-response","283","578050","0.0-24.0-0.13","668340555d67e9d1df712a45","6790928bebf0b969fc839b02","679826202b2114cc04234446","passed","","","","","","","","","","","","","","","","","ballFalling","322.3","379.3711431702997","245.25","1","fallScene","false","","","","110","",""
"","","","","","html-keyboard-response","284","581052","0.0-24.0-1.13","668340555d67e9d1df712a45","6790928bebf0b969fc839b02","679826202b2114cc04234446","passed","","1221","","","","","","","","","","","","","","f","yesOrNo","","","","1","","","lp","3000","","110","323.3","217.74551669457017"
"","","","","","html-keyboard-response","285","582716","0.0-24.0-0.14","668340555d67e9d1df712a45","6790928bebf0b969fc839b02","679826202b2114cc04234446","passed","","","","","","","","","","","","","","","","","ballFalling","500","479.92114317029973","330.87","6","fallScene","false","","","","111","",""
"","","","","","html-keyboard-response","286","585717","0.0-24.0-1.14","668340555d67e9d1df712a45","6790928bebf0b969fc839b02","679826202b2114cc04234446","passed","","587","","","","","","","","","","","","","","j","yesOrNo","","","","6","","","gt","3000","","111","479.9211431702998","330.87"
"","","","","","html-keyboard-response","287","587283","0.0-24.0-0.15","668340555d67e9d1df712a45","6790928bebf0b969fc839b02","679826202b2114cc04234446","passed","","","","","","","","","","","","","","","","","ballFalling","500","453.67114317029973","210.33","5","fallScene","false","","","","112","",""
"","","","","","html-keyboard-response","288","590285","0.0-24.0-1.15","668340555d67e9d1df712a45","6790928bebf0b969fc839b02","679826202b2114cc04234446","passed","","1187","","","","","","","","","","","","","","f","yesOrNo","","","","5","","","lp","3000","","112","499","151"
"","","","","","html-keyboard-response","289","592299","0.0-24.0-0.16","668340555d67e9d1df712a45","6790928bebf0b969fc839b02","679826202b2114cc04234446","passed","","","","","","","","","","","","","","","","","ballFalling","500","510.8711431702997","369.03","8","fallScene","false","","","","113","",""
"","","","","","html-keyboard-response","290","595301","0.0-24.0-1.16","668340555d67e9d1df712a45","6790928bebf0b969fc839b02","679826202b2114cc04234446","passed","","1396","","","","","","","","","","","","","","j","yesOrNo","","","","8","","","gt","3000","","113","510.8711431702997","369.03"
"","","","","","html-keyboard-response","291","597099","0.0-24.0-0.17","668340555d67e9d1df712a45","6790928bebf0b969fc839b02","679826202b2114cc04234446","passed","","","","","","","","","","","","","","","","","ballFalling","322.3","308.07114317029976","253.89","2","fallScene","true","","","","114","",""
"","","","","","html-keyboard-response","292","600101","0.0-24.0-1.17","668340555d67e9d1df712a45","6790928bebf0b969fc839b02","679826202b2114cc04234446","passed","","1093","","","","","","","","","","","","","","j","yesOrNo","","","","2","","","lp","3000","","114","321.3","151"
"","","","","","html-keyboard-response","293","602116","0.0-24.0-0.18","668340555d67e9d1df712a45","6790928bebf0b969fc839b02","679826202b2114cc04234446","passed","","","","","","","","","","","","","","","","","ballFalling","500","510.8711431702997","369.03","8","fallScene","false","","","","115","",""
"","","","","","html-keyboard-response","294","605118","0.0-24.0-1.18","668340555d67e9d1df712a45","6790928bebf0b969fc839b02","679826202b2114cc04234446","passed","","775","","","","","","","","","","","","","","j","yesOrNo","","","","8","","","mid","3000","","115","501","300"
"","","","","","html-keyboard-response","295","606615","0.0-24.0-0.19","668340555d67e9d1df712a45","6790928bebf0b969fc839b02","679826202b2114cc04234446","passed","","","","","","","","","","","","","","","","","ballFalling","604.4000000000001","667.6211431702998","201.78","9","fallScene","true","","","","116","",""
"","","","","","html-keyboard-response","296","609618","0.0-24.0-1.19","668340555d67e9d1df712a45","6790928bebf0b969fc839b02","679826202b2114cc04234446","passed","","1128","","","","","","","","","","","","","","j","yesOrNo","","","","9","","","lp","3000","","116","605.4000000000001","151"
"","","","","","html-keyboard-response","297","611198","0.0-24.0-0.20","668340555d67e9d1df712a45","6790928bebf0b969fc839b02","679826202b2114cc04234446","passed","","","","","","","","","","","","","","","","","ballFalling","500","553.4711431702997","282.51","7","fallScene","false","","","","117","",""
"","","","","","html-keyboard-response","298","614200","0.0-24.0-1.20","668340555d67e9d1df712a45","6790928bebf0b969fc839b02","679826202b2114cc04234446","passed","","872","","","","","","","","","","","","","","j","yesOrNo","","","","7","","","gt","3000","","117","553.4711431702997","282.51"
"","","","","","html-keyboard-response","299","615764","0.0-24.0-0.21","668340555d67e9d1df712a45","6790928bebf0b969fc839b02","679826202b2114cc04234446","passed","","","","","","","","","","","","","","","","","ballFalling","604.4000000000001","650.0211431702996","404.58000000000004","11","fallScene","true","","","","118","",""
"","","","","","html-keyboard-response","300","618766","0.0-24.0-1.21","668340555d67e9d1df712a45","6790928bebf0b969fc839b02","679826202b2114cc04234446","passed","","800","","","","","","","","","","","","","","j","yesOrNo","","","","11","","","mid","3000","","118","605.4000000000001","300"
"","","","","","html-keyboard-response","301","620331","0.0-24.0-0.22","668340555d67e9d1df712a45","6790928bebf0b969fc839b02","679826202b2114cc04234446","passed","","","","","","","","","","","","","","","","","ballFalling","322.3","379.3711431702997","245.25","1","fallScene","true","","","","119","",""
"","","","","","html-keyboard-response","302","623333","0.0-24.0-1.22","668340555d67e9d1df712a45","6790928bebf0b969fc839b02","679826202b2114cc04234446","passed","","1907","","","","","","","","","","","","","","f","yesOrNo","","","","1","","","mid","3000","","119","390.27114317029975","300"
"","","","","","html-keyboard-response","303","625348","0.0-24.0-0.23","668340555d67e9d1df712a45","6790928bebf0b969fc839b02","679826202b2114cc04234446","passed","","","","","","","","","","","","","","","","","ballFalling","604.4000000000001","596.8711431702998","394.5","10","fallScene","false","","","","120","",""
"","","","","","html-keyboard-response","304","628351","0.0-24.0-1.23","668340555d67e9d1df712a45","6790928bebf0b969fc839b02","679826202b2114cc04234446","passed","","1727","","","","","","","","","","","","","","j","yesOrNo","","","","10","","","gt","3000","","120","596.8711431702998","394.5"
"","","","","","html-keyboard-response","305","629708","0.0-25.0","668340555d67e9d1df712a45","6790928bebf0b969fc839b02","679826202b2114cc04234446","passed","","1357","","","","","","","","","","","","","<p><span style=""font-size:40px;"">BLOCK 6</span></p><p><span style=""font-size:25px;"">You have <b style=""color: #FF644F;""><strong>3 second(s)</strong></b> to respond to the following trials.</span><br></p><p></p> <!-- Blank line -->
                <p id=""blinking-text"" style=""font-weight; animation: blink 2s infinite;"">Press Space to continue</p>
                <style>
                    @keyframes blink {
                        50% {
                            opacity: 0;
                        }
                    }
                </style></p>"," ","","","","","","","","","","","","",""
"","","","","","html-keyboard-response","306","631364","0.0-26.0-0.0","668340555d67e9d1df712a45","6790928bebf0b969fc839b02","679826202b2114cc04234446","passed","","","","","","","","","","","","","","","","","ballFalling","500","479.92114317029973","330.87","6","fallScene","false","","","","121","",""
