"success","timeout","failed_images","failed_audio","failed_video","trial_type","trial_index","time_elapsed","internal_node_id","subject_id","study_id","session_id","practiceTestResult","view_history","rt","width","height","webaudio","browser","browser_version","mobile","os","fullscreen","vsync_rate","webcam","microphone","url","stimulus","response","task","ball_X","obstacle_groundTruth_x","obstacle_groundTruth_y","stimulus_idx","trial_name","flipped","choice","timeLimit","question_order","currentTrial","obstacle_choice_x","obstacle_choice_y"
"true","false","[]","[]","[]","preload","0","603","0.0-0.0","66b91ee649636fce844ef133","6790928bebf0b969fc839b02","679826a3bee717b33834ef95","passed","","","","","","","","","","","","","","","","","","","","","","","","","","","","",""
"","","","","","instructions","1","18733","0.0-1.0","66b91ee649636fce844ef133","6790928bebf0b969fc839b02","679826a3bee717b33834ef95","passed","[{""page_index"":0,""viewing_time"":18127}]","18128","","","","","","","","","","","","","","","","","","","","","","","","","","",""
"","","","","","browser-check","2","19722","0.0-2.0","66b91ee649636fce844ef133","6790928bebf0b969fc839b02","679826a3bee717b33834ef95","passed","","","1280","632","true","chrome","131.0.0","false","Windows 10","true","61.22","true","true","","","","","","","","","","","","","","","",""
"","","","","","external-html","3","27277","0.0-3.0","66b91ee649636fce844ef133","6790928bebf0b969fc839b02","679826a3bee717b33834ef95","passed","","7486","","","","","","","","","","","","consent.html","","","","","","","","","","","","","","",""
"true","","","","","fullscreen","4","108277","0.0-4.0","66b91ee649636fce844ef133","6790928bebf0b969fc839b02","679826a3bee717b33834ef95","passed","","80691","","","","","","","","","","","","","","","","","","","","","","","","","","",""
"","","","","","browser-check","5","109279","0.0-5.0","66b91ee649636fce844ef133","6790928bebf0b969fc839b02","679826a3bee717b33834ef95","passed","","","1280","720","true","chrome","131.0.0","false","Windows 10","true","60.04","true","true","","","","","","","","","","","","","","","",""
"","","","","","html-keyboard-response","6","115078","0.0-6.0","66b91ee649636fce844ef133","6790928bebf0b969fc839b02","679826a3bee717b33834ef95","passed","","5797","","","","","","","","","","","","","<p><b>This experiment requires keyboard input.</b></p> 
        <p><b>To ensure your response will be recorded successfully, please press 'Space' to continue.</b></p>
        <p>If you can't proceed, you won't be able to complete this study.</p>
        <p></p> <!-- Blank line -->
        <p id=""blinking-text"" style=""font-weight; animation: blink 2s infinite;"">Press Space to continue</p>
        <style>
            @keyframes blink {
                50% {
                    opacity: 0;
                }
            }
        </style>"," ","","","","","","","","","","","","",""
"","","","","","html-keyboard-response","7","122559","0.0-7.0","66b91ee649636fce844ef133","6790928bebf0b969fc839b02","679826a3bee717b33834ef95","passed","","7479","","","","","","","","","","","","","<p><b>This experiment requires keyboard input.</b></p> 
        <p><b>To ensure your response will be recorded successfully, please press the 'f' key to continue.</b></p>
        <p>If you can't proceed, you won't be able to complete this study.</p>
        <p></p> <!-- Blank line -->
        <p id=""blinking-text"" style=""font-weight; animation: blink 2s infinite;"">Press f to continue</p>
        <style>
            @keyframes blink {
                50% {
                    opacity: 0;
                }
            }
        </style>","f","","","","","","","","","","","","",""
"","","","","","html-keyboard-response","8","124972","0.0-8.0","66b91ee649636fce844ef133","6790928bebf0b969fc839b02","679826a3bee717b33834ef95","passed","","2412","","","","","","","","","","","","","<p><b>This experiment requires keyboard input.</b></p> 
        <p><b>To ensure your response will be recorded successfully, please press the 'j' key to continue.</b></p>
        <p>If you can't proceed, you won't be able to complete this study.</p>
        <p></p> <!-- Blank line -->
        <p id=""blinking-text"" style=""font-weight; animation: blink 2s infinite;"">Press j to continue</p>
        <style>
            @keyframes blink {
                50% {
                    opacity: 0;
                }
            }
        </style>","j","","","","","","","","","","","","",""
"","","","","","browser-check","9","125988","0.0-9.0","66b91ee649636fce844ef133","6790928bebf0b969fc839b02","679826a3bee717b33834ef95","passed","","","1280","720","true","chrome","131.0.0","false","Windows 10","true","60.02","true","true","","","","","","","","","","","","","","","",""
"","","","","","survey-text","10","133136","0.0-10.0","66b91ee649636fce844ef133","6790928bebf0b969fc839b02","679826a3bee717b33834ef95","passed","","7141","","","","","","","","","","","","","","{""prolificID"":""66b91ee649636fce844ef133""}","","","","","","","","","","","","",""
"","","","","","instructions","11","220707","0.0-11.0-0.0-0.0","66b91ee649636fce844ef133","6790928bebf0b969fc839b02","679826a3bee717b33834ef95","passed","[{""page_index"":0,""viewing_time"":35947},{""page_index"":1,""viewing_time"":4309},{""page_index"":0,""viewing_time"":4825},{""page_index"":1,""viewing_time"":19137},{""page_index"":2,""viewing_time"":13304},{""page_index"":3,""viewing_time"":10049}]","87570","","","","","","","","","","","","","","","","","","","","","","","","","","",""
"","","","","","html-keyboard-response","12","323131","0.0-11.0-0.0-1.0","66b91ee649636fce844ef133","6790928bebf0b969fc839b02","679826a3bee717b33834ef95","passed","","101915","","","","","","","","","","","","","<br>Remember! After a ball falls, the screen will disappear, and you'll decide if the proposed position is where the hidden triangle was. <br>You will now practice this by watching a few videos and making decisions.<p>To respond:<br style=""margin-bottom: 5px; text-indent: -20px; padding-left: 20px;"">- Press <b style=""color: #12AD2B;"">J for Yes</b>, if you think the triangle is in the correct position.<br style=""margin-top: 0; text-indent: -20px; padding-left: 20px;"">- Press <b style=""color: orange;"">F for No</b>, if you think the triangle is not in the correct position.</p><p>In this practice round, there is no time limit. Focus on getting comfortable with the task first.<br>Press either J or F to begin your practice trials.</p><img src = ""YesOrNo_instruction.png"" style=""width: 65%;""></img>","f","","","","","","","","","","","","",""
"","","","","","html-keyboard-response","13","325217","0.0-11.0-0.0-2.0-0.0","66b91ee649636fce844ef133","6790928bebf0b969fc839b02","679826a3bee717b33834ef95","passed","","","","","","","","","","","","","","","","","ballFalling_prac","660","666","350","3","fallScene","false","","","","","",""
"","","","","","html-keyboard-response","14","328160","0.0-11.0-0.0-2.0-1.0","66b91ee649636fce844ef133","6790928bebf0b969fc839b02","679826a3bee717b33834ef95","passed","","2928","","","","","","","","","","","","","","f","yesOrNo_prac_noTimed","","","","3","","","wrong direction","NA","","","",""
"","","","","","html-keyboard-response","15","329714","0.0-11.0-0.0-2.0-0.1","66b91ee649636fce844ef133","6790928bebf0b969fc839b02","679826a3bee717b33834ef95","passed","","","","","","","","","","","","","","","","","ballFalling_prac","416","464","296","1","fallScene","false","","","","","",""
"","","","","","html-keyboard-response","16","330952","0.0-11.0-0.0-2.0-1.1","66b91ee649636fce844ef133","6790928bebf0b969fc839b02","679826a3bee717b33834ef95","passed","","1234","","","","","","","","","","","","","","j","yesOrNo_prac_noTimed","","","","1","","","gt","NA","","","",""
"","","","","","html-keyboard-response","17","332530","0.0-11.0-0.0-2.0-0.2","66b91ee649636fce844ef133","6790928bebf0b969fc839b02","679826a3bee717b33834ef95","passed","","","","","","","","","","","","","","","","","ballFalling_prac","441","414","302","5","fallScene","true","","","","","",""
"","","","","","html-keyboard-response","18","333946","0.0-11.0-0.0-2.0-1.2","66b91ee649636fce844ef133","6790928bebf0b969fc839b02","679826a3bee717b33834ef95","passed","","1412","","","","","","","","","","","","","","j","yesOrNo_prac_noTimed","","","","5","","","close gt","NA","","","",""
"","","","","","instructions","19","382669","0.0-11.0-0.0-3.0","66b91ee649636fce844ef133","6790928bebf0b969fc839b02","679826a3bee717b33834ef95","passed","[{""page_index"":0,""viewing_time"":30114},{""page_index"":1,""viewing_time"":18606}]","48721","","","","","","","","","","","","","","","","","","","","","","","","","","",""
"","","","","","html-button-response","20","389836","0.0-11.0-0.0-4.0","66b91ee649636fce844ef133","6790928bebf0b969fc839b02","679826a3bee717b33834ef95","passed","","6655","","","","","","","","","","","","","<p>To make sure you understood the task, we just have a <b>brief quiz</b> here.</p><p>If you need to review the instructions, click 'Previous'.</p><p>It's important to understand the task to do the study, so you have to pass the quiz to move to the study.</p>","1","","","","","","","","","","","","",""
"","","","","","survey-multi-choice","21","411311","0.0-11.0-1.0-0.0","66b91ee649636fce844ef133","6790928bebf0b969fc839b02","679826a3bee717b33834ef95","passed","","21472","","","","","","","","","","","","","","{""generalProcedure"":""Watch a video of a ball falling, some of it behind a gray screen. After each video, decide if the triangle is at the spot where the ball hit the triangle behind the screen. There is time limit for the response.""}","","","","","","","","","","[0]","","",""
"","","","","","survey-multi-choice","22","416535","0.0-11.0-1.0-1.0","66b91ee649636fce844ef133","6790928bebf0b969fc839b02","679826a3bee717b33834ef95","passed","","5223","","","","","","","","","","","","","","{""checkBallHitObstacle"":""Yes.""}","","","","","","","","","","[0]","","",""
"","","","","","survey-multi-choice","23","422196","0.0-11.0-1.0-2.0","66b91ee649636fce844ef133","6790928bebf0b969fc839b02","679826a3bee717b33834ef95","passed","","5659","","","","","","","","","","","","","","{""checkTriangleVisibility"":""No, the triangle is hidden behind the gray screen.""}","","","","","","","","","","[0]","","",""
"","","","","","survey-multi-choice","24","428239","0.0-11.0-1.0-3.0","66b91ee649636fce844ef133","6790928bebf0b969fc839b02","679826a3bee717b33834ef95","passed","","6042","","","","","","","","","","","","","","{""checkTimedResponse"":""Your response will not be recorded, and the trial will move to the next one.""}","","","","","","","","","","[0]","","",""
"","","","","","survey-multi-choice","25","459678","0.0-11.0-1.0-4.0","66b91ee649636fce844ef133","6790928bebf0b969fc839b02","679826a3bee717b33834ef95","passed","","31437","","","","","","","","","","","","","","{""checkTimeBlockNotice"":""At the beginning of each block.""}","","","","","","","","","","[0]","","",""
"","","","","","survey-multi-choice","26","466693","0.0-11.0-1.0-5.0","66b91ee649636fce844ef133","6790928bebf0b969fc839b02","679826a3bee717b33834ef95","passed","","7013","","","","","","","","","","","","","","{""checkTimeBlockSameness"":""Yes, the time limit is the same for all trials within a block.""}","","","","","","","","","","[0]","","",""
"","","","","","survey-multi-choice","27","508101","0.0-11.0-1.0-6.0","66b91ee649636fce844ef133","6790928bebf0b969fc839b02","679826a3bee717b33834ef95","passed","","41406","","","","","","","","","","","","","","{""checkTrianglePrecision"":""No. The proposed purple triangle is not in the correct position because it doesn't match the location of the white triangle exactly.""}","","","","","","","","","","[0]","","",""
"","","","","","instructions","28","577694","0.0-12.0","66b91ee649636fce844ef133","6790928bebf0b969fc839b02","679826a3bee717b33834ef95","passed","[{""page_index"":0,""viewing_time"":45877},{""page_index"":1,""viewing_time"":10232},{""page_index"":2,""viewing_time"":7490},{""page_index"":3,""viewing_time"":5992}]","69591","","","","","","","","","","","","","","","","","","","","","","","","","","",""
"","","","","","instructions","29","587985","0.0-13.0-0.0","66b91ee649636fce844ef133","6790928bebf0b969fc839b02","679826a3bee717b33834ef95","passed","[{""page_index"":0,""viewing_time"":10289}]","10290","","","","","","","","","","","","","","","","","","","","","","","","","","",""
"","","","","","html-keyboard-response","30","591427","0.0-13.0-1.0","66b91ee649636fce844ef133","6790928bebf0b969fc839b02","679826a3bee717b33834ef95","passed","","3441","","","","","","","","","","","","","<p><span style=""font-size:40px;"">Practice BLOCK 1</span></p><p><span style=""font-size:25px;"">You have <b style=""color: #FF644F;""><strong>3 second(s)</strong></b> to respond to the following trials.</span><br></p><p id=""blinking-text"" style=""font-weight; animation: blink 2s infinite;"">Press Space to continue</p><style>
                    @keyframes blink {
                        50% {
                            opacity: 0;
                        }
                    }
                </style>"," ","","","","","","","","","","","","",""
"","","","","","html-keyboard-response","31","592994","0.0-13.0-2.0-0.0","66b91ee649636fce844ef133","6790928bebf0b969fc839b02","679826a3bee717b33834ef95","passed","","","","","","","","","","","","","","","","","ballFalling_prac","416","464","296","1","fallScene","false","","","","","",""
"","","","","","html-keyboard-response","32","596007","0.0-13.0-2.0-1.0","66b91ee649636fce844ef133","6790928bebf0b969fc839b02","679826a3bee717b33834ef95","passed","","1241","","","","","","","","","","","","","","j","yesOrNo_prac","","","","1","","","far gt","3000","","","",""
"","","","","","html-keyboard-response","33","597575","0.0-13.0-2.0-0.1","66b91ee649636fce844ef133","6790928bebf0b969fc839b02","679826a3bee717b33834ef95","passed","","","","","","","","","","","","","","","","","ballFalling_prac","660","610","263","4","fallScene","false","","","","","",""
"","","","","","html-keyboard-response","34","600588","0.0-13.0-2.0-1.1","66b91ee649636fce844ef133","6790928bebf0b969fc839b02","679826a3bee717b33834ef95","passed","","751","","","","","","","","","","","","","","j","yesOrNo_prac","","","","4","","","gt","3000","","","",""
"","","","","","html-keyboard-response","35","602140","0.0-13.0-2.0-0.2","66b91ee649636fce844ef133","6790928bebf0b969fc839b02","679826a3bee717b33834ef95","passed","","","","","","","","","","","","","","","","","ballFalling_prac","584","536","296","1","fallScene","true","","","","","",""
"","","","","","html-keyboard-response","36","605150","0.0-13.0-2.0-1.2","66b91ee649636fce844ef133","6790928bebf0b969fc839b02","679826a3bee717b33834ef95","passed","","null","","","","","","","","","","","","","","null","yesOrNo_prac","","","","1","","","close gt","3000","","","",""
"","","","","","html-keyboard-response","37","610418","0.0-13.0-3.0","66b91ee649636fce844ef133","6790928bebf0b969fc839b02","679826a3bee717b33834ef95","passed","","5266","","","","","","","","","","","","","<p><span style=""font-size:40px;"">Practice BLOCK 2</span></p><p><span style=""font-size:25px;"">You have <b style=""color: #FF644F;""><strong>1 second(s)</strong></b> to respond to the following trials.</span><br></p><p id=""blinking-text"" style=""font-weight; animation: blink 2s infinite;"">Press Space to continue</p><style>
                    @keyframes blink {
                        50% {
                            opacity: 0;
                        }
                    }
                </style>"," ","","","","","","","","","","","","",""
"","","","","","html-keyboard-response","38","612536","0.0-13.0-4.0-0.0","66b91ee649636fce844ef133","6790928bebf0b969fc839b02","679826a3bee717b33834ef95","passed","","","","","","","","","","","","","","","","","ballFalling_prac","340","334","350","3","fallScene","true","","","","","",""
"","","","","","html-keyboard-response","39","613541","0.0-13.0-4.0-1.0","66b91ee649636fce844ef133","6790928bebf0b969fc839b02","679826a3bee717b33834ef95","passed","","870","","","","","","","","","","","","","","j","yesOrNo_prac","","","","3","","","close gt","1000","","","",""
"","","","","","html-keyboard-response","40","615117","0.0-13.0-4.0-0.1","66b91ee649636fce844ef133","6790928bebf0b969fc839b02","679826a3bee717b33834ef95","passed","","","","","","","","","","","","","","","","","ballFalling_prac","660","610","263","4","fallScene","false","","","","","",""
"","","","","","html-keyboard-response","41","616129","0.0-13.0-4.0-1.1","66b91ee649636fce844ef133","6790928bebf0b969fc839b02","679826a3bee717b33834ef95","passed","","632","","","","","","","","","","","","","","j","yesOrNo_prac","","","","4","","","far gt","1000","","","",""
"","","","","","html-keyboard-response","42","617683","0.0-13.0-4.0-0.2","66b91ee649636fce844ef133","6790928bebf0b969fc839b02","679826a3bee717b33834ef95","passed","","","","","","","","","","","","","","","","","ballFalling_prac","441","500","317","6","fallScene","true","","","","","",""
"","","","","","html-keyboard-response","43","618697","0.0-13.0-4.0-1.2","66b91ee649636fce844ef133","6790928bebf0b969fc839b02","679826a3bee717b33834ef95","passed","","717","","","","","","","","","","","","","","j","yesOrNo_prac","","","","6","","","gt","1000","","","",""
"","","","","","instructions","44","629489","0.0-13.0-5.0","66b91ee649636fce844ef133","6790928bebf0b969fc839b02","679826a3bee717b33834ef95","passed","[{""page_index"":0,""viewing_time"":10789}]","10790","","","","","","","","","","","","","","","","","","","","","","","","","","",""
"","","","","","html-keyboard-response","45","633455","0.0-13.0-6.0","66b91ee649636fce844ef133","6790928bebf0b969fc839b02","679826a3bee717b33834ef95","passed","","3966","","","","","","","","","","","","","<p><span style=""font-size:40px;"">Practice Test BLOCK 1</span></p><p><span style=""font-size:25px;"">You have <b style=""color: #FF644F;""><strong>1 second(s)</strong></b> to respond to the following trials.</span><br></p><p id=""blinking-text"" style=""font-weight; animation: blink 2s infinite;"">Press Space to continue</p><style>
                    @keyframes blink {
                        50% {
                            opacity: 0;
                        }
                    }
                </style>"," ","","","","","","","","","","","","",""
"","","","","","html-keyboard-response","46","635025","0.0-13.0-7.0-0.0","66b91ee649636fce844ef133","6790928bebf0b969fc839b02","679826a3bee717b33834ef95","passed","","","","","","","","","","","","","","","","","ballFalling_prac","559","586","302","5","fallScene","false","","","","","",""
"","","","","","html-keyboard-response","47","636037","0.0-13.0-7.0-1.0","66b91ee649636fce844ef133","6790928bebf0b969fc839b02","679826a3bee717b33834ef95","passed","","625","","","","","","","","","","","","","","j","yesOrNo_prac","","","","5","","","gt","1000","","","",""
"","","","","","html-keyboard-response","48","637608","0.0-13.0-7.0-0.1","66b91ee649636fce844ef133","6790928bebf0b969fc839b02","679826a3bee717b33834ef95","passed","","","","","","","","","","","","","","","","","ballFalling_prac","340","390","263","4","fallScene","true","","","","","",""
"","","","","","html-keyboard-response","49","638622","0.0-13.0-7.0-1.1","66b91ee649636fce844ef133","6790928bebf0b969fc839b02","679826a3bee717b33834ef95","passed","","641","","","","","","","","","","","","","","f","yesOrNo_prac","","","","4","","","far gt","1000","","","",""
"","","","","","html-keyboard-response","50","640172","0.0-13.0-7.0-0.2","66b91ee649636fce844ef133","6790928bebf0b969fc839b02","679826a3bee717b33834ef95","passed","","","","","","","","","","","","","","","","","ballFalling_prac","441","500","317","6","fallScene","true","","","","","",""
"","","","","","html-keyboard-response","51","641188","0.0-13.0-7.0-1.2","66b91ee649636fce844ef133","6790928bebf0b969fc839b02","679826a3bee717b33834ef95","passed","","723","","","","","","","","","","","","","","j","yesOrNo_prac","","","","6","","","close gt","1000","","","",""
"","","","","","html-keyboard-response","52","643535","0.0-13.0-8.0","66b91ee649636fce844ef133","6790928bebf0b969fc839b02","679826a3bee717b33834ef95","passed","","2346","","","","","","","","","","","","","<p><span style=""font-size:40px;"">Practice Test BLOCK 2</span></p><p><span style=""font-size:25px;"">You have <b style=""color: #FF644F;""><strong>3 second(s)</strong></b> to respond to the following trials.</span><br></p><p id=""blinking-text"" style=""font-weight; animation: blink 2s infinite;"">Press Space to continue</p><style>
                    @keyframes blink {
                        50% {
                            opacity: 0;
                        }
                    }
                </style>"," ","","","","","","","","","","","","",""
"","","","","","html-keyboard-response","53","645103","0.0-13.0-9.0-0.0","66b91ee649636fce844ef133","6790928bebf0b969fc839b02","679826a3bee717b33834ef95","passed","","","","","","","","","","","","","","","","","ballFalling_prac","340","390","263","4","fallScene","true","","","","","",""
"","","","","","html-keyboard-response","54","648114","0.0-13.0-9.0-1.0","66b91ee649636fce844ef133","6790928bebf0b969fc839b02","679826a3bee717b33834ef95","passed","","1180","","","","","","","","","","","","","","j","yesOrNo_prac","","","","4","","","close gt","3000","","","",""
"","","","","","html-keyboard-response","55","649685","0.0-13.0-9.0-0.1","66b91ee649636fce844ef133","6790928bebf0b969fc839b02","679826a3bee717b33834ef95","passed","","","","","","","","","","","","","","","","","ballFalling_prac","416","365","249","2","fallScene","false","","","","","",""
"","","","","","html-keyboard-response","56","652690","0.0-13.0-9.0-1.1","66b91ee649636fce844ef133","6790928bebf0b969fc839b02","679826a3bee717b33834ef95","passed","","1030","","","","","","","","","","","","","","j","yesOrNo_prac","","","","2","","","gt","3000","","","",""
"","","","","","html-keyboard-response","57","654266","0.0-13.0-9.0-0.2","66b91ee649636fce844ef133","6790928bebf0b969fc839b02","679826a3bee717b33834ef95","passed","","","","","","","","","","","","","","","","","ballFalling_prac","559","586","302","5","fallScene","false","","","","","",""
"","","","","","html-keyboard-response","58","657279","0.0-13.0-9.0-1.2","66b91ee649636fce844ef133","6790928bebf0b969fc839b02","679826a3bee717b33834ef95","passed","","1136","","","","","","","","","","","","","","f","yesOrNo_prac","","","","5","","","far gt","3000","","","",""
"","","","","","instructions","59","709148","0.0-14.0","66b91ee649636fce844ef133","6790928bebf0b969fc839b02","679826a3bee717b33834ef95","passed","[{""page_index"":0,""viewing_time"":51865}]","51865","","","","","","","","","","","","","","","","","","","","","","","","","","",""
"","","","","","html-keyboard-response","60","712574","0.0-15.0","66b91ee649636fce844ef133","6790928bebf0b969fc839b02","679826a3bee717b33834ef95","passed","","3425","","","","","","","","","","","","","<p><span style=""font-size:40px;"">BLOCK 1</span></p><p><span style=""font-size:25px;"">You have <b style=""color: #FF644F;""><strong>1 second(s)</strong></b> to respond to the following trials.</span><br></p><p></p> <!-- Blank line -->
                <p id=""blinking-text"" style=""font-weight; animation: blink 2s infinite;"">Press Space to continue</p>
                <style>
                    @keyframes blink {
                        50% {
                            opacity: 0;
                        }
                    }
                </style></p>"," ","","","","","","","","","","","","",""
"","","","","","html-keyboard-response","61","714371","0.0-16.0-0.0","66b91ee649636fce844ef133","6790928bebf0b969fc839b02","679826a3bee717b33834ef95","passed","","","","","","","","","","","","","","","","","ballFalling","322.3","308.07114317029976","253.89","2","fallScene","false","","","","1","",""
"","","","","","html-keyboard-response","62","715386","0.0-16.0-1.0","66b91ee649636fce844ef133","6790928bebf0b969fc839b02","679826a3bee717b33834ef95","passed","","886","","","","","","","","","","","","","","f","yesOrNo","","","","2","","","lp","1000","","1","321.3","151"
"","","","","","html-keyboard-response","63","716938","0.0-16.0-0.1","66b91ee649636fce844ef133","6790928bebf0b969fc839b02","679826a3bee717b33834ef95","passed","","","","","","","","","","","","","","","","","ballFalling","604.4000000000001","575.4211431702997","266.76","12","fallScene","true","","","","2","",""
"","","","","","html-keyboard-response","64","717949","0.0-16.0-1.1","66b91ee649636fce844ef133","6790928bebf0b969fc839b02","679826a3bee717b33834ef95","passed","","834","","","","","","","","","","","","","","j","yesOrNo","","","","12","","","lp","1000","","2","603.4000000000001","151"
"","","","","","html-keyboard-response","65","719737","0.0-16.0-0.2","66b91ee649636fce844ef133","6790928bebf0b969fc839b02","679826a3bee717b33834ef95","passed","","","","","","","","","","","","","","","","","ballFalling","322.3","308.07114317029976","253.89","2","fallScene","true","","","","3","",""
"","","","","","html-keyboard-response","66","720749","0.0-16.0-1.2","66b91ee649636fce844ef133","6790928bebf0b969fc839b02","679826a3bee717b33834ef95","passed","","640","","","","","","","","","","","","","","j","yesOrNo","","","","2","","","mid","1000","","3","321.3","300"
"","","","","","html-keyboard-response","67","722302","0.0-16.0-0.3","66b91ee649636fce844ef133","6790928bebf0b969fc839b02","679826a3bee717b33834ef95","passed","","","","","","","","","","","","","","","","","ballFalling","322.3","296.07114317029976","371.46","3","fallScene","true","","","","4","",""
"","","","","","html-keyboard-response","68","723316","0.0-16.0-1.3","66b91ee649636fce844ef133","6790928bebf0b969fc839b02","679826a3bee717b33834ef95","passed","","705","","","","","","","","","","","","","","j","yesOrNo","","","","3","","","lp","1000","","4","321.3","287.3327096511259"
"","","","","","html-keyboard-response","69","724968","0.0-16.0-0.4","66b91ee649636fce844ef133","6790928bebf0b969fc839b02","679826a3bee717b33834ef95","passed","","","","","","","","","","","","","","","","","ballFalling","500","479.92114317029973","330.87","6","fallScene","true","","","","5","",""
"","","","","","html-keyboard-response","70","725981","0.0-16.0-1.4","66b91ee649636fce844ef133","6790928bebf0b969fc839b02","679826a3bee717b33834ef95","passed","","931","","","","","","","","","","","","","","j","yesOrNo","","","","6","","","mid","1000","","5","499","300"
"","","","","","html-keyboard-response","71","727533","0.0-16.0-0.5","66b91ee649636fce844ef133","6790928bebf0b969fc839b02","679826a3bee717b33834ef95","passed","","","","","","","","","","","","","","","","","ballFalling","604.4000000000001","575.4211431702997","266.76","12","fallScene","false","","","","6","",""
"","","","","","html-keyboard-response","72","728547","0.0-16.0-1.5","66b91ee649636fce844ef133","6790928bebf0b969fc839b02","679826a3bee717b33834ef95","passed","","763","","","","","","","","","","","","","","j","yesOrNo","","","","12","","","gt","1000","","6","575.4211431702997","266.76"
"","","","","","html-keyboard-response","73","730098","0.0-16.0-0.6","66b91ee649636fce844ef133","6790928bebf0b969fc839b02","679826a3bee717b33834ef95","passed","","","","","","","","","","","","","","","","","ballFalling","604.4000000000001","650.0211431702996","404.58000000000004","11","fallScene","true","","","","7","",""
"","","","","","html-keyboard-response","74","731103","0.0-16.0-1.6","66b91ee649636fce844ef133","6790928bebf0b969fc839b02","679826a3bee717b33834ef95","passed","","865","","","","","","","","","","","","","","f","yesOrNo","","","","11","","","mid","1000","","7","605.4000000000001","300"
"","","","","","html-keyboard-response","75","733114","0.0-16.0-0.7","66b91ee649636fce844ef133","6790928bebf0b969fc839b02","679826a3bee717b33834ef95","passed","","","","","","","","","","","","","","","","","ballFalling","500","510.8711431702997","369.03","8","fallScene","true","","","","8","",""
"","","","","","html-keyboard-response","76","734121","0.0-16.0-1.7","66b91ee649636fce844ef133","6790928bebf0b969fc839b02","679826a3bee717b33834ef95","passed","","951","","","","","","","","","","","","","","j","yesOrNo","","","","8","","","mid","1000","","8","501","300"
"","","","","","html-keyboard-response","77","735679","0.0-16.0-0.8","66b91ee649636fce844ef133","6790928bebf0b969fc839b02","679826a3bee717b33834ef95","passed","","","","","","","","","","","","","","","","","ballFalling","322.3","356.42114317029973","357.87","4","fallScene","true","","","","9","",""
"","","","","","html-keyboard-response","78","736690","0.0-16.0-1.8","66b91ee649636fce844ef133","6790928bebf0b969fc839b02","679826a3bee717b33834ef95","passed","","753","","","","","","","","","","","","","","f","yesOrNo","","","","4","","","mid","1000","","9","390.27114317029975","300"
"","","","","","html-keyboard-response","79","738478","0.0-16.0-0.9","66b91ee649636fce844ef133","6790928bebf0b969fc839b02","679826a3bee717b33834ef95","passed","","","","","","","","","","","","","","","","","ballFalling","322.3","308.07114317029976","253.89","2","fallScene","false","","","","10","",""
"","","","","","html-keyboard-response","80","739490","0.0-16.0-1.9","66b91ee649636fce844ef133","6790928bebf0b969fc839b02","679826a3bee717b33834ef95","passed","","null","","","","","","","","","","","","","","null","yesOrNo","","","","2","","","lp","1000","","10","321.3","151"
"","","","","","html-keyboard-response","81","741277","0.0-16.0-0.10","66b91ee649636fce844ef133","6790928bebf0b969fc839b02","679826a3bee717b33834ef95","passed","","","","","","","","","","","","","","","","","ballFalling","322.3","308.07114317029976","253.89","2","fallScene","false","","","","11","",""
"","","","","","html-keyboard-response","82","742287","0.0-16.0-1.10","66b91ee649636fce844ef133","6790928bebf0b969fc839b02","679826a3bee717b33834ef95","passed","","947","","","","","","","","","","","","","","f","yesOrNo","","","","2","","","gt","1000","","11","308.07114317029976","253.89"
"","","","","","html-keyboard-response","83","743842","0.0-16.0-0.11","66b91ee649636fce844ef133","6790928bebf0b969fc839b02","679826a3bee717b33834ef95","passed","","","","","","","","","","","","","","","","","ballFalling","322.3","296.07114317029976","371.46","3","fallScene","true","","","","12","",""
"","","","","","html-keyboard-response","84","744856","0.0-16.0-1.11","66b91ee649636fce844ef133","6790928bebf0b969fc839b02","679826a3bee717b33834ef95","passed","","943","","","","","","","","","","","","","","j","yesOrNo","","","","3","","","mid","1000","","12","321.3","300"
"","","","","","html-keyboard-response","85","746408","0.0-16.0-0.12","66b91ee649636fce844ef133","6790928bebf0b969fc839b02","679826a3bee717b33834ef95","passed","","","","","","","","","","","","","","","","","ballFalling","322.3","296.07114317029976","371.46","3","fallScene","true","","","","13","",""
"","","","","","html-keyboard-response","86","747422","0.0-16.0-1.12","66b91ee649636fce844ef133","6790928bebf0b969fc839b02","679826a3bee717b33834ef95","passed","","998","","","","","","","","","","","","","","f","yesOrNo","","","","3","","","lp","1000","","13","321.3","287.3327096511259"
"","","","","","html-keyboard-response","87","748973","0.0-16.0-0.13","66b91ee649636fce844ef133","6790928bebf0b969fc839b02","679826a3bee717b33834ef95","passed","","","","","","","","","","","","","","","","","ballFalling","322.3","356.42114317029973","357.87","4","fallScene","true","","","","14","",""
"","","","","","html-keyboard-response","88","749987","0.0-16.0-1.13","66b91ee649636fce844ef133","6790928bebf0b969fc839b02","679826a3bee717b33834ef95","passed","","null","","","","","","","","","","","","","","null","yesOrNo","","","","4","","","gt","1000","","14","356.42114317029973","357.87"
"","","","","","html-keyboard-response","89","751539","0.0-16.0-0.14","66b91ee649636fce844ef133","6790928bebf0b969fc839b02","679826a3bee717b33834ef95","passed","","","","","","","","","","","","","","","","","ballFalling","322.3","379.3711431702997","245.25","1","fallScene","true","","","","15","",""
"","","","","","html-keyboard-response","90","752550","0.0-16.0-1.14","66b91ee649636fce844ef133","6790928bebf0b969fc839b02","679826a3bee717b33834ef95","passed","","834","","","","","","","","","","","","","","j","yesOrNo","","","","1","","","mid","1000","","15","390.27114317029975","300"
"","","","","","html-keyboard-response","91","754104","0.0-16.0-0.15","66b91ee649636fce844ef133","6790928bebf0b969fc839b02","679826a3bee717b33834ef95","passed","","","","","","","","","","","","","","","","","ballFalling","322.3","379.3711431702997","245.25","1","fallScene","true","","","","16","",""
"","","","","","html-keyboard-response","92","755113","0.0-16.0-1.15","66b91ee649636fce844ef133","6790928bebf0b969fc839b02","679826a3bee717b33834ef95","passed","","559","","","","","","","","","","","","","","j","yesOrNo","","","","1","","","mid","1000","","16","390.27114317029975","300"
"","","","","","html-keyboard-response","93","756669","0.0-16.0-0.16","66b91ee649636fce844ef133","6790928bebf0b969fc839b02","679826a3bee717b33834ef95","passed","","","","","","","","","","","","","","","","","ballFalling","322.3","379.3711431702997","245.25","1","fallScene","false","","","","17","",""
"","","","","","html-keyboard-response","94","757683","0.0-16.0-1.16","66b91ee649636fce844ef133","6790928bebf0b969fc839b02","679826a3bee717b33834ef95","passed","","null","","","","","","","","","","","","","","null","yesOrNo","","","","1","","","gt","1000","","17","379.3711431702997","245.25"
"","","","","","html-keyboard-response","95","759235","0.0-16.0-0.17","66b91ee649636fce844ef133","6790928bebf0b969fc839b02","679826a3bee717b33834ef95","passed","","","","","","","","","","","","","","","","","ballFalling","604.4000000000001","650.0211431702996","404.58000000000004","11","fallScene","true","","","","18","",""
"","","","","","html-keyboard-response","96","760247","0.0-16.0-1.17","66b91ee649636fce844ef133","6790928bebf0b969fc839b02","679826a3bee717b33834ef95","passed","","null","","","","","","","","","","","","","","null","yesOrNo","","","","11","","","gt","1000","","18","650.0211431702996","404.58"
"","","","","","html-keyboard-response","97","761801","0.0-16.0-0.18","66b91ee649636fce844ef133","6790928bebf0b969fc839b02","679826a3bee717b33834ef95","passed","","","","","","","","","","","","","","","","","ballFalling","604.4000000000001","575.4211431702997","266.76","12","fallScene","true","","","","19","",""
"","","","","","html-keyboard-response","98","762805","0.0-16.0-1.18","66b91ee649636fce844ef133","6790928bebf0b969fc839b02","679826a3bee717b33834ef95","passed","","null","","","","","","","","","","","","","","null","yesOrNo","","","","12","","","lp","1000","","19","603.4000000000001","151"
"","","","","","html-keyboard-response","99","764383","0.0-16.0-0.19","66b91ee649636fce844ef133","6790928bebf0b969fc839b02","679826a3bee717b33834ef95","passed","","","","","","","","","","","","","","","","","ballFalling","500","553.4711431702997","282.51","7","fallScene","true","","","","20","",""
"","","","","","html-keyboard-response","100","765396","0.0-16.0-1.19","66b91ee649636fce844ef133","6790928bebf0b969fc839b02","679826a3bee717b33834ef95","passed","","977","","","","","","","","","","","","","","f","yesOrNo","","","","7","","","mid","1000","","20","501","300"
"","","","","","html-keyboard-response","101","766948","0.0-16.0-0.20","66b91ee649636fce844ef133","6790928bebf0b969fc839b02","679826a3bee717b33834ef95","passed","","","","","","","","","","","","","","","","","ballFalling","604.4000000000001","650.0211431702996","404.58000000000004","11","fallScene","false","","","","21","",""
"","","","","","html-keyboard-response","102","767960","0.0-16.0-1.20","66b91ee649636fce844ef133","6790928bebf0b969fc839b02","679826a3bee717b33834ef95","passed","","914","","","","","","","","","","","","","","j","yesOrNo","","","","11","","","lp","1000","","21","605.4000000000001","372.6340973215488"
"","","","","","html-keyboard-response","103","769963","0.0-16.0-0.21","66b91ee649636fce844ef133","6790928bebf0b969fc839b02","679826a3bee717b33834ef95","passed","","","","","","","","","","","","","","","","","ballFalling","604.4000000000001","596.8711431702998","394.5","10","fallScene","false","","","","22","",""
"","","","","","html-keyboard-response","104","770976","0.0-16.0-1.21","66b91ee649636fce844ef133","6790928bebf0b969fc839b02","679826a3bee717b33834ef95","passed","","null","","","","","","","","","","","","","","null","yesOrNo","","","","10","","","mid","1000","","22","536.4288568297004","300"
"","","","","","html-keyboard-response","105","772529","0.0-16.0-0.22","66b91ee649636fce844ef133","6790928bebf0b969fc839b02","679826a3bee717b33834ef95","passed","","","","","","","","","","","","","","","","","ballFalling","322.3","356.42114317029973","357.87","4","fallScene","false","","","","23","",""
"","","","","","html-keyboard-response","106","773538","0.0-16.0-1.22","66b91ee649636fce844ef133","6790928bebf0b969fc839b02","679826a3bee717b33834ef95","passed","","927","","","","","","","","","","","","","","f","yesOrNo","","","","4","","","mid","1000","","23","390.27114317029975","300"
"","","","","","html-keyboard-response","107","775028","0.0-16.0-0.23","66b91ee649636fce844ef133","6790928bebf0b969fc839b02","679826a3bee717b33834ef95","passed","","","","","","","","","","","","","","","","","ballFalling","604.4000000000001","667.6211431702998","201.78","9","fallScene","false","","","","24","",""
"","","","","","html-keyboard-response","108","776042","0.0-16.0-1.23","66b91ee649636fce844ef133","6790928bebf0b969fc839b02","679826a3bee717b33834ef95","passed","","764","","","","","","","","","","","","","","j","yesOrNo","","","","9","","","lp","1000","","24","605.4000000000001","151"
"","","","","","html-keyboard-response","109","779315","0.0-17.0","66b91ee649636fce844ef133","6790928bebf0b969fc839b02","679826a3bee717b33834ef95","passed","","3271","","","","","","","","","","","","","<p><span style=""font-size:40px;"">BLOCK 2</span></p><p><span style=""font-size:25px;"">You have <b style=""color: #FF644F;""><strong>3 second(s)</strong></b> to respond to the following trials.</span><br></p><p></p> <!-- Blank line -->
                <p id=""blinking-text"" style=""font-weight; animation: blink 2s infinite;"">Press Space to continue</p>
                <style>
                    @keyframes blink {
                        50% {
                            opacity: 0;
                        }
                    }
                </style></p>"," ","","","","","","","","","","","","",""
"","","","","","html-keyboard-response","110","781108","0.0-18.0-0.0","66b91ee649636fce844ef133","6790928bebf0b969fc839b02","679826a3bee717b33834ef95","passed","","","","","","","","","","","","","","","","","ballFalling","322.3","308.07114317029976","253.89","2","fallScene","false","","","","25","",""
"","","","","","html-keyboard-response","111","784120","0.0-18.0-1.0","66b91ee649636fce844ef133","6790928bebf0b969fc839b02","679826a3bee717b33834ef95","passed","","1304","","","","","","","","","","","","","","f","yesOrNo","","","","2","","","lp","3000","","25","321.3","151"
"","","","","","html-keyboard-response","112","785673","0.0-18.0-0.1","66b91ee649636fce844ef133","6790928bebf0b969fc839b02","679826a3bee717b33834ef95","passed","","","","","","","","","","","","","","","","","ballFalling","322.3","296.07114317029976","371.46","3","fallScene","false","","","","26","",""
"","","","","","html-keyboard-response","113","788687","0.0-18.0-1.1","66b91ee649636fce844ef133","6790928bebf0b969fc839b02","679826a3bee717b33834ef95","passed","","1736","","","","","","","","","","","","","","f","yesOrNo","","","","3","","","gt","3000","","26","296.07114317029976","371.46"
"","","","","","html-keyboard-response","114","790238","0.0-18.0-0.2","66b91ee649636fce844ef133","6790928bebf0b969fc839b02","679826a3bee717b33834ef95","passed","","","","","","","","","","","","","","","","","ballFalling","322.3","356.42114317029973","357.87","4","fallScene","true","","","","27","",""
"","","","","","html-keyboard-response","115","793251","0.0-18.0-1.2","66b91ee649636fce844ef133","6790928bebf0b969fc839b02","679826a3bee717b33834ef95","passed","","1086","","","","","","","","","","","","","","j","yesOrNo","","","","4","","","mid","3000","","27","390.27114317029975","300"
"","","","","","html-keyboard-response","116","794803","0.0-18.0-0.3","66b91ee649636fce844ef133","6790928bebf0b969fc839b02","679826a3bee717b33834ef95","passed","","","","","","","","","","","","","","","","","ballFalling","604.4000000000001","575.4211431702997","266.76","12","fallScene","false","","","","28","",""
"","","","","","html-keyboard-response","117","797812","0.0-18.0-1.3","66b91ee649636fce844ef133","6790928bebf0b969fc839b02","679826a3bee717b33834ef95","passed","","1066","","","","","","","","","","","","","","j","yesOrNo","","","","12","","","gt","3000","","28","575.4211431702997","266.76"
"","","","","","html-keyboard-response","118","799367","0.0-18.0-0.4","66b91ee649636fce844ef133","6790928bebf0b969fc839b02","679826a3bee717b33834ef95","passed","","","","","","","","","","","","","","","","","ballFalling","604.4000000000001","575.4211431702997","266.76","12","fallScene","false","","","","29","",""
"","","","","","html-keyboard-response","119","802380","0.0-18.0-1.4","66b91ee649636fce844ef133","6790928bebf0b969fc839b02","679826a3bee717b33834ef95","passed","","1713","","","","","","","","","","","","","","j","yesOrNo","","","","12","","","mid","3000","","29","536.4288568297004","300"
"","","","","","html-keyboard-response","120","803931","0.0-18.0-0.5","66b91ee649636fce844ef133","6790928bebf0b969fc839b02","679826a3bee717b33834ef95","passed","","","","","","","","","","","","","","","","","ballFalling","604.4000000000001","575.4211431702997","266.76","12","fallScene","false","","","","30","",""
"","","","","","html-keyboard-response","121","806945","0.0-18.0-1.5","66b91ee649636fce844ef133","6790928bebf0b969fc839b02","679826a3bee717b33834ef95","passed","","2333","","","","","","","","","","","","","","f","yesOrNo","","","","12","","","lp","3000","","30","603.4000000000001","151"
"","","","","","html-keyboard-response","122","808497","0.0-18.0-0.6","66b91ee649636fce844ef133","6790928bebf0b969fc839b02","679826a3bee717b33834ef95","passed","","","","","","","","","","","","","","","","","ballFalling","500","453.67114317029973","210.33","5","fallScene","true","","","","31","",""
"","","","","","html-keyboard-response","123","811507","0.0-18.0-1.6","66b91ee649636fce844ef133","6790928bebf0b969fc839b02","679826a3bee717b33834ef95","passed","","2046","","","","","","","","","","","","","","f","yesOrNo","","","","5","","","lp","3000","","31","499","151"
"","","","","","html-keyboard-response","124","813061","0.0-18.0-0.7","66b91ee649636fce844ef133","6790928bebf0b969fc839b02","679826a3bee717b33834ef95","passed","","","","","","","","","","","","","","","","","ballFalling","500","453.67114317029973","210.33","5","fallScene","true","","","","32","",""
"","","","","","html-keyboard-response","125","816074","0.0-18.0-1.7","66b91ee649636fce844ef133","6790928bebf0b969fc839b02","679826a3bee717b33834ef95","passed","","1184","","","","","","","","","","","","","","j","yesOrNo","","","","5","","","gt","3000","","32","453.6711431702998","210.33"
"","","","","","html-keyboard-response","126","818075","0.0-18.0-0.8","66b91ee649636fce844ef133","6790928bebf0b969fc839b02","679826a3bee717b33834ef95","passed","","","","","","","","","","","","","","","","","ballFalling","604.4000000000001","596.8711431702998","394.5","10","fallScene","false","","","","33","",""
"","","","","","html-keyboard-response","127","821089","0.0-18.0-1.8","66b91ee649636fce844ef133","6790928bebf0b969fc839b02","679826a3bee717b33834ef95","passed","","1481","","","","","","","","","","","","","","j","yesOrNo","","","","10","","","mid","3000","","33","536.4288568297004","300"
"","","","","","html-keyboard-response","128","822640","0.0-18.0-0.9","66b91ee649636fce844ef133","6790928bebf0b969fc839b02","679826a3bee717b33834ef95","passed","","","","","","","","","","","","","","","","","ballFalling","604.4000000000001","575.4211431702997","266.76","12","fallScene","true","","","","34","",""
"","","","","","html-keyboard-response","129","825649","0.0-18.0-1.9","66b91ee649636fce844ef133","6790928bebf0b969fc839b02","679826a3bee717b33834ef95","passed","","1203","","","","","","","","","","","","","","f","yesOrNo","","","","12","","","lp","3000","","34","603.4000000000001","151"
"","","","","","html-keyboard-response","130","827204","0.0-18.0-0.10","66b91ee649636fce844ef133","6790928bebf0b969fc839b02","679826a3bee717b33834ef95","passed","","","","","","","","","","","","","","","","","ballFalling","322.3","356.42114317029973","357.87","4","fallScene","true","","","","35","",""
"","","","","","html-keyboard-response","131","830218","0.0-18.0-1.10","66b91ee649636fce844ef133","6790928bebf0b969fc839b02","679826a3bee717b33834ef95","passed","","1804","","","","","","","","","","","","","","j","yesOrNo","","","","4","","","lp","3000","","35","323.3","297.4070551689986"
"","","","","","html-keyboard-response","132","832219","0.0-18.0-0.11","66b91ee649636fce844ef133","6790928bebf0b969fc839b02","679826a3bee717b33834ef95","passed","","","","","","","","","","","","","","","","","ballFalling","500","510.8711431702997","369.03","8","fallScene","false","","","","36","",""
"","","","","","html-keyboard-response","133","835231","0.0-18.0-1.11","66b91ee649636fce844ef133","6790928bebf0b969fc839b02","679826a3bee717b33834ef95","passed","","1284","","","","","","","","","","","","","","j","yesOrNo","","","","8","","","gt","3000","","36","510.8711431702997","369.03"
"","","","","","html-keyboard-response","134","836717","0.0-18.0-0.12","66b91ee649636fce844ef133","6790928bebf0b969fc839b02","679826a3bee717b33834ef95","passed","","","","","","","","","","","","","","","","","ballFalling","604.4000000000001","667.6211431702998","201.78","9","fallScene","false","","","","37","",""
"","","","","","html-keyboard-response","135","839724","0.0-18.0-1.12","66b91ee649636fce844ef133","6790928bebf0b969fc839b02","679826a3bee717b33834ef95","passed","","1389","","","","","","","","","","","","","","f","yesOrNo","","","","9","","","mid","3000","","37","605.4000000000001","300"
"","","","","","html-keyboard-response","136","841514","0.0-18.0-0.13","66b91ee649636fce844ef133","6790928bebf0b969fc839b02","679826a3bee717b33834ef95","passed","","","","","","","","","","","","","","","","","ballFalling","322.3","308.07114317029976","253.89","2","fallScene","true","","","","38","",""
"","","","","","html-keyboard-response","137","844528","0.0-18.0-1.13","66b91ee649636fce844ef133","6790928bebf0b969fc839b02","679826a3bee717b33834ef95","passed","","1442","","","","","","","","","","","","","","f","yesOrNo","","","","2","","","mid","3000","","38","321.3","300"
"","","","","","html-keyboard-response","138","846079","0.0-18.0-0.14","66b91ee649636fce844ef133","6790928bebf0b969fc839b02","679826a3bee717b33834ef95","passed","","","","","","","","","","","","","","","","","ballFalling","604.4000000000001","575.4211431702997","266.76","12","fallScene","true","","","","39","",""
"","","","","","html-keyboard-response","139","849091","0.0-18.0-1.14","66b91ee649636fce844ef133","6790928bebf0b969fc839b02","679826a3bee717b33834ef95","passed","","1327","","","","","","","","","","","","","","f","yesOrNo","","","","12","","","gt","3000","","39","575.4211431702997","266.76"
"","","","","","html-keyboard-response","140","850744","0.0-18.0-0.15","66b91ee649636fce844ef133","6790928bebf0b969fc839b02","679826a3bee717b33834ef95","passed","","","","","","","","","","","","","","","","","ballFalling","500","479.92114317029973","330.87","6","fallScene","false","","","","40","",""
"","","","","","html-keyboard-response","141","853754","0.0-18.0-1.15","66b91ee649636fce844ef133","6790928bebf0b969fc839b02","679826a3bee717b33834ef95","passed","","1193","","","","","","","","","","","","","","j","yesOrNo","","","","6","","","gt","3000","","40","479.9211431702998","330.87"
"","","","","","html-keyboard-response","142","855324","0.0-18.0-0.16","66b91ee649636fce844ef133","6790928bebf0b969fc839b02","679826a3bee717b33834ef95","passed","","","","","","","","","","","","","","","","","ballFalling","500","553.4711431702997","282.51","7","fallScene","false","","","","41","",""
"","","","","","html-keyboard-response","143","858334","0.0-18.0-1.16","66b91ee649636fce844ef133","6790928bebf0b969fc839b02","679826a3bee717b33834ef95","passed","","930","","","","","","","","","","","","","","j","yesOrNo","","","","7","","","gt","3000","","41","553.4711431702997","282.51"
"","","","","","html-keyboard-response","144","859888","0.0-18.0-0.17","66b91ee649636fce844ef133","6790928bebf0b969fc839b02","679826a3bee717b33834ef95","passed","","","","","","","","","","","","","","","","","ballFalling","322.3","379.3711431702997","245.25","1","fallScene","false","","","","42","",""
"","","","","","html-keyboard-response","145","862900","0.0-18.0-1.17","66b91ee649636fce844ef133","6790928bebf0b969fc839b02","679826a3bee717b33834ef95","passed","","1071","","","","","","","","","","","","","","j","yesOrNo","","","","1","","","gt","3000","","42","379.3711431702997","245.25"
"","","","","","html-keyboard-response","146","864453","0.0-18.0-0.18","66b91ee649636fce844ef133","6790928bebf0b969fc839b02","679826a3bee717b33834ef95","passed","","","","","","","","","","","","","","","","","ballFalling","322.3","296.07114317029976","371.46","3","fallScene","false","","","","43","",""
"","","","","","html-keyboard-response","147","867464","0.0-18.0-1.18","66b91ee649636fce844ef133","6790928bebf0b969fc839b02","679826a3bee717b33834ef95","passed","","1637","","","","","","","","","","","","","","j","yesOrNo","","","","3","","","lp","3000","","43","321.3","287.3327096511259"
"","","","","","html-keyboard-response","148","869025","0.0-18.0-0.19","66b91ee649636fce844ef133","6790928bebf0b969fc839b02","679826a3bee717b33834ef95","passed","","","","","","","","","","","","","","","","","ballFalling","322.3","379.3711431702997","245.25","1","fallScene","true","","","","44","",""
"","","","","","html-keyboard-response","149","872029","0.0-18.0-1.19","66b91ee649636fce844ef133","6790928bebf0b969fc839b02","679826a3bee717b33834ef95","passed","","1169","","","","","","","","","","","","","","j","yesOrNo","","","","1","","","lp","3000","","44","323.3","217.74551669457017"
"","","","","","html-keyboard-response","150","874032","0.0-18.0-0.20","66b91ee649636fce844ef133","6790928bebf0b969fc839b02","679826a3bee717b33834ef95","passed","","","","","","","","","","","","","","","","","ballFalling","500","510.8711431702997","369.03","8","fallScene","true","","","","45","",""
"","","","","","html-keyboard-response","151","877043","0.0-18.0-1.20","66b91ee649636fce844ef133","6790928bebf0b969fc839b02","679826a3bee717b33834ef95","passed","","884","","","","","","","","","","","","","","j","yesOrNo","","","","8","","","mid","3000","","45","501","300"
"","","","","","html-keyboard-response","152","879047","0.0-18.0-0.21","66b91ee649636fce844ef133","6790928bebf0b969fc839b02","679826a3bee717b33834ef95","passed","","","","","","","","","","","","","","","","","ballFalling","604.4000000000001","596.8711431702998","394.5","10","fallScene","true","","","","46","",""
"","","","","","html-keyboard-response","153","882053","0.0-18.0-1.21","66b91ee649636fce844ef133","6790928bebf0b969fc839b02","679826a3bee717b33834ef95","passed","","1457","","","","","","","","","","","","","","f","yesOrNo","","","","10","","","lp","3000","","46","603.4000000000001","215.50214355555383"
"","","","","","html-keyboard-response","154","883611","0.0-18.0-0.22","66b91ee649636fce844ef133","6790928bebf0b969fc839b02","679826a3bee717b33834ef95","passed","","","","","","","","","","","","","","","","","ballFalling","322.3","379.3711431702997","245.25","1","fallScene","true","","","","47","",""
"","","","","","html-keyboard-response","155","886619","0.0-18.0-1.22","66b91ee649636fce844ef133","6790928bebf0b969fc839b02","679826a3bee717b33834ef95","passed","","1053","","","","","","","","","","","","","","j","yesOrNo","","","","1","","","mid","3000","","47","390.27114317029975","300"
"","","","","","html-keyboard-response","156","888176","0.0-18.0-0.23","66b91ee649636fce844ef133","6790928bebf0b969fc839b02","679826a3bee717b33834ef95","passed","","","","","","","","","","","","","","","","","ballFalling","322.3","296.07114317029976","371.46","3","fallScene","false","","","","48","",""
"","","","","","html-keyboard-response","157","891186","0.0-18.0-1.23","66b91ee649636fce844ef133","6790928bebf0b969fc839b02","679826a3bee717b33834ef95","passed","","1355","","","","","","","","","","","","","","f","yesOrNo","","","","3","","","lp","3000","","48","321.3","287.3327096511259"
"","","","","","html-keyboard-response","158","894205","0.0-19.0","66b91ee649636fce844ef133","6790928bebf0b969fc839b02","679826a3bee717b33834ef95","passed","","3018","","","","","","","","","","","","","<p><span style=""font-size:40px;"">BLOCK 3</span></p><p><span style=""font-size:25px;"">You have <b style=""color: #FF644F;""><strong>1 second(s)</strong></b> to respond to the following trials.</span><br></p><p></p> <!-- Blank line -->
                <p id=""blinking-text"" style=""font-weight; animation: blink 2s infinite;"">Press Space to continue</p>
                <style>
                    @keyframes blink {
                        50% {
                            opacity: 0;
                        }
                    }
                </style></p>"," ","","","","","","","","","","","","",""
"","","","","","html-keyboard-response","159","895757","0.0-20.0-0.0","66b91ee649636fce844ef133","6790928bebf0b969fc839b02","679826a3bee717b33834ef95","passed","","","","","","","","","","","","","","","","","ballFalling","322.3","296.07114317029976","371.46","3","fallScene","false","","","","49","",""
"","","","","","html-keyboard-response","160","896769","0.0-20.0-1.0","66b91ee649636fce844ef133","6790928bebf0b969fc839b02","679826a3bee717b33834ef95","passed","","914","","","","","","","","","","","","","","f","yesOrNo","","","","3","","","mid","1000","","49","321.3","300"
"","","","","","html-keyboard-response","161","898256","0.0-20.0-0.1","66b91ee649636fce844ef133","6790928bebf0b969fc839b02","679826a3bee717b33834ef95","passed","","","","","","","","","","","","","","","","","ballFalling","604.4000000000001","667.6211431702998","201.78","9","fallScene","true","","","","50","",""
"","","","","","html-keyboard-response","162","899264","0.0-20.0-1.1","66b91ee649636fce844ef133","6790928bebf0b969fc839b02","679826a3bee717b33834ef95","passed","","1004","","","","","","","","","","","","","","f","yesOrNo","","","","9","","","gt","1000","","50","667.6211431702998","201.78"
"","","","","","html-keyboard-response","163","900821","0.0-20.0-0.2","66b91ee649636fce844ef133","6790928bebf0b969fc839b02","679826a3bee717b33834ef95","passed","","","","","","","","","","","","","","","","","ballFalling","322.3","379.3711431702997","245.25","1","fallScene","true","","","","51","",""
"","","","","","html-keyboard-response","164","901825","0.0-20.0-1.2","66b91ee649636fce844ef133","6790928bebf0b969fc839b02","679826a3bee717b33834ef95","passed","","545","","","","","","","","","","","","","","j","yesOrNo","","","","1","","","lp","1000","","51","323.3","217.74551669457017"
"","","","","","html-keyboard-response","165","903487","0.0-20.0-0.3","66b91ee649636fce844ef133","6790928bebf0b969fc839b02","679826a3bee717b33834ef95","passed","","","","","","","","","","","","","","","","","ballFalling","500","479.92114317029973","330.87","6","fallScene","true","","","","52","",""
"","","","","","html-keyboard-response","166","904501","0.0-20.0-1.3","66b91ee649636fce844ef133","6790928bebf0b969fc839b02","679826a3bee717b33834ef95","passed","","882","","","","","","","","","","","","","","f","yesOrNo","","","","6","","","mid","1000","","52","499","300"
"","","","","","html-keyboard-response","167","906052","0.0-20.0-0.4","66b91ee649636fce844ef133","6790928bebf0b969fc839b02","679826a3bee717b33834ef95","passed","","","","","","","","","","","","","","","","","ballFalling","604.4000000000001","650.0211431702996","404.58000000000004","11","fallScene","true","","","","53","",""
"","","","","","html-keyboard-response","168","907064","0.0-20.0-1.4","66b91ee649636fce844ef133","6790928bebf0b969fc839b02","679826a3bee717b33834ef95","passed","","935","","","","","","","","","","","","","","j","yesOrNo","","","","11","","","gt","1000","","53","650.0211431702996","404.58"
"","","","","","html-keyboard-response","169","908618","0.0-20.0-0.5","66b91ee649636fce844ef133","6790928bebf0b969fc839b02","679826a3bee717b33834ef95","passed","","","","","","","","","","","","","","","","","ballFalling","500","453.67114317029973","210.33","5","fallScene","false","","","","54","",""
"","","","","","html-keyboard-response","170","909632","0.0-20.0-1.5","66b91ee649636fce844ef133","6790928bebf0b969fc839b02","679826a3bee717b33834ef95","passed","","748","","","","","","","","","","","","","","j","yesOrNo","","","","5","","","gt","1000","","54","453.6711431702998","210.33"
"","","","","","html-keyboard-response","171","911183","0.0-20.0-0.6","66b91ee649636fce844ef133","6790928bebf0b969fc839b02","679826a3bee717b33834ef95","passed","","","","","","","","","","","","","","","","","ballFalling","322.3","296.07114317029976","371.46","3","fallScene","true","","","","55","",""
"","","","","","html-keyboard-response","172","912197","0.0-20.0-1.6","66b91ee649636fce844ef133","6790928bebf0b969fc839b02","679826a3bee717b33834ef95","passed","","null","","","","","","","","","","","","","","null","yesOrNo","","","","3","","","gt","1000","","55","296.07114317029976","371.46"
"","","","","","html-keyboard-response","173","913683","0.0-20.0-0.7","66b91ee649636fce844ef133","6790928bebf0b969fc839b02","679826a3bee717b33834ef95","passed","","","","","","","","","","","","","","","","","ballFalling","604.4000000000001","667.6211431702998","201.78","9","fallScene","true","","","","56","",""
"","","","","","html-keyboard-response","174","914695","0.0-20.0-1.7","66b91ee649636fce844ef133","6790928bebf0b969fc839b02","679826a3bee717b33834ef95","passed","","null","","","","","","","","","","","","","","null","yesOrNo","","","","9","","","gt","1000","","56","667.6211431702998","201.78"
"","","","","","html-keyboard-response","175","916248","0.0-20.0-0.8","66b91ee649636fce844ef133","6790928bebf0b969fc839b02","679826a3bee717b33834ef95","passed","","","","","","","","","","","","","","","","","ballFalling","322.3","379.3711431702997","245.25","1","fallScene","true","","","","57","",""
"","","","","","html-keyboard-response","176","917260","0.0-20.0-1.8","66b91ee649636fce844ef133","6790928bebf0b969fc839b02","679826a3bee717b33834ef95","passed","","531","","","","","","","","","","","","","","j","yesOrNo","","","","1","","","lp","1000","","57","323.3","217.74551669457017"
"","","","","","html-keyboard-response","177","918829","0.0-20.0-0.9","66b91ee649636fce844ef133","6790928bebf0b969fc839b02","679826a3bee717b33834ef95","passed","","","","","","","","","","","","","","","","","ballFalling","500","553.4711431702997","282.51","7","fallScene","true","","","","58","",""
"","","","","","html-keyboard-response","178","919844","0.0-20.0-1.9","66b91ee649636fce844ef133","6790928bebf0b969fc839b02","679826a3bee717b33834ef95","passed","","581","","","","","","","","","","","","","","j","yesOrNo","","","","7","","","gt","1000","","58","553.4711431702997","282.51"
"","","","","","html-keyboard-response","179","921411","0.0-20.0-0.10","66b91ee649636fce844ef133","6790928bebf0b969fc839b02","679826a3bee717b33834ef95","passed","","","","","","","","","","","","","","","","","ballFalling","500","553.4711431702997","282.51","7","fallScene","false","","","","59","",""
"","","","","","html-keyboard-response","180","922425","0.0-20.0-1.10","66b91ee649636fce844ef133","6790928bebf0b969fc839b02","679826a3bee717b33834ef95","passed","","998","","","","","","","","","","","","","","j","yesOrNo","","","","7","","","gt","1000","","59","553.4711431702997","282.51"
"","","","","","html-keyboard-response","181","924427","0.0-20.0-0.11","66b91ee649636fce844ef133","6790928bebf0b969fc839b02","679826a3bee717b33834ef95","passed","","","","","","","","","","","","","","","","","ballFalling","500","510.8711431702997","369.03","8","fallScene","false","","","","60","",""
"","","","","","html-keyboard-response","182","925439","0.0-20.0-1.11","66b91ee649636fce844ef133","6790928bebf0b969fc839b02","679826a3bee717b33834ef95","passed","","930","","","","","","","","","","","","","","j","yesOrNo","","","","8","","","gt","1000","","60","510.8711431702997","369.03"
"","","","","","html-keyboard-response","183","927092","0.0-20.0-0.12","66b91ee649636fce844ef133","6790928bebf0b969fc839b02","679826a3bee717b33834ef95","passed","","","","","","","","","","","","","","","","","ballFalling","500","479.92114317029973","330.87","6","fallScene","false","","","","61","",""
"","","","","","html-keyboard-response","184","928103","0.0-20.0-1.12","66b91ee649636fce844ef133","6790928bebf0b969fc839b02","679826a3bee717b33834ef95","passed","","null","","","","","","","","","","","","","","null","yesOrNo","","","","6","","","gt","1000","","61","479.9211431702998","330.87"
"","","","","","html-keyboard-response","185","929658","0.0-20.0-0.13","66b91ee649636fce844ef133","6790928bebf0b969fc839b02","679826a3bee717b33834ef95","passed","","","","","","","","","","","","","","","","","ballFalling","604.4000000000001","650.0211431702996","404.58000000000004","11","fallScene","false","","","","62","",""
"","","","","","html-keyboard-response","186","930671","0.0-20.0-1.13","66b91ee649636fce844ef133","6790928bebf0b969fc839b02","679826a3bee717b33834ef95","passed","","930","","","","","","","","","","","","","","j","yesOrNo","","","","11","","","lp","1000","","62","605.4000000000001","372.6340973215488"
"","","","","","html-keyboard-response","187","932223","0.0-20.0-0.14","66b91ee649636fce844ef133","6790928bebf0b969fc839b02","679826a3bee717b33834ef95","passed","","","","","","","","","","","","","","","","","ballFalling","500","453.67114317029973","210.33","5","fallScene","false","","","","63","",""
"","","","","","html-keyboard-response","188","933238","0.0-20.0-1.14","66b91ee649636fce844ef133","6790928bebf0b969fc839b02","679826a3bee717b33834ef95","passed","","852","","","","","","","","","","","","","","j","yesOrNo","","","","5","","","mid","1000","","63","499","300"
"","","","","","html-keyboard-response","189","934789","0.0-20.0-0.15","66b91ee649636fce844ef133","6790928bebf0b969fc839b02","679826a3bee717b33834ef95","passed","","","","","","","","","","","","","","","","","ballFalling","500","453.67114317029973","210.33","5","fallScene","true","","","","64","",""
"","","","","","html-keyboard-response","190","935803","0.0-20.0-1.15","66b91ee649636fce844ef133","6790928bebf0b969fc839b02","679826a3bee717b33834ef95","passed","","null","","","","","","","","","","","","","","null","yesOrNo","","","","5","","","gt","1000","","64","453.6711431702998","210.33"
"","","","","","html-keyboard-response","191","937288","0.0-20.0-0.16","66b91ee649636fce844ef133","6790928bebf0b969fc839b02","679826a3bee717b33834ef95","passed","","","","","","","","","","","","","","","","","ballFalling","604.4000000000001","667.6211431702998","201.78","9","fallScene","false","","","","65","",""
"","","","","","html-keyboard-response","192","938292","0.0-20.0-1.16","66b91ee649636fce844ef133","6790928bebf0b969fc839b02","679826a3bee717b33834ef95","passed","","657","","","","","","","","","","","","","","f","yesOrNo","","","","9","","","mid","1000","","65","605.4000000000001","300"
"","","","","","html-keyboard-response","193","939853","0.0-20.0-0.17","66b91ee649636fce844ef133","6790928bebf0b969fc839b02","679826a3bee717b33834ef95","passed","","","","","","","","","","","","","","","","","ballFalling","500","453.67114317029973","210.33","5","fallScene","false","","","","66","",""
"","","","","","html-keyboard-response","194","940859","0.0-20.0-1.17","66b91ee649636fce844ef133","6790928bebf0b969fc839b02","679826a3bee717b33834ef95","passed","","652","","","","","","","","","","","","","","j","yesOrNo","","","","5","","","lp","1000","","66","499","151"
"","","","","","html-keyboard-response","195","942868","0.0-20.0-0.18","66b91ee649636fce844ef133","6790928bebf0b969fc839b02","679826a3bee717b33834ef95","passed","","","","","","","","","","","","","","","","","ballFalling","604.4000000000001","596.8711431702998","394.5","10","fallScene","false","","","","67","",""
"","","","","","html-keyboard-response","196","943882","0.0-20.0-1.18","66b91ee649636fce844ef133","6790928bebf0b969fc839b02","679826a3bee717b33834ef95","passed","","682","","","","","","","","","","","","","","j","yesOrNo","","","","10","","","gt","1000","","67","596.8711431702998","394.5"
"","","","","","html-keyboard-response","197","945434","0.0-20.0-0.19","66b91ee649636fce844ef133","6790928bebf0b969fc839b02","679826a3bee717b33834ef95","passed","","","","","","","","","","","","","","","","","ballFalling","322.3","296.07114317029976","371.46","3","fallScene","false","","","","68","",""
"","","","","","html-keyboard-response","198","946447","0.0-20.0-1.19","66b91ee649636fce844ef133","6790928bebf0b969fc839b02","679826a3bee717b33834ef95","passed","","682","","","","","","","","","","","","","","f","yesOrNo","","","","3","","","gt","1000","","68","296.07114317029976","371.46"
"","","","","","html-keyboard-response","199","947933","0.0-20.0-0.20","66b91ee649636fce844ef133","6790928bebf0b969fc839b02","679826a3bee717b33834ef95","passed","","","","","","","","","","","","","","","","","ballFalling","604.4000000000001","667.6211431702998","201.78","9","fallScene","false","","","","69","",""
"","","","","","html-keyboard-response","200","948947","0.0-20.0-1.20","66b91ee649636fce844ef133","6790928bebf0b969fc839b02","679826a3bee717b33834ef95","passed","","655","","","","","","","","","","","","","","f","yesOrNo","","","","9","","","lp","1000","","69","605.4000000000001","151"
"","","","","","html-keyboard-response","201","950498","0.0-20.0-0.21","66b91ee649636fce844ef133","6790928bebf0b969fc839b02","679826a3bee717b33834ef95","passed","","","","","","","","","","","","","","","","","ballFalling","322.3","379.3711431702997","245.25","1","fallScene","true","","","","70","",""
"","","","","","html-keyboard-response","202","951508","0.0-20.0-1.21","66b91ee649636fce844ef133","6790928bebf0b969fc839b02","679826a3bee717b33834ef95","passed","","516","","","","","","","","","","","","","","j","yesOrNo","","","","1","","","gt","1000","","70","379.3711431702997","245.25"
"","","","","","html-keyboard-response","203","952998","0.0-20.0-0.22","66b91ee649636fce844ef133","6790928bebf0b969fc839b02","679826a3bee717b33834ef95","passed","","","","","","","","","","","","","","","","","ballFalling","604.4000000000001","667.6211431702998","201.78","9","fallScene","true","","","","71","",""
"","","","","","html-keyboard-response","204","954010","0.0-20.0-1.22","66b91ee649636fce844ef133","6790928bebf0b969fc839b02","679826a3bee717b33834ef95","passed","","597","","","","","","","","","","","","","","f","yesOrNo","","","","9","","","mid","1000","","71","605.4000000000001","300"
"","","","","","html-keyboard-response","205","956012","0.0-20.0-0.23","66b91ee649636fce844ef133","6790928bebf0b969fc839b02","679826a3bee717b33834ef95","passed","","","","","","","","","","","","","","","","","ballFalling","604.4000000000001","596.8711431702998","394.5","10","fallScene","false","","","","72","",""
"","","","","","html-keyboard-response","206","957026","0.0-20.0-1.23","66b91ee649636fce844ef133","6790928bebf0b969fc839b02","679826a3bee717b33834ef95","passed","","null","","","","","","","","","","","","","","null","yesOrNo","","","","10","","","mid","1000","","72","536.4288568297004","300"
"","","","","","html-keyboard-response","207","959166","0.0-21.0","66b91ee649636fce844ef133","6790928bebf0b969fc839b02","679826a3bee717b33834ef95","passed","","2139","","","","","","","","","","","","","<p><span style=""font-size:40px;"">BLOCK 4</span></p><p><span style=""font-size:25px;"">You have <b style=""color: #FF644F;""><strong>3 second(s)</strong></b> to respond to the following trials.</span><br></p><p></p> <!-- Blank line -->
                <p id=""blinking-text"" style=""font-weight; animation: blink 2s infinite;"">Press Space to continue</p>
                <style>
                    @keyframes blink {
                        50% {
                            opacity: 0;
                        }
                    }
                </style></p>"," ","","","","","","","","","","","","",""
"","","","","","html-keyboard-response","208","960827","0.0-22.0-0.0","66b91ee649636fce844ef133","6790928bebf0b969fc839b02","679826a3bee717b33834ef95","passed","","","","","","","","","","","","","","","","","ballFalling","500","479.92114317029973","330.87","6","fallScene","true","","","","73","",""
"","","","","","html-keyboard-response","209","963838","0.0-22.0-1.0","66b91ee649636fce844ef133","6790928bebf0b969fc839b02","679826a3bee717b33834ef95","passed","","1401","","","","","","","","","","","","","","f","yesOrNo","","","","6","","","lp","3000","","73","499","189.92909825697632"
"","","","","","html-keyboard-response","210","965842","0.0-22.0-0.1","66b91ee649636fce844ef133","6790928bebf0b969fc839b02","679826a3bee717b33834ef95","passed","","","","","","","","","","","","","","","","","ballFalling","500","510.8711431702997","369.03","8","fallScene","false","","","","74","",""
"","","","","","html-keyboard-response","211","968854","0.0-22.0-1.1","66b91ee649636fce844ef133","6790928bebf0b969fc839b02","679826a3bee717b33834ef95","passed","","2188","","","","","","","","","","","","","","f","yesOrNo","","","","8","","","lp","3000","","74","501","151"
"","","","","","html-keyboard-response","212","970506","0.0-22.0-0.2","66b91ee649636fce844ef133","6790928bebf0b969fc839b02","679826a3bee717b33834ef95","passed","","","","","","","","","","","","","","","","","ballFalling","500","479.92114317029973","330.87","6","fallScene","false","","","","75","",""
"","","","","","html-keyboard-response","213","973519","0.0-22.0-1.2","66b91ee649636fce844ef133","6790928bebf0b969fc839b02","679826a3bee717b33834ef95","passed","","827","","","","","","","","","","","","","","j","yesOrNo","","","","6","","","mid","3000","","75","499","300"
"","","","","","html-keyboard-response","214","975071","0.0-22.0-0.3","66b91ee649636fce844ef133","6790928bebf0b969fc839b02","679826a3bee717b33834ef95","passed","","","","","","","","","","","","","","","","","ballFalling","604.4000000000001","650.0211431702996","404.58000000000004","11","fallScene","true","","","","76","",""
"","","","","","html-keyboard-response","215","978084","0.0-22.0-1.3","66b91ee649636fce844ef133","6790928bebf0b969fc839b02","679826a3bee717b33834ef95","passed","","1150","","","","","","","","","","","","","","j","yesOrNo","","","","11","","","lp","3000","","76","605.4000000000001","372.6340973215488"
"","","","","","html-keyboard-response","216","979636","0.0-22.0-0.4","66b91ee649636fce844ef133","6790928bebf0b969fc839b02","679826a3bee717b33834ef95","passed","","","","","","","","","","","","","","","","","ballFalling","500","453.67114317029973","210.33","5","fallScene","false","","","","77","",""
"","","","","","html-keyboard-response","217","982645","0.0-22.0-1.4","66b91ee649636fce844ef133","6790928bebf0b969fc839b02","679826a3bee717b33834ef95","passed","","1641","","","","","","","","","","","","","","j","yesOrNo","","","","5","","","lp","3000","","77","499","151"
"","","","","","html-keyboard-response","218","984300","0.0-22.0-0.5","66b91ee649636fce844ef133","6790928bebf0b969fc839b02","679826a3bee717b33834ef95","passed","","","","","","","","","","","","","","","","","ballFalling","500","479.92114317029973","330.87","6","fallScene","true","","","","78","",""
"","","","","","html-keyboard-response","219","987311","0.0-22.0-1.5","66b91ee649636fce844ef133","6790928bebf0b969fc839b02","679826a3bee717b33834ef95","passed","","1846","","","","","","","","","","","","","","f","yesOrNo","","","","6","","","lp","3000","","78","499","189.92909825697632"
"","","","","","html-keyboard-response","220","988798","0.0-22.0-0.6","66b91ee649636fce844ef133","6790928bebf0b969fc839b02","679826a3bee717b33834ef95","passed","","","","","","","","","","","","","","","","","ballFalling","604.4000000000001","667.6211431702998","201.78","9","fallScene","true","","","","79","",""
"","","","","","html-keyboard-response","221","991814","0.0-22.0-1.6","66b91ee649636fce844ef133","6790928bebf0b969fc839b02","679826a3bee717b33834ef95","passed","","941","","","","","","","","","","","","","","j","yesOrNo","","","","9","","","gt","3000","","79","667.6211431702998","201.78"
"","","","","","html-keyboard-response","222","993379","0.0-22.0-0.7","66b91ee649636fce844ef133","6790928bebf0b969fc839b02","679826a3bee717b33834ef95","passed","","","","","","","","","","","","","","","","","ballFalling","604.4000000000001","650.0211431702996","404.58000000000004","11","fallScene","false","","","","80","",""
"","","","","","html-keyboard-response","223","996390","0.0-22.0-1.7","66b91ee649636fce844ef133","6790928bebf0b969fc839b02","679826a3bee717b33834ef95","passed","","1124","","","","","","","","","","","","","","f","yesOrNo","","","","11","","","mid","3000","","80","605.4000000000001","300"
"","","","","","html-keyboard-response","224","997944","0.0-22.0-0.8","66b91ee649636fce844ef133","6790928bebf0b969fc839b02","679826a3bee717b33834ef95","passed","","","","","","","","","","","","","","","","","ballFalling","604.4000000000001","650.0211431702996","404.58000000000004","11","fallScene","true","","","","81","",""
"","","","","","html-keyboard-response","225","1000957","0.0-22.0-1.8","66b91ee649636fce844ef133","6790928bebf0b969fc839b02","679826a3bee717b33834ef95","passed","","1109","","","","","","","","","","","","","","j","yesOrNo","","","","11","","","mid","3000","","81","605.4000000000001","300"
"","","","","","html-keyboard-response","226","1002521","0.0-22.0-0.9","66b91ee649636fce844ef133","6790928bebf0b969fc839b02","679826a3bee717b33834ef95","passed","","","","","","","","","","","","","","","","","ballFalling","604.4000000000001","575.4211431702997","266.76","12","fallScene","true","","","","82","",""
"","","","","","html-keyboard-response","227","1005526","0.0-22.0-1.9","66b91ee649636fce844ef133","6790928bebf0b969fc839b02","679826a3bee717b33834ef95","passed","","1494","","","","","","","","","","","","","","j","yesOrNo","","","","12","","","mid","3000","","82","536.4288568297004","300"
"","","","","","html-keyboard-response","228","1007090","0.0-22.0-0.10","66b91ee649636fce844ef133","6790928bebf0b969fc839b02","679826a3bee717b33834ef95","passed","","","","","","","","","","","","","","","","","ballFalling","604.4000000000001","650.0211431702996","404.58000000000004","11","fallScene","false","","","","83","",""
"","","","","","html-keyboard-response","229","1010103","0.0-22.0-1.10","66b91ee649636fce844ef133","6790928bebf0b969fc839b02","679826a3bee717b33834ef95","passed","","1416","","","","","","","","","","","","","","j","yesOrNo","","","","11","","","lp","3000","","83","605.4000000000001","372.6340973215488"
"","","","","","html-keyboard-response","230","1011887","0.0-22.0-0.11","66b91ee649636fce844ef133","6790928bebf0b969fc839b02","679826a3bee717b33834ef95","passed","","","","","","","","","","","","","","","","","ballFalling","322.3","308.07114317029976","253.89","2","fallScene","true","","","","84","",""
"","","","","","html-keyboard-response","231","1014901","0.0-22.0-1.11","66b91ee649636fce844ef133","6790928bebf0b969fc839b02","679826a3bee717b33834ef95","passed","","844","","","","","","","","","","","","","","j","yesOrNo","","","","2","","","gt","3000","","84","308.07114317029976","253.89"
"","","","","","html-keyboard-response","232","1016902","0.0-22.0-0.12","66b91ee649636fce844ef133","6790928bebf0b969fc839b02","679826a3bee717b33834ef95","passed","","","","","","","","","","","","","","","","","ballFalling","500","510.8711431702997","369.03","8","fallScene","false","","","","85","",""
"","","","","","html-keyboard-response","233","1019915","0.0-22.0-1.12","66b91ee649636fce844ef133","6790928bebf0b969fc839b02","679826a3bee717b33834ef95","passed","","1065","","","","","","","","","","","","","","f","yesOrNo","","","","8","","","mid","3000","","85","501","300"
"","","","","","html-keyboard-response","234","1021916","0.0-22.0-0.13","66b91ee649636fce844ef133","6790928bebf0b969fc839b02","679826a3bee717b33834ef95","passed","","","","","","","","","","","","","","","","","ballFalling","500","510.8711431702997","369.03","8","fallScene","true","","","","86","",""
"","","","","","html-keyboard-response","235","1024930","0.0-22.0-1.13","66b91ee649636fce844ef133","6790928bebf0b969fc839b02","679826a3bee717b33834ef95","passed","","1421","","","","","","","","","","","","","","j","yesOrNo","","","","8","","","lp","3000","","86","501","151"
"","","","","","html-keyboard-response","236","1026481","0.0-22.0-0.14","66b91ee649636fce844ef133","6790928bebf0b969fc839b02","679826a3bee717b33834ef95","passed","","","","","","","","","","","","","","","","","ballFalling","322.3","356.42114317029973","357.87","4","fallScene","true","","","","87","",""
"","","","","","html-keyboard-response","237","1029490","0.0-22.0-1.14","66b91ee649636fce844ef133","6790928bebf0b969fc839b02","679826a3bee717b33834ef95","passed","","948","","","","","","","","","","","","","","j","yesOrNo","","","","4","","","gt","3000","","87","356.42114317029973","357.87"
"","","","","","html-keyboard-response","238","1031045","0.0-22.0-0.15","66b91ee649636fce844ef133","6790928bebf0b969fc839b02","679826a3bee717b33834ef95","passed","","","","","","","","","","","","","","","","","ballFalling","322.3","356.42114317029973","357.87","4","fallScene","false","","","","88","",""
"","","","","","html-keyboard-response","239","1034059","0.0-22.0-1.15","66b91ee649636fce844ef133","6790928bebf0b969fc839b02","679826a3bee717b33834ef95","passed","","1658","","","","","","","","","","","","","","j","yesOrNo","","","","4","","","lp","3000","","88","323.3","297.4070551689986"
"","","","","","html-keyboard-response","240","1035610","0.0-22.0-0.16","66b91ee649636fce844ef133","6790928bebf0b969fc839b02","679826a3bee717b33834ef95","passed","","","","","","","","","","","","","","","","","ballFalling","322.3","379.3711431702997","245.25","1","fallScene","true","","","","89","",""
"","","","","","html-keyboard-response","241","1038623","0.0-22.0-1.16","66b91ee649636fce844ef133","6790928bebf0b969fc839b02","679826a3bee717b33834ef95","passed","","1258","","","","","","","","","","","","","","f","yesOrNo","","","","1","","","mid","3000","","89","390.27114317029975","300"
"","","","","","html-keyboard-response","242","1040175","0.0-22.0-0.17","66b91ee649636fce844ef133","6790928bebf0b969fc839b02","679826a3bee717b33834ef95","passed","","","","","","","","","","","","","","","","","ballFalling","604.4000000000001","650.0211431702996","404.58000000000004","11","fallScene","false","","","","90","",""
"","","","","","html-keyboard-response","243","1043188","0.0-22.0-1.17","66b91ee649636fce844ef133","6790928bebf0b969fc839b02","679826a3bee717b33834ef95","passed","","1380","","","","","","","","","","","","","","j","yesOrNo","","","","11","","","gt","3000","","90","650.0211431702996","404.58"
"","","","","","html-keyboard-response","244","1044672","0.0-22.0-0.18","66b91ee649636fce844ef133","6790928bebf0b969fc839b02","679826a3bee717b33834ef95","passed","","","","","","","","","","","","","","","","","ballFalling","604.4000000000001","667.6211431702998","201.78","9","fallScene","false","","","","91","",""
"","","","","","html-keyboard-response","245","1047683","0.0-22.0-1.18","66b91ee649636fce844ef133","6790928bebf0b969fc839b02","679826a3bee717b33834ef95","passed","","1157","","","","","","","","","","","","","","j","yesOrNo","","","","9","","","gt","3000","","91","667.6211431702998","201.78"
"","","","","","html-keyboard-response","246","1049237","0.0-22.0-0.19","66b91ee649636fce844ef133","6790928bebf0b969fc839b02","679826a3bee717b33834ef95","passed","","","","","","","","","","","","","","","","","ballFalling","500","453.67114317029973","210.33","5","fallScene","false","","","","92","",""
"","","","","","html-keyboard-response","247","1052248","0.0-22.0-1.19","66b91ee649636fce844ef133","6790928bebf0b969fc839b02","679826a3bee717b33834ef95","passed","","1564","","","","","","","","","","","","","","j","yesOrNo","","","","5","","","mid","3000","","92","499","300"
"","","","","","html-keyboard-response","248","1054251","0.0-22.0-0.20","66b91ee649636fce844ef133","6790928bebf0b969fc839b02","679826a3bee717b33834ef95","passed","","","","","","","","","","","","","","","","","ballFalling","604.4000000000001","596.8711431702998","394.5","10","fallScene","true","","","","93","",""
"","","","","","html-keyboard-response","249","1057264","0.0-22.0-1.20","66b91ee649636fce844ef133","6790928bebf0b969fc839b02","679826a3bee717b33834ef95","passed","","1315","","","","","","","","","","","","","","f","yesOrNo","","","","10","","","lp","3000","","93","603.4000000000001","215.50214355555383"
"","","","","","html-keyboard-response","250","1059266","0.0-22.0-0.21","66b91ee649636fce844ef133","6790928bebf0b969fc839b02","679826a3bee717b33834ef95","passed","","","","","","","","","","","","","","","","","ballFalling","604.4000000000001","596.8711431702998","394.5","10","fallScene","false","","","","94","",""
"","","","","","html-keyboard-response","251","1062279","0.0-22.0-1.21","66b91ee649636fce844ef133","6790928bebf0b969fc839b02","679826a3bee717b33834ef95","passed","","1455","","","","","","","","","","","","","","f","yesOrNo","","","","10","","","gt","3000","","94","596.8711431702998","394.5"
"","","","","","html-keyboard-response","252","1063831","0.0-22.0-0.22","66b91ee649636fce844ef133","6790928bebf0b969fc839b02","679826a3bee717b33834ef95","passed","","","","","","","","","","","","","","","","","ballFalling","322.3","379.3711431702997","245.25","1","fallScene","true","","","","95","",""
"","","","","","html-keyboard-response","253","1066843","0.0-22.0-1.22","66b91ee649636fce844ef133","6790928bebf0b969fc839b02","679826a3bee717b33834ef95","passed","","1206","","","","","","","","","","","","","","j","yesOrNo","","","","1","","","lp","3000","","95","323.3","217.74551669457017"
"","","","","","html-keyboard-response","254","1068411","0.0-22.0-0.23","66b91ee649636fce844ef133","6790928bebf0b969fc839b02","679826a3bee717b33834ef95","passed","","","","","","","","","","","","","","","","","ballFalling","500","553.4711431702997","282.51","7","fallScene","true","","","","96","",""
"","","","","","html-keyboard-response","255","1071425","0.0-22.0-1.23","66b91ee649636fce844ef133","6790928bebf0b969fc839b02","679826a3bee717b33834ef95","passed","","656","","","","","","","","","","","","","","j","yesOrNo","","","","7","","","mid","3000","","96","501","300"
"","","","","","html-keyboard-response","256","1098275","0.0-23.0","66b91ee649636fce844ef133","6790928bebf0b969fc839b02","679826a3bee717b33834ef95","passed","","26848","","","","","","","","","","","","","<p><span style=""font-size:40px;"">BLOCK 5</span></p><p><span style=""font-size:25px;"">You have <b style=""color: #FF644F;""><strong>1 second(s)</strong></b> to respond to the following trials.</span><br></p><p></p> <!-- Blank line -->
                <p id=""blinking-text"" style=""font-weight; animation: blink 2s infinite;"">Press Space to continue</p>
                <style>
                    @keyframes blink {
                        50% {
                            opacity: 0;
                        }
                    }
                </style></p>"," ","","","","","","","","","","","","",""
"","","","","","html-keyboard-response","257","1100064","0.0-24.0-0.0","66b91ee649636fce844ef133","6790928bebf0b969fc839b02","679826a3bee717b33834ef95","passed","","","","","","","","","","","","","","","","","ballFalling","322.3","308.07114317029976","253.89","2","fallScene","false","","","","97","",""
"","","","","","html-keyboard-response","258","1101068","0.0-24.0-1.0","66b91ee649636fce844ef133","6790928bebf0b969fc839b02","679826a3bee717b33834ef95","passed","","714","","","","","","","","","","","","","","j","yesOrNo","","","","2","","","mid","1000","","97","321.3","300"
"","","","","","html-keyboard-response","259","1102646","0.0-24.0-0.1","66b91ee649636fce844ef133","6790928bebf0b969fc839b02","679826a3bee717b33834ef95","passed","","","","","","","","","","","","","","","","","ballFalling","500","553.4711431702997","282.51","7","fallScene","true","","","","98","",""
"","","","","","html-keyboard-response","260","1103655","0.0-24.0-1.1","66b91ee649636fce844ef133","6790928bebf0b969fc839b02","679826a3bee717b33834ef95","passed","","681","","","","","","","","","","","","","","j","yesOrNo","","","","7","","","lp","1000","","98","501","227.2843295913261"
"","","","","","html-keyboard-response","261","1105312","0.0-24.0-0.2","66b91ee649636fce844ef133","6790928bebf0b969fc839b02","679826a3bee717b33834ef95","passed","","","","","","","","","","","","","","","","","ballFalling","500","479.92114317029973","330.87","6","fallScene","true","","","","99","",""
"","","","","","html-keyboard-response","262","1106324","0.0-24.0-1.2","66b91ee649636fce844ef133","6790928bebf0b969fc839b02","679826a3bee717b33834ef95","passed","","950","","","","","","","","","","","","","","f","yesOrNo","","","","6","","","lp","1000","","99","499","189.92909825697632"
"","","","","","html-keyboard-response","263","1107877","0.0-24.0-0.3","66b91ee649636fce844ef133","6790928bebf0b969fc839b02","679826a3bee717b33834ef95","passed","","","","","","","","","","","","","","","","","ballFalling","604.4000000000001","575.4211431702997","266.76","12","fallScene","true","","","","100","",""
"","","","","","html-keyboard-response","264","1108891","0.0-24.0-1.3","66b91ee649636fce844ef133","6790928bebf0b969fc839b02","679826a3bee717b33834ef95","passed","","715","","","","","","","","","","","","","","j","yesOrNo","","","","12","","","mid","1000","","100","536.4288568297004","300"
"","","","","","html-keyboard-response","265","1110893","0.0-24.0-0.4","66b91ee649636fce844ef133","6790928bebf0b969fc839b02","679826a3bee717b33834ef95","passed","","","","","","","","","","","","","","","","","ballFalling","604.4000000000001","596.8711431702998","394.5","10","fallScene","true","","","","101","",""
"","","","","","html-keyboard-response","266","1111905","0.0-24.0-1.4","66b91ee649636fce844ef133","6790928bebf0b969fc839b02","679826a3bee717b33834ef95","passed","","996","","","","","","","","","","","","","","j","yesOrNo","","","","10","","","gt","1000","","101","596.8711431702998","394.5"
"","","","","","html-keyboard-response","267","1113458","0.0-24.0-0.5","66b91ee649636fce844ef133","6790928bebf0b969fc839b02","679826a3bee717b33834ef95","passed","","","","","","","","","","","","","","","","","ballFalling","322.3","356.42114317029973","357.87","4","fallScene","false","","","","102","",""
"","","","","","html-keyboard-response","268","1114472","0.0-24.0-1.5","66b91ee649636fce844ef133","6790928bebf0b969fc839b02","679826a3bee717b33834ef95","passed","","918","","","","","","","","","","","","","","f","yesOrNo","","","","4","","","lp","1000","","102","323.3","297.4070551689986"
"","","","","","html-keyboard-response","269","1116473","0.0-24.0-0.6","66b91ee649636fce844ef133","6790928bebf0b969fc839b02","679826a3bee717b33834ef95","passed","","","","","","","","","","","","","","","","","ballFalling","500","510.8711431702997","369.03","8","fallScene","true","","","","103","",""
"","","","","","html-keyboard-response","270","1117486","0.0-24.0-1.6","66b91ee649636fce844ef133","6790928bebf0b969fc839b02","679826a3bee717b33834ef95","passed","","null","","","","","","","","","","","","","","null","yesOrNo","","","","8","","","lp","1000","","103","501","151"
"","","","","","html-keyboard-response","271","1119039","0.0-24.0-0.7","66b91ee649636fce844ef133","6790928bebf0b969fc839b02","679826a3bee717b33834ef95","passed","","","","","","","","","","","","","","","","","ballFalling","500","453.67114317029973","210.33","5","fallScene","true","","","","104","",""
"","","","","","html-keyboard-response","272","1120051","0.0-24.0-1.7","66b91ee649636fce844ef133","6790928bebf0b969fc839b02","679826a3bee717b33834ef95","passed","","null","","","","","","","","","","","","","","null","yesOrNo","","","","5","","","lp","1000","","104","499","151"
"","","","","","html-keyboard-response","273","1122054","0.0-24.0-0.8","66b91ee649636fce844ef133","6790928bebf0b969fc839b02","679826a3bee717b33834ef95","passed","","","","","","","","","","","","","","","","","ballFalling","500","510.8711431702997","369.03","8","fallScene","false","","","","105","",""
"","","","","","html-keyboard-response","274","1123067","0.0-24.0-1.8","66b91ee649636fce844ef133","6790928bebf0b969fc839b02","679826a3bee717b33834ef95","passed","","null","","","","","","","","","","","","","","null","yesOrNo","","","","8","","","gt","1000","","105","510.8711431702997","369.03"
"","","","","","html-keyboard-response","275","1124619","0.0-24.0-0.9","66b91ee649636fce844ef133","6790928bebf0b969fc839b02","679826a3bee717b33834ef95","passed","","","","","","","","","","","","","","","","","ballFalling","604.4000000000001","575.4211431702997","266.76","12","fallScene","true","","","","106","",""
"","","","","","html-keyboard-response","276","1125634","0.0-24.0-1.9","66b91ee649636fce844ef133","6790928bebf0b969fc839b02","679826a3bee717b33834ef95","passed","","608","","","","","","","","","","","","","","j","yesOrNo","","","","12","","","mid","1000","","106","536.4288568297004","300"
"","","","","","html-keyboard-response","277","1127635","0.0-24.0-0.10","66b91ee649636fce844ef133","6790928bebf0b969fc839b02","679826a3bee717b33834ef95","passed","","","","","","","","","","","","","","","","","ballFalling","604.4000000000001","596.8711431702998","394.5","10","fallScene","false","","","","107","",""
"","","","","","html-keyboard-response","278","1128646","0.0-24.0-1.10","66b91ee649636fce844ef133","6790928bebf0b969fc839b02","679826a3bee717b33834ef95","passed","","805","","","","","","","","","","","","","","j","yesOrNo","","","","10","","","lp","1000","","107","603.4000000000001","215.50214355555383"
"","","","","","html-keyboard-response","279","1130199","0.0-24.0-0.11","66b91ee649636fce844ef133","6790928bebf0b969fc839b02","679826a3bee717b33834ef95","passed","","","","","","","","","","","","","","","","","ballFalling","604.4000000000001","650.0211431702996","404.58000000000004","11","fallScene","false","","","","108","",""
"","","","","","html-keyboard-response","280","1131208","0.0-24.0-1.11","66b91ee649636fce844ef133","6790928bebf0b969fc839b02","679826a3bee717b33834ef95","passed","","null","","","","","","","","","","","","","","null","yesOrNo","","","","11","","","mid","1000","","108","605.4000000000001","300"
"","","","","","html-keyboard-response","281","1132782","0.0-24.0-0.12","66b91ee649636fce844ef133","6790928bebf0b969fc839b02","679826a3bee717b33834ef95","passed","","","","","","","","","","","","","","","","","ballFalling","500","553.4711431702997","282.51","7","fallScene","false","","","","109","",""
"","","","","","html-keyboard-response","282","1133794","0.0-24.0-1.12","66b91ee649636fce844ef133","6790928bebf0b969fc839b02","679826a3bee717b33834ef95","passed","","941","","","","","","","","","","","","","","f","yesOrNo","","","","7","","","mid","1000","","109","501","300"
"","","","","","html-keyboard-response","283","1135811","0.0-24.0-0.13","66b91ee649636fce844ef133","6790928bebf0b969fc839b02","679826a3bee717b33834ef95","passed","","","","","","","","","","","","","","","","","ballFalling","604.4000000000001","596.8711431702998","394.5","10","fallScene","false","","","","110","",""
"","","","","","html-keyboard-response","284","1136815","0.0-24.0-1.13","66b91ee649636fce844ef133","6790928bebf0b969fc839b02","679826a3bee717b33834ef95","passed","","806","","","","","","","","","","","","","","j","yesOrNo","","","","10","","","lp","1000","","110","603.4000000000001","215.50214355555383"
"","","","","","html-keyboard-response","285","1138380","0.0-24.0-0.14","66b91ee649636fce844ef133","6790928bebf0b969fc839b02","679826a3bee717b33834ef95","passed","","","","","","","","","","","","","","","","","ballFalling","500","453.67114317029973","210.33","5","fallScene","false","","","","111","",""
"","","","","","html-keyboard-response","286","1139391","0.0-24.0-1.14","66b91ee649636fce844ef133","6790928bebf0b969fc839b02","679826a3bee717b33834ef95","passed","","975","","","","","","","","","","","","","","j","yesOrNo","","","","5","","","mid","1000","","111","499","300"
"","","","","","html-keyboard-response","287","1140963","0.0-24.0-0.15","66b91ee649636fce844ef133","6790928bebf0b969fc839b02","679826a3bee717b33834ef95","passed","","","","","","","","","","","","","","","","","ballFalling","500","553.4711431702997","282.51","7","fallScene","true","","","","112","",""
"","","","","","html-keyboard-response","288","1141977","0.0-24.0-1.15","66b91ee649636fce844ef133","6790928bebf0b969fc839b02","679826a3bee717b33834ef95","passed","","579","","","","","","","","","","","","","","j","yesOrNo","","","","7","","","lp","1000","","112","501","227.2843295913261"
"","","","","","html-keyboard-response","289","1143528","0.0-24.0-0.16","66b91ee649636fce844ef133","6790928bebf0b969fc839b02","679826a3bee717b33834ef95","passed","","","","","","","","","","","","","","","","","ballFalling","604.4000000000001","575.4211431702997","266.76","12","fallScene","true","","","","113","",""
"","","","","","html-keyboard-response","290","1144542","0.0-24.0-1.16","66b91ee649636fce844ef133","6790928bebf0b969fc839b02","679826a3bee717b33834ef95","passed","","881","","","","","","","","","","","","","","j","yesOrNo","","","","12","","","gt","1000","","113","575.4211431702997","266.76"
"","","","","","html-keyboard-response","291","1146542","0.0-24.0-0.17","66b91ee649636fce844ef133","6790928bebf0b969fc839b02","679826a3bee717b33834ef95","passed","","","","","","","","","","","","","","","","","ballFalling","500","510.8711431702997","369.03","8","fallScene","true","","","","114","",""
"","","","","","html-keyboard-response","292","1147555","0.0-24.0-1.17","66b91ee649636fce844ef133","6790928bebf0b969fc839b02","679826a3bee717b33834ef95","passed","","907","","","","","","","","","","","","","","j","yesOrNo","","","","8","","","mid","1000","","114","501","300"
"","","","","","html-keyboard-response","293","1149208","0.0-24.0-0.18","66b91ee649636fce844ef133","6790928bebf0b969fc839b02","679826a3bee717b33834ef95","passed","","","","","","","","","","","","","","","","","ballFalling","500","479.92114317029973","330.87","6","fallScene","false","","","","115","",""
"","","","","","html-keyboard-response","294","1150223","0.0-24.0-1.18","66b91ee649636fce844ef133","6790928bebf0b969fc839b02","679826a3bee717b33834ef95","passed","","898","","","","","","","","","","","","","","f","yesOrNo","","","","6","","","lp","1000","","115","499","189.92909825697632"
"","","","","","html-keyboard-response","295","1151774","0.0-24.0-0.19","66b91ee649636fce844ef133","6790928bebf0b969fc839b02","679826a3bee717b33834ef95","passed","","","","","","","","","","","","","","","","","ballFalling","322.3","356.42114317029973","357.87","4","fallScene","true","","","","116","",""
"","","","","","html-keyboard-response","296","1152782","0.0-24.0-1.19","66b91ee649636fce844ef133","6790928bebf0b969fc839b02","679826a3bee717b33834ef95","passed","","905","","","","","","","","","","","","","","j","yesOrNo","","","","4","","","lp","1000","","116","323.3","297.4070551689986"
"","","","","","html-keyboard-response","297","1154440","0.0-24.0-0.20","66b91ee649636fce844ef133","6790928bebf0b969fc839b02","679826a3bee717b33834ef95","passed","","","","","","","","","","","","","","","","","ballFalling","500","479.92114317029973","330.87","6","fallScene","false","","","","117","",""
"","","","","","html-keyboard-response","298","1155453","0.0-24.0-1.20","66b91ee649636fce844ef133","6790928bebf0b969fc839b02","679826a3bee717b33834ef95","passed","","768","","","","","","","","","","","","","","j","yesOrNo","","","","6","","","gt","1000","","117","479.9211431702998","330.87"
"","","","","","html-keyboard-response","299","1157455","0.0-24.0-0.21","66b91ee649636fce844ef133","6790928bebf0b969fc839b02","679826a3bee717b33834ef95","passed","","","","","","","","","","","","","","","","","ballFalling","500","510.8711431702997","369.03","8","fallScene","false","","","","118","",""
"","","","","","html-keyboard-response","300","1158467","0.0-24.0-1.21","66b91ee649636fce844ef133","6790928bebf0b969fc839b02","679826a3bee717b33834ef95","passed","","750","","","","","","","","","","","","","","f","yesOrNo","","","","8","","","lp","1000","","118","501","151"
"","","","","","html-keyboard-response","301","1160253","0.0-24.0-0.22","66b91ee649636fce844ef133","6790928bebf0b969fc839b02","679826a3bee717b33834ef95","passed","","","","","","","","","","","","","","","","","ballFalling","322.3","308.07114317029976","253.89","2","fallScene","true","","","","119","",""
"","","","","","html-keyboard-response","302","1161268","0.0-24.0-1.22","66b91ee649636fce844ef133","6790928bebf0b969fc839b02","679826a3bee717b33834ef95","passed","","802","","","","","","","","","","","","","","j","yesOrNo","","","","2","","","gt","1000","","119","308.07114317029976","253.89"
"","","","","","html-keyboard-response","303","1162819","0.0-24.0-0.23","66b91ee649636fce844ef133","6790928bebf0b969fc839b02","679826a3bee717b33834ef95","passed","","","","","","","","","","","","","","","","","ballFalling","322.3","356.42114317029973","357.87","4","fallScene","true","","","","120","",""
"","","","","","html-keyboard-response","304","1163824","0.0-24.0-1.23","66b91ee649636fce844ef133","6790928bebf0b969fc839b02","679826a3bee717b33834ef95","passed","","767","","","","","","","","","","","","","","j","yesOrNo","","","","4","","","gt","1000","","120","356.42114317029973","357.87"
"","","","","","html-keyboard-response","305","1166169","0.0-25.0","66b91ee649636fce844ef133","6790928bebf0b969fc839b02","679826a3bee717b33834ef95","passed","","2344","","","","","","","","","","","","","<p><span style=""font-size:40px;"">BLOCK 6</span></p><p><span style=""font-size:25px;"">You have <b style=""color: #FF644F;""><strong>3 second(s)</strong></b> to respond to the following trials.</span><br></p><p></p> <!-- Blank line -->
                <p id=""blinking-text"" style=""font-weight; animation: blink 2s infinite;"">Press Space to continue</p>
                <style>
                    @keyframes blink {
                        50% {
                            opacity: 0;
                        }
                    }
                </style></p>"," ","","","","","","","","","","","","",""
