"success","timeout","failed_images","failed_audio","failed_video","trial_type","trial_index","time_elapsed","internal_node_id","subject_id","study_id","session_id","practiceTestResult","view_history","rt","width","height","webaudio","browser","browser_version","mobile","os","fullscreen","vsync_rate","webcam","microphone","url","stimulus","response","task","ball_X","obstacle_groundTruth_x","obstacle_groundTruth_y","stimulus_idx","trial_name","flipped","choice","timeLimit","question_order","comprehensionCheck","currentTrial","obstacle_choice_x","obstacle_choice_y"
"true","false","[]","[]","[]","preload","0","92","0.0-0.0","66c1fad08b1338ad3f23e24c","6790928bebf0b969fc839b02","679825fd91cc29d18e11b5b3","passed","","","","","","","","","","","","","","","","","","","","","","","","","","","","","",""
"","","","","","instructions","1","18888","0.0-1.0","66c1fad08b1338ad3f23e24c","6790928bebf0b969fc839b02","679825fd91cc29d18e11b5b3","passed","[{""page_index"":0,""viewing_time"":18795}]","18795","","","","","","","","","","","","","","","","","","","","","","","","","","","",""
"","","","","","browser-check","2","20902","0.0-2.0","66c1fad08b1338ad3f23e24c","6790928bebf0b969fc839b02","679825fd91cc29d18e11b5b3","passed","","","1494","765","true","chrome","131.0.0","false","Windows 10","true","29.99","true","true","","","","","","","","","","","","","","","","",""
"","","","","","external-html","3","34668","0.0-3.0","66c1fad08b1338ad3f23e24c","6790928bebf0b969fc839b02","679825fd91cc29d18e11b5b3","passed","","13704","","","","","","","","","","","","consent.html","","","","","","","","","","","","","","","",""
"true","","","","","fullscreen","4","39345","0.0-4.0","66c1fad08b1338ad3f23e24c","6790928bebf0b969fc839b02","679825fd91cc29d18e11b5b3","passed","","4363","","","","","","","","","","","","","","","","","","","","","","","","","","","",""
"","","","","","browser-check","5","41368","0.0-5.0","66c1fad08b1338ad3f23e24c","6790928bebf0b969fc839b02","679825fd91cc29d18e11b5b3","passed","","","1494","934","true","chrome","131.0.0","false","Windows 10","true","30","true","true","","","","","","","","","","","","","","","","",""
"","","","","","html-keyboard-response","6","41634","0.0-6.0","66c1fad08b1338ad3f23e24c","6790928bebf0b969fc839b02","679825fd91cc29d18e11b5b3","passed","","264","","","","","","","","","","","","","<p><b>This experiment requires keyboard input.</b></p> 
        <p><b>To ensure your response will be recorded successfully, please press 'Space' to continue.</b></p>
        <p>If you can't proceed, you won't be able to complete this study.</p>
        <p></p> <!-- Blank line -->
        <p id=""blinking-text"" style=""font-weight; animation: blink 2s infinite;"">Press Space to continue</p>
        <style>
            @keyframes blink {
                50% {
                    opacity: 0;
                }
            }
        </style>"," ","","","","","","","","","","","","","",""
"","","","","","html-keyboard-response","7","45867","0.0-7.0","66c1fad08b1338ad3f23e24c","6790928bebf0b969fc839b02","679825fd91cc29d18e11b5b3","passed","","4232","","","","","","","","","","","","","<p><b>This experiment requires keyboard input.</b></p> 
        <p><b>To ensure your response will be recorded successfully, please press the 'f' key to continue.</b></p>
        <p>If you can't proceed, you won't be able to complete this study.</p>
        <p></p> <!-- Blank line -->
        <p id=""blinking-text"" style=""font-weight; animation: blink 2s infinite;"">Press f to continue</p>
        <style>
            @keyframes blink {
                50% {
                    opacity: 0;
                }
            }
        </style>","f","","","","","","","","","","","","","",""
"","","","","","html-keyboard-response","8","47009","0.0-8.0","66c1fad08b1338ad3f23e24c","6790928bebf0b969fc839b02","679825fd91cc29d18e11b5b3","passed","","1141","","","","","","","","","","","","","<p><b>This experiment requires keyboard input.</b></p> 
        <p><b>To ensure your response will be recorded successfully, please press the 'j' key to continue.</b></p>
        <p>If you can't proceed, you won't be able to complete this study.</p>
        <p></p> <!-- Blank line -->
        <p id=""blinking-text"" style=""font-weight; animation: blink 2s infinite;"">Press j to continue</p>
        <style>
            @keyframes blink {
                50% {
                    opacity: 0;
                }
            }
        </style>","j","","","","","","","","","","","","","",""
"","","","","","browser-check","9","49018","0.0-9.0","66c1fad08b1338ad3f23e24c","6790928bebf0b969fc839b02","679825fd91cc29d18e11b5b3","passed","","","1494","934","true","chrome","131.0.0","false","Windows 10","true","30","true","true","","","","","","","","","","","","","","","","",""
"","","","","","survey-text","10","52637","0.0-10.0","66c1fad08b1338ad3f23e24c","6790928bebf0b969fc839b02","679825fd91cc29d18e11b5b3","passed","","3615","","","","","","","","","","","","","","{""prolificID"":""66c1fad08b1338ad3f23e24c""}","","","","","","","","","","","","","",""
"","","","","","instructions","11","102992","0.0-11.0-0.0-0.0","66c1fad08b1338ad3f23e24c","6790928bebf0b969fc839b02","679825fd91cc29d18e11b5b3","passed","[{""page_index"":0,""viewing_time"":21206},{""page_index"":1,""viewing_time"":4182},{""page_index"":2,""viewing_time"":11314},{""page_index"":3,""viewing_time"":13652}]","50355","","","","","","","","","","","","","","","","","","","","","","","","","","","",""
"","","","","","html-keyboard-response","12","113714","0.0-11.0-0.0-1.0","66c1fad08b1338ad3f23e24c","6790928bebf0b969fc839b02","679825fd91cc29d18e11b5b3","passed","","10209","","","","","","","","","","","","","<br>Remember! After a ball falls, the screen will disappear, and you'll decide if the proposed position is where the hidden triangle was. <br>You will now practice this by watching a few videos and making decisions.<p>To respond:<br style=""margin-bottom: 5px; text-indent: -20px; padding-left: 20px;"">- Press <b style=""color: #12AD2B;"">J for Yes</b>, if you think the triangle is in the correct position.<br style=""margin-top: 0; text-indent: -20px; padding-left: 20px;"">- Press <b style=""color: orange;"">F for No</b>, if you think the triangle is not in the correct position.</p><p>In this practice round, there is no time limit. Focus on getting comfortable with the task first.<br>Press either J or F to begin your practice trials.</p><img src = ""YesOrNo_instruction.png"" style=""width: 65%;""></img>","j","","","","","","","","","","","","","",""
"","","","","","html-keyboard-response","13","115400","0.0-11.0-0.0-2.0-0.0","66c1fad08b1338ad3f23e24c","6790928bebf0b969fc839b02","679825fd91cc29d18e11b5b3","passed","","","","","","","","","","","","","","","","","ballFalling_prac","416","464","296","1","fallScene","false","","","","","","",""
"","","","","","html-keyboard-response","14","117665","0.0-11.0-0.0-2.0-1.0","66c1fad08b1338ad3f23e24c","6790928bebf0b969fc839b02","679825fd91cc29d18e11b5b3","passed","","2251","","","","","","","","","","","","","","j","yesOrNo_prac_noTimed","","","","1","","","gt","NA","","","","",""
"","","","","","html-keyboard-response","15","119233","0.0-11.0-0.0-2.0-0.1","66c1fad08b1338ad3f23e24c","6790928bebf0b969fc839b02","679825fd91cc29d18e11b5b3","passed","","","","","","","","","","","","","","","","","ballFalling_prac","441","414","302","5","fallScene","true","","","","","","",""
"","","","","","html-keyboard-response","16","120724","0.0-11.0-0.0-2.0-1.1","66c1fad08b1338ad3f23e24c","6790928bebf0b969fc839b02","679825fd91cc29d18e11b5b3","passed","","1488","","","","","","","","","","","","","","j","yesOrNo_prac_noTimed","","","","5","","","close gt","NA","","","","",""
"","","","","","html-keyboard-response","17","122832","0.0-11.0-0.0-2.0-0.2","66c1fad08b1338ad3f23e24c","6790928bebf0b969fc839b02","679825fd91cc29d18e11b5b3","passed","","","","","","","","","","","","","","","","","ballFalling_prac","660","666","350","3","fallScene","false","","","","","","",""
"","","","","","html-keyboard-response","18","124918","0.0-11.0-0.0-2.0-1.2","66c1fad08b1338ad3f23e24c","6790928bebf0b969fc839b02","679825fd91cc29d18e11b5b3","passed","","2083","","","","","","","","","","","","","","f","yesOrNo_prac_noTimed","","","","3","","","wrong direction","NA","","","","",""
"","","","","","instructions","19","132537","0.0-11.0-0.0-3.0","66c1fad08b1338ad3f23e24c","6790928bebf0b969fc839b02","679825fd91cc29d18e11b5b3","passed","[{""page_index"":0,""viewing_time"":4139},{""page_index"":1,""viewing_time"":3479}]","7618","","","","","","","","","","","","","","","","","","","","","","","","","","","",""
"","","","","","html-button-response","20","138339","0.0-11.0-0.0-4.0","66c1fad08b1338ad3f23e24c","6790928bebf0b969fc839b02","679825fd91cc29d18e11b5b3","passed","","5293","","","","","","","","","","","","","<p>To make sure you understood the task, we just have a <b>brief quiz</b> here.</p><p>If you need to review the instructions, click 'Previous'.</p><p>It's important to understand the task to do the study, so you have to pass the quiz to move to the study.</p>","1","","","","","","","","","","","","","",""
"","","","","","survey-multi-choice","21","162253","0.0-11.0-1.0-0.0","66c1fad08b1338ad3f23e24c","6790928bebf0b969fc839b02","679825fd91cc29d18e11b5b3","passed","","23912","","","","","","","","","","","","","","{""generalProcedure"":""Watch a video of a ball falling, some of it behind a gray screen. After each video, decide if the triangle is at the spot where the ball hit the triangle behind the screen. There is time limit for the response.""}","","","","","","","","","","[0]","","","",""
"","","","","","survey-multi-choice","22","168027","0.0-11.0-1.0-1.0","66c1fad08b1338ad3f23e24c","6790928bebf0b969fc839b02","679825fd91cc29d18e11b5b3","passed","","5772","","","","","","","","","","","","","","{""checkBallHitObstacle"":""No.""}","","","","","","","","","","[0]","","","",""
"","","","","","survey-multi-choice","23","173138","0.0-11.0-1.0-2.0","66c1fad08b1338ad3f23e24c","6790928bebf0b969fc839b02","679825fd91cc29d18e11b5b3","passed","","5110","","","","","","","","","","","","","","{""checkTriangleVisibility"":""No, the triangle is hidden behind the gray screen.""}","","","","","","","","","","[0]","","","",""
"","","","","","survey-multi-choice","24","182348","0.0-11.0-1.0-3.0","66c1fad08b1338ad3f23e24c","6790928bebf0b969fc839b02","679825fd91cc29d18e11b5b3","passed","","9208","","","","","","","","","","","","","","{""checkTimedResponse"":""Your response will not be recorded, and the trial will move to the next one.""}","","","","","","","","","","[0]","","","",""
"","","","","","survey-multi-choice","25","191156","0.0-11.0-1.0-4.0","66c1fad08b1338ad3f23e24c","6790928bebf0b969fc839b02","679825fd91cc29d18e11b5b3","passed","","8806","","","","","","","","","","","","","","{""checkTimeBlockNotice"":""You won't be notified about the time limit.""}","","","","","","","","","","[0]","","","",""
"","","","","","survey-multi-choice","26","201392","0.0-11.0-1.0-5.0","66c1fad08b1338ad3f23e24c","6790928bebf0b969fc839b02","679825fd91cc29d18e11b5b3","passed","","10234","","","","","","","","","","","","","","{""checkTimeBlockSameness"":""Yes, the time limit is the same for all trials within a block.""}","","","","","","","","","","[0]","","","",""
"","","","","","survey-multi-choice","27","220598","0.0-11.0-1.0-6.0","66c1fad08b1338ad3f23e24c","6790928bebf0b969fc839b02","679825fd91cc29d18e11b5b3","passed","","19205","","","","","","","","","","","","","","{""checkTrianglePrecision"":""No. The proposed purple triangle is not in the correct position because it doesn't match the location of the white triangle exactly.""}","","","","","","","","","","[0]","","","",""
"","","","","","html-button-response","28","224279","0.0-11.0-2.0-0.0","66c1fad08b1338ad3f23e24c","6790928bebf0b969fc839b02","679825fd91cc29d18e11b5b3","passed","","3679","","","","","","","","","","","","","<p>Oops! You did not pass the quiz.</p><p>You will now repeat the instructions and practice.</p>","0","","","","","","","","","","","failed","","",""
"","","","","","instructions","29","252046","0.0-11.1-0.1-0.1","66c1fad08b1338ad3f23e24c","6790928bebf0b969fc839b02","679825fd91cc29d18e11b5b3","passed","[{""page_index"":0,""viewing_time"":5893},{""page_index"":1,""viewing_time"":3033},{""page_index"":0,""viewing_time"":3450},{""page_index"":1,""viewing_time"":8553},{""page_index"":2,""viewing_time"":1451},{""page_index"":3,""viewing_time"":5385}]","27766","","","","","","","","","","","","","","","","","","","","","","","","","","","",""
"","","","","","html-keyboard-response","30","258429","0.0-11.1-0.1-1.1","66c1fad08b1338ad3f23e24c","6790928bebf0b969fc839b02","679825fd91cc29d18e11b5b3","passed","","5866","","","","","","","","","","","","","<br>Remember! After a ball falls, the screen will disappear, and you'll decide if the proposed position is where the hidden triangle was. <br>You will now practice this by watching a few videos and making decisions.<p>To respond:<br style=""margin-bottom: 5px; text-indent: -20px; padding-left: 20px;"">- Press <b style=""color: #12AD2B;"">J for Yes</b>, if you think the triangle is in the correct position.<br style=""margin-top: 0; text-indent: -20px; padding-left: 20px;"">- Press <b style=""color: orange;"">F for No</b>, if you think the triangle is not in the correct position.</p><p>In this practice round, there is no time limit. Focus on getting comfortable with the task first.<br>Press either J or F to begin your practice trials.</p><img src = ""YesOrNo_instruction.png"" style=""width: 65%;""></img>","j","","","","","","","","","","","","","",""
"","","","","","html-keyboard-response","31","259995","0.0-11.1-0.1-2.1-0.3","66c1fad08b1338ad3f23e24c","6790928bebf0b969fc839b02","679825fd91cc29d18e11b5b3","passed","","","","","","","","","","","","","","","","","ballFalling_prac","416","464","296","1","fallScene","false","","","","","","",""
"","","","","","html-keyboard-response","32","261736","0.0-11.1-0.1-2.1-1.3","66c1fad08b1338ad3f23e24c","6790928bebf0b969fc839b02","679825fd91cc29d18e11b5b3","passed","","1738","","","","","","","","","","","","","","j","yesOrNo_prac_noTimed","","","","1","","","gt","NA","","","","",""
"","","","","","html-keyboard-response","33","263328","0.0-11.1-0.1-2.1-0.4","66c1fad08b1338ad3f23e24c","6790928bebf0b969fc839b02","679825fd91cc29d18e11b5b3","passed","","","","","","","","","","","","","","","","","ballFalling_prac","441","414","302","5","fallScene","true","","","","","","",""
"","","","","","html-keyboard-response","34","263626","0.0-11.1-0.1-2.1-1.4","66c1fad08b1338ad3f23e24c","6790928bebf0b969fc839b02","679825fd91cc29d18e11b5b3","passed","","295","","","","","","","","","","","","","","j","yesOrNo_prac_noTimed","","","","5","","","close gt","NA","","","","",""
"","","","","","html-keyboard-response","35","265728","0.0-11.1-0.1-2.1-0.5","66c1fad08b1338ad3f23e24c","6790928bebf0b969fc839b02","679825fd91cc29d18e11b5b3","passed","","","","","","","","","","","","","","","","","ballFalling_prac","660","666","350","3","fallScene","false","","","","","","",""
"","","","","","html-keyboard-response","36","266518","0.0-11.1-0.1-2.1-1.5","66c1fad08b1338ad3f23e24c","6790928bebf0b969fc839b02","679825fd91cc29d18e11b5b3","passed","","788","","","","","","","","","","","","","","j","yesOrNo_prac_noTimed","","","","3","","","wrong direction","NA","","","","",""
"","","","","","instructions","37","298310","0.0-11.1-0.1-3.1","66c1fad08b1338ad3f23e24c","6790928bebf0b969fc839b02","679825fd91cc29d18e11b5b3","passed","[{""page_index"":0,""viewing_time"":21391},{""page_index"":1,""viewing_time"":10399}]","31790","","","","","","","","","","","","","","","","","","","","","","","","","","","",""
"","","","","","html-button-response","38","302132","0.0-11.1-0.1-4.1","66c1fad08b1338ad3f23e24c","6790928bebf0b969fc839b02","679825fd91cc29d18e11b5b3","passed","","3319","","","","","","","","","","","","","<p>To make sure you understood the task, we just have a <b>brief quiz</b> here.</p><p>If you need to review the instructions, click 'Previous'.</p><p>It's important to understand the task to do the study, so you have to pass the quiz to move to the study.</p>","1","","","","","","","","","","","","","",""
"","","","","","survey-multi-choice","39","311150","0.0-11.1-1.1-0.1","66c1fad08b1338ad3f23e24c","6790928bebf0b969fc839b02","679825fd91cc29d18e11b5b3","passed","","9016","","","","","","","","","","","","","","{""generalProcedure"":""Watch a video of a ball falling, some of it behind a gray screen. After each video, decide if the triangle is at the spot where the ball hit the triangle behind the screen. There is time limit for the response.""}","","","","","","","","","","[0]","","","",""
"","","","","","survey-multi-choice","40","327600","0.0-11.1-1.1-1.1","66c1fad08b1338ad3f23e24c","6790928bebf0b969fc839b02","679825fd91cc29d18e11b5b3","passed","","16448","","","","","","","","","","","","","","{""checkBallHitObstacle"":""No.""}","","","","","","","","","","[0]","","","",""
"","","","","","survey-multi-choice","41","331513","0.0-11.1-1.1-2.1","66c1fad08b1338ad3f23e24c","6790928bebf0b969fc839b02","679825fd91cc29d18e11b5b3","passed","","3912","","","","","","","","","","","","","","{""checkTriangleVisibility"":""No, the triangle is hidden behind the gray screen.""}","","","","","","","","","","[0]","","","",""
"","","","","","survey-multi-choice","42","335583","0.0-11.1-1.1-3.1","66c1fad08b1338ad3f23e24c","6790928bebf0b969fc839b02","679825fd91cc29d18e11b5b3","passed","","4068","","","","","","","","","","","","","","{""checkTimedResponse"":""Your response will not be recorded, and the trial will move to the next one.""}","","","","","","","","","","[0]","","","",""
"","","","","","survey-multi-choice","43","343263","0.0-11.1-1.1-4.1","66c1fad08b1338ad3f23e24c","6790928bebf0b969fc839b02","679825fd91cc29d18e11b5b3","passed","","7678","","","","","","","","","","","","","","{""checkTimeBlockNotice"":""At the beginning of each block.""}","","","","","","","","","","[0]","","","",""
"","","","","","survey-multi-choice","44","354414","0.0-11.1-1.1-5.1","66c1fad08b1338ad3f23e24c","6790928bebf0b969fc839b02","679825fd91cc29d18e11b5b3","passed","","11150","","","","","","","","","","","","","","{""checkTimeBlockSameness"":""Yes, the time limit is the same for all trials within a block.""}","","","","","","","","","","[0]","","","",""
"","","","","","survey-multi-choice","45","360680","0.0-11.1-1.1-6.1","66c1fad08b1338ad3f23e24c","6790928bebf0b969fc839b02","679825fd91cc29d18e11b5b3","passed","","6264","","","","","","","","","","","","","","{""checkTrianglePrecision"":""No. The proposed purple triangle is not in the correct position because it doesn't match the location of the white triangle exactly.""}","","","","","","","","","","[0]","","","",""
"","","","","","html-button-response","46","364066","0.0-11.1-2.1-0.1","66c1fad08b1338ad3f23e24c","6790928bebf0b969fc839b02","679825fd91cc29d18e11b5b3","passed","","3384","","","","","","","","","","","","","<p>Oops! You did not pass the quiz.</p><p>You will now repeat the instructions and practice.</p>","0","","","","","","","","","","","failed","","",""
"","","","","","instructions","47","379315","0.0-11.2-0.2-0.2","66c1fad08b1338ad3f23e24c","6790928bebf0b969fc839b02","679825fd91cc29d18e11b5b3","passed","[{""page_index"":0,""viewing_time"":10745},{""page_index"":1,""viewing_time"":1152},{""page_index"":2,""viewing_time"":1071},{""page_index"":3,""viewing_time"":2280}]","15249","","","","","","","","","","","","","","","","","","","","","","","","","","","",""
"","","","","","html-keyboard-response","48","381488","0.0-11.2-0.2-1.2","66c1fad08b1338ad3f23e24c","6790928bebf0b969fc839b02","679825fd91cc29d18e11b5b3","passed","","1661","","","","","","","","","","","","","<br>Remember! After a ball falls, the screen will disappear, and you'll decide if the proposed position is where the hidden triangle was. <br>You will now practice this by watching a few videos and making decisions.<p>To respond:<br style=""margin-bottom: 5px; text-indent: -20px; padding-left: 20px;"">- Press <b style=""color: #12AD2B;"">J for Yes</b>, if you think the triangle is in the correct position.<br style=""margin-top: 0; text-indent: -20px; padding-left: 20px;"">- Press <b style=""color: orange;"">F for No</b>, if you think the triangle is not in the correct position.</p><p>In this practice round, there is no time limit. Focus on getting comfortable with the task first.<br>Press either J or F to begin your practice trials.</p><img src = ""YesOrNo_instruction.png"" style=""width: 65%;""></img>","j","","","","","","","","","","","","","",""
"","","","","","html-keyboard-response","49","383041","0.0-11.2-0.2-2.2-0.6","66c1fad08b1338ad3f23e24c","6790928bebf0b969fc839b02","679825fd91cc29d18e11b5b3","passed","","","","","","","","","","","","","","","","","ballFalling_prac","416","464","296","1","fallScene","false","","","","","","",""
"","","","","","html-keyboard-response","50","384154","0.0-11.2-0.2-2.2-1.6","66c1fad08b1338ad3f23e24c","6790928bebf0b969fc839b02","679825fd91cc29d18e11b5b3","passed","","1111","","","","","","","","","","","","","","j","yesOrNo_prac_noTimed","","","","1","","","gt","NA","","","","",""
"","","","","","html-keyboard-response","51","386274","0.0-11.2-0.2-2.2-0.7","66c1fad08b1338ad3f23e24c","6790928bebf0b969fc839b02","679825fd91cc29d18e11b5b3","passed","","","","","","","","","","","","","","","","","ballFalling_prac","660","666","350","3","fallScene","false","","","","","","",""
"","","","","","html-keyboard-response","52","387378","0.0-11.2-0.2-2.2-1.7","66c1fad08b1338ad3f23e24c","6790928bebf0b969fc839b02","679825fd91cc29d18e11b5b3","passed","","1102","","","","","","","","","","","","","","j","yesOrNo_prac_noTimed","","","","3","","","wrong direction","NA","","","","",""
"","","","","","html-keyboard-response","53","388975","0.0-11.2-0.2-2.2-0.8","66c1fad08b1338ad3f23e24c","6790928bebf0b969fc839b02","679825fd91cc29d18e11b5b3","passed","","","","","","","","","","","","","","","","","ballFalling_prac","441","414","302","5","fallScene","true","","","","","","",""
"","","","","","html-keyboard-response","54","389910","0.0-11.2-0.2-2.2-1.8","66c1fad08b1338ad3f23e24c","6790928bebf0b969fc839b02","679825fd91cc29d18e11b5b3","passed","","932","","","","","","","","","","","","","","j","yesOrNo_prac_noTimed","","","","5","","","close gt","NA","","","","",""
"","","","","","instructions","55","393088","0.0-11.2-0.2-3.2","66c1fad08b1338ad3f23e24c","6790928bebf0b969fc839b02","679825fd91cc29d18e11b5b3","passed","[{""page_index"":0,""viewing_time"":1768},{""page_index"":1,""viewing_time"":1409}]","3177","","","","","","","","","","","","","","","","","","","","","","","","","","","",""
"","","","","","html-button-response","56","395080","0.0-11.2-0.2-4.2","66c1fad08b1338ad3f23e24c","6790928bebf0b969fc839b02","679825fd91cc29d18e11b5b3","passed","","1487","","","","","","","","","","","","","<p>To make sure you understood the task, we just have a <b>brief quiz</b> here.</p><p>If you need to review the instructions, click 'Previous'.</p><p>It's important to understand the task to do the study, so you have to pass the quiz to move to the study.</p>","1","","","","","","","","","","","","","",""
"","","","","","survey-multi-choice","57","406774","0.0-11.2-1.2-0.2","66c1fad08b1338ad3f23e24c","6790928bebf0b969fc839b02","679825fd91cc29d18e11b5b3","passed","","11693","","","","","","","","","","","","","","{""generalProcedure"":""Watch a video of a ball falling, some of it behind a gray screen. After each video, decide if the triangle is at the spot where the ball hit the triangle behind the screen. There is time limit for the response.""}","","","","","","","","","","[0]","","","",""
"","","","","","survey-multi-choice","58","409803","0.0-11.2-1.2-1.2","66c1fad08b1338ad3f23e24c","6790928bebf0b969fc839b02","679825fd91cc29d18e11b5b3","passed","","3027","","","","","","","","","","","","","","{""checkBallHitObstacle"":""Yes.""}","","","","","","","","","","[0]","","","",""
"","","","","","survey-multi-choice","59","413506","0.0-11.2-1.2-2.2","66c1fad08b1338ad3f23e24c","6790928bebf0b969fc839b02","679825fd91cc29d18e11b5b3","passed","","3701","","","","","","","","","","","","","","{""checkTriangleVisibility"":""No, the triangle is hidden behind the gray screen.""}","","","","","","","","","","[0]","","","",""
"","","","","","survey-multi-choice","60","418104","0.0-11.2-1.2-3.2","66c1fad08b1338ad3f23e24c","6790928bebf0b969fc839b02","679825fd91cc29d18e11b5b3","passed","","4596","","","","","","","","","","","","","","{""checkTimedResponse"":""Your response will not be recorded, and the trial will move to the next one.""}","","","","","","","","","","[0]","","","",""
"","","","","","survey-multi-choice","61","423575","0.0-11.2-1.2-4.2","66c1fad08b1338ad3f23e24c","6790928bebf0b969fc839b02","679825fd91cc29d18e11b5b3","passed","","5470","","","","","","","","","","","","","","{""checkTimeBlockNotice"":""At the beginning of each block.""}","","","","","","","","","","[0]","","","",""
"","","","","","survey-multi-choice","62","429398","0.0-11.2-1.2-5.2","66c1fad08b1338ad3f23e24c","6790928bebf0b969fc839b02","679825fd91cc29d18e11b5b3","passed","","5821","","","","","","","","","","","","","","{""checkTimeBlockSameness"":""Yes, the time limit is the same for all trials within a block.""}","","","","","","","","","","[0]","","","",""
"","","","","","survey-multi-choice","63","434460","0.0-11.2-1.2-6.2","66c1fad08b1338ad3f23e24c","6790928bebf0b969fc839b02","679825fd91cc29d18e11b5b3","passed","","5060","","","","","","","","","","","","","","{""checkTrianglePrecision"":""No. The proposed purple triangle is not in the correct position because it doesn't match the location of the white triangle exactly.""}","","","","","","","","","","[0]","","","",""
"","","","","","instructions","64","454168","0.0-12.0","66c1fad08b1338ad3f23e24c","6790928bebf0b969fc839b02","679825fd91cc29d18e11b5b3","passed","[{""page_index"":0,""viewing_time"":1928},{""page_index"":1,""viewing_time"":6907},{""page_index"":2,""viewing_time"":6161},{""page_index"":3,""viewing_time"":4711}]","19707","","","","","","","","","","","","","","","","","","","","","","","","","","","",""
"","","","","","instructions","65","458843","0.0-13.0-0.0","66c1fad08b1338ad3f23e24c","6790928bebf0b969fc839b02","679825fd91cc29d18e11b5b3","passed","[{""page_index"":0,""viewing_time"":4673}]","4674","","","","","","","","","","","","","","","","","","","","","","","","","","","",""
"","","","","","html-keyboard-response","66","461409","0.0-13.0-1.0","66c1fad08b1338ad3f23e24c","6790928bebf0b969fc839b02","679825fd91cc29d18e11b5b3","passed","","2565","","","","","","","","","","","","","<p><span style=""font-size:40px;"">Practice BLOCK 1</span></p><p><span style=""font-size:25px;"">You have <b style=""color: #FF644F;""><strong>3 second(s)</strong></b> to respond to the following trials.</span><br></p><p id=""blinking-text"" style=""font-weight; animation: blink 2s infinite;"">Press Space to continue</p><style>
                    @keyframes blink {
                        50% {
                            opacity: 0;
                        }
                    }
                </style>"," ","","","","","","","","","","","","","",""
"","","","","","html-keyboard-response","67","462956","0.0-13.0-2.0-0.0","66c1fad08b1338ad3f23e24c","6790928bebf0b969fc839b02","679825fd91cc29d18e11b5b3","passed","","","","","","","","","","","","","","","","","ballFalling_prac","584","536","296","1","fallScene","true","","","","","","",""
"","","","","","html-keyboard-response","68","465971","0.0-13.0-2.0-1.0","66c1fad08b1338ad3f23e24c","6790928bebf0b969fc839b02","679825fd91cc29d18e11b5b3","passed","","2063","","","","","","","","","","","","","","f","yesOrNo_prac","","","","1","","","close gt","3000","","","","",""
"","","","","","html-keyboard-response","69","467556","0.0-13.0-2.0-0.1","66c1fad08b1338ad3f23e24c","6790928bebf0b969fc839b02","679825fd91cc29d18e11b5b3","passed","","","","","","","","","","","","","","","","","ballFalling_prac","660","610","263","4","fallScene","false","","","","","","",""
"","","","","","html-keyboard-response","70","470570","0.0-13.0-2.0-1.1","66c1fad08b1338ad3f23e24c","6790928bebf0b969fc839b02","679825fd91cc29d18e11b5b3","passed","","1205","","","","","","","","","","","","","","j","yesOrNo_prac","","","","4","","","gt","3000","","","","",""
"","","","","","html-keyboard-response","71","472122","0.0-13.0-2.0-0.2","66c1fad08b1338ad3f23e24c","6790928bebf0b969fc839b02","679825fd91cc29d18e11b5b3","passed","","","","","","","","","","","","","","","","","ballFalling_prac","416","464","296","1","fallScene","false","","","","","","",""
"","","","","","html-keyboard-response","72","475137","0.0-13.0-2.0-1.2","66c1fad08b1338ad3f23e24c","6790928bebf0b969fc839b02","679825fd91cc29d18e11b5b3","passed","","844","","","","","","","","","","","","","","f","yesOrNo_prac","","","","1","","","far gt","3000","","","","",""
"","","","","","html-keyboard-response","73","477860","0.0-13.0-3.0","66c1fad08b1338ad3f23e24c","6790928bebf0b969fc839b02","679825fd91cc29d18e11b5b3","passed","","2722","","","","","","","","","","","","","<p><span style=""font-size:40px;"">Practice BLOCK 2</span></p><p><span style=""font-size:25px;"">You have <b style=""color: #FF644F;""><strong>1 second(s)</strong></b> to respond to the following trials.</span><br></p><p id=""blinking-text"" style=""font-weight; animation: blink 2s infinite;"">Press Space to continue</p><style>
                    @keyframes blink {
                        50% {
                            opacity: 0;
                        }
                    }
                </style>"," ","","","","","","","","","","","","","",""
"","","","","","html-keyboard-response","74","479422","0.0-13.0-4.0-0.0","66c1fad08b1338ad3f23e24c","6790928bebf0b969fc839b02","679825fd91cc29d18e11b5b3","passed","","","","","","","","","","","","","","","","","ballFalling_prac","441","500","317","6","fallScene","true","","","","","","",""
"","","","","","html-keyboard-response","75","480436","0.0-13.0-4.0-1.0","66c1fad08b1338ad3f23e24c","6790928bebf0b969fc839b02","679825fd91cc29d18e11b5b3","passed","","959","","","","","","","","","","","","","","j","yesOrNo_prac","","","","6","","","gt","1000","","","","",""
"","","","","","html-keyboard-response","76","482022","0.0-13.0-4.0-0.1","66c1fad08b1338ad3f23e24c","6790928bebf0b969fc839b02","679825fd91cc29d18e11b5b3","passed","","","","","","","","","","","","","","","","","ballFalling_prac","660","610","263","4","fallScene","false","","","","","","",""
"","","","","","html-keyboard-response","77","483036","0.0-13.0-4.0-1.1","66c1fad08b1338ad3f23e24c","6790928bebf0b969fc839b02","679825fd91cc29d18e11b5b3","passed","","386","","","","","","","","","","","","","","j","yesOrNo_prac","","","","4","","","far gt","1000","","","","",""
"","","","","","html-keyboard-response","78","485155","0.0-13.0-4.0-0.2","66c1fad08b1338ad3f23e24c","6790928bebf0b969fc839b02","679825fd91cc29d18e11b5b3","passed","","","","","","","","","","","","","","","","","ballFalling_prac","340","334","350","3","fallScene","true","","","","","","",""
"","","","","","html-keyboard-response","79","486168","0.0-13.0-4.0-1.2","66c1fad08b1338ad3f23e24c","6790928bebf0b969fc839b02","679825fd91cc29d18e11b5b3","passed","","602","","","","","","","","","","","","","","j","yesOrNo_prac","","","","3","","","close gt","1000","","","","",""
"","","","","","instructions","80","491924","0.0-13.0-5.0","66c1fad08b1338ad3f23e24c","6790928bebf0b969fc839b02","679825fd91cc29d18e11b5b3","passed","[{""page_index"":0,""viewing_time"":5755}]","5755","","","","","","","","","","","","","","","","","","","","","","","","","","","",""
"","","","","","html-keyboard-response","81","494084","0.0-13.0-6.0","66c1fad08b1338ad3f23e24c","6790928bebf0b969fc839b02","679825fd91cc29d18e11b5b3","passed","","2159","","","","","","","","","","","","","<p><span style=""font-size:40px;"">Practice Test BLOCK 1</span></p><p><span style=""font-size:25px;"">You have <b style=""color: #FF644F;""><strong>1 second(s)</strong></b> to respond to the following trials.</span><br></p><p id=""blinking-text"" style=""font-weight; animation: blink 2s infinite;"">Press Space to continue</p><style>
                    @keyframes blink {
                        50% {
                            opacity: 0;
                        }
                    }
                </style>"," ","","","","","","","","","","","","","",""
"","","","","","html-keyboard-response","82","495655","0.0-13.0-7.0-0.0","66c1fad08b1338ad3f23e24c","6790928bebf0b969fc839b02","679825fd91cc29d18e11b5b3","passed","","","","","","","","","","","","","","","","","ballFalling_prac","559","586","302","5","fallScene","false","","","","","","",""
"","","","","","html-keyboard-response","83","496670","0.0-13.0-7.0-1.0","66c1fad08b1338ad3f23e24c","6790928bebf0b969fc839b02","679825fd91cc29d18e11b5b3","passed","","506","","","","","","","","","","","","","","j","yesOrNo_prac","","","","5","","","gt","1000","","","","",""
"","","","","","html-keyboard-response","84","498221","0.0-13.0-7.0-0.1","66c1fad08b1338ad3f23e24c","6790928bebf0b969fc839b02","679825fd91cc29d18e11b5b3","passed","","","","","","","","","","","","","","","","","ballFalling_prac","441","500","317","6","fallScene","true","","","","","","",""
"","","","","","html-keyboard-response","85","499236","0.0-13.0-7.0-1.1","66c1fad08b1338ad3f23e24c","6790928bebf0b969fc839b02","679825fd91cc29d18e11b5b3","passed","","525","","","","","","","","","","","","","","f","yesOrNo_prac","","","","6","","","close gt","1000","","","","",""
"","","","","","html-keyboard-response","86","500821","0.0-13.0-7.0-0.2","66c1fad08b1338ad3f23e24c","6790928bebf0b969fc839b02","679825fd91cc29d18e11b5b3","passed","","","","","","","","","","","","","","","","","ballFalling_prac","340","390","263","4","fallScene","true","","","","","","",""
"","","","","","html-keyboard-response","87","501836","0.0-13.0-7.0-1.2","66c1fad08b1338ad3f23e24c","6790928bebf0b969fc839b02","679825fd91cc29d18e11b5b3","passed","","710","","","","","","","","","","","","","","j","yesOrNo_prac","","","","4","","","far gt","1000","","","","",""
"","","","","","html-keyboard-response","88","503967","0.0-13.0-8.0","66c1fad08b1338ad3f23e24c","6790928bebf0b969fc839b02","679825fd91cc29d18e11b5b3","passed","","2130","","","","","","","","","","","","","<p><span style=""font-size:40px;"">Practice Test BLOCK 2</span></p><p><span style=""font-size:25px;"">You have <b style=""color: #FF644F;""><strong>3 second(s)</strong></b> to respond to the following trials.</span><br></p><p id=""blinking-text"" style=""font-weight; animation: blink 2s infinite;"">Press Space to continue</p><style>
                    @keyframes blink {
                        50% {
                            opacity: 0;
                        }
                    }
                </style>"," ","","","","","","","","","","","","","",""
"","","","","","html-keyboard-response","89","505555","0.0-13.0-9.0-0.0","66c1fad08b1338ad3f23e24c","6790928bebf0b969fc839b02","679825fd91cc29d18e11b5b3","passed","","","","","","","","","","","","","","","","","ballFalling_prac","340","390","263","4","fallScene","true","","","","","","",""
"","","","","","html-keyboard-response","90","508570","0.0-13.0-9.0-1.0","66c1fad08b1338ad3f23e24c","6790928bebf0b969fc839b02","679825fd91cc29d18e11b5b3","passed","","616","","","","","","","","","","","","","","j","yesOrNo_prac","","","","4","","","close gt","3000","","","","",""
"","","","","","html-keyboard-response","91","510154","0.0-13.0-9.0-0.1","66c1fad08b1338ad3f23e24c","6790928bebf0b969fc839b02","679825fd91cc29d18e11b5b3","passed","","","","","","","","","","","","","","","","","ballFalling_prac","416","365","249","2","fallScene","false","","","","","","",""
"","","","","","html-keyboard-response","92","513168","0.0-13.0-9.0-1.1","66c1fad08b1338ad3f23e24c","6790928bebf0b969fc839b02","679825fd91cc29d18e11b5b3","passed","","945","","","","","","","","","","","","","","j","yesOrNo_prac","","","","2","","","gt","3000","","","","",""
"","","","","","html-keyboard-response","93","514754","0.0-13.0-9.0-0.2","66c1fad08b1338ad3f23e24c","6790928bebf0b969fc839b02","679825fd91cc29d18e11b5b3","passed","","","","","","","","","","","","","","","","","ballFalling_prac","559","586","302","5","fallScene","false","","","","","","",""
"","","","","","html-keyboard-response","94","517769","0.0-13.0-9.0-1.2","66c1fad08b1338ad3f23e24c","6790928bebf0b969fc839b02","679825fd91cc29d18e11b5b3","passed","","1091","","","","","","","","","","","","","","f","yesOrNo_prac","","","","5","","","far gt","3000","","","","",""
"","","","","","instructions","95","526146","0.0-14.0","66c1fad08b1338ad3f23e24c","6790928bebf0b969fc839b02","679825fd91cc29d18e11b5b3","passed","[{""page_index"":0,""viewing_time"":8375}]","8375","","","","","","","","","","","","","","","","","","","","","","","","","","","",""
"","","","","","html-keyboard-response","96","530394","0.0-15.0","66c1fad08b1338ad3f23e24c","6790928bebf0b969fc839b02","679825fd91cc29d18e11b5b3","passed","","4246","","","","","","","","","","","","","<p><span style=""font-size:40px;"">BLOCK 1</span></p><p><span style=""font-size:25px;"">You have <b style=""color: #FF644F;""><strong>1 second(s)</strong></b> to respond to the following trials.</span><br></p><p></p> <!-- Blank line -->
                <p id=""blinking-text"" style=""font-weight; animation: blink 2s infinite;"">Press Space to continue</p>
                <style>
                    @keyframes blink {
                        50% {
                            opacity: 0;
                        }
                    }
                </style></p>"," ","","","","","","","","","","","","","",""
"","","","","","html-keyboard-response","97","532404","0.0-16.0-0.0","66c1fad08b1338ad3f23e24c","6790928bebf0b969fc839b02","679825fd91cc29d18e11b5b3","passed","","","","","","","","","","","","","","","","","ballFalling","604.4000000000001","596.8711431702998","394.5","10","fallScene","true","","","","","1","",""
"","","","","","html-keyboard-response","98","533417","0.0-16.0-1.0","66c1fad08b1338ad3f23e24c","6790928bebf0b969fc839b02","679825fd91cc29d18e11b5b3","passed","","496","","","","","","","","","","","","","","j","yesOrNo","","","","10","","","lp","1000","","","1","603.4000000000001","215.50214355555383"
"","","","","","html-keyboard-response","99","534970","0.0-16.0-0.1","66c1fad08b1338ad3f23e24c","6790928bebf0b969fc839b02","679825fd91cc29d18e11b5b3","passed","","","","","","","","","","","","","","","","","ballFalling","322.3","356.42114317029973","357.87","4","fallScene","false","","","","","2","",""
"","","","","","html-keyboard-response","100","535980","0.0-16.0-1.1","66c1fad08b1338ad3f23e24c","6790928bebf0b969fc839b02","679825fd91cc29d18e11b5b3","passed","","494","","","","","","","","","","","","","","j","yesOrNo","","","","4","","","lp","1000","","","2","323.3","297.4070551689986"
"","","","","","html-keyboard-response","101","537537","0.0-16.0-0.2","66c1fad08b1338ad3f23e24c","6790928bebf0b969fc839b02","679825fd91cc29d18e11b5b3","passed","","","","","","","","","","","","","","","","","ballFalling","322.3","356.42114317029973","357.87","4","fallScene","false","","","","","3","",""
"","","","","","html-keyboard-response","102","538550","0.0-16.0-1.2","66c1fad08b1338ad3f23e24c","6790928bebf0b969fc839b02","679825fd91cc29d18e11b5b3","passed","","435","","","","","","","","","","","","","","f","yesOrNo","","","","4","","","gt","1000","","","3","356.42114317029973","357.87"
"","","","","","html-keyboard-response","103","540103","0.0-16.0-0.3","66c1fad08b1338ad3f23e24c","6790928bebf0b969fc839b02","679825fd91cc29d18e11b5b3","passed","","","","","","","","","","","","","","","","","ballFalling","500","453.67114317029973","210.33","5","fallScene","true","","","","","4","",""
"","","","","","html-keyboard-response","104","541106","0.0-16.0-1.3","66c1fad08b1338ad3f23e24c","6790928bebf0b969fc839b02","679825fd91cc29d18e11b5b3","passed","","850","","","","","","","","","","","","","","j","yesOrNo","","","","5","","","gt","1000","","","4","453.6711431702998","210.33"
"","","","","","html-keyboard-response","105","542904","0.0-16.0-0.4","66c1fad08b1338ad3f23e24c","6790928bebf0b969fc839b02","679825fd91cc29d18e11b5b3","passed","","","","","","","","","","","","","","","","","ballFalling","322.3","308.07114317029976","253.89","2","fallScene","true","","","","","5","",""
"","","","","","html-keyboard-response","106","543916","0.0-16.0-1.4","66c1fad08b1338ad3f23e24c","6790928bebf0b969fc839b02","679825fd91cc29d18e11b5b3","passed","","474","","","","","","","","","","","","","","f","yesOrNo","","","","2","","","lp","1000","","","5","321.3","151"
"","","","","","html-keyboard-response","107","545937","0.0-16.0-0.5","66c1fad08b1338ad3f23e24c","6790928bebf0b969fc839b02","679825fd91cc29d18e11b5b3","passed","","","","","","","","","","","","","","","","","ballFalling","500","510.8711431702997","369.03","8","fallScene","false","","","","","6","",""
"","","","","","html-keyboard-response","108","546952","0.0-16.0-1.5","66c1fad08b1338ad3f23e24c","6790928bebf0b969fc839b02","679825fd91cc29d18e11b5b3","passed","","678","","","","","","","","","","","","","","f","yesOrNo","","","","8","","","mid","1000","","","6","501","300"
"","","","","","html-keyboard-response","109","548970","0.0-16.0-0.6","66c1fad08b1338ad3f23e24c","6790928bebf0b969fc839b02","679825fd91cc29d18e11b5b3","passed","","","","","","","","","","","","","","","","","ballFalling","500","510.8711431702997","369.03","8","fallScene","true","","","","","7","",""
"","","","","","html-keyboard-response","110","549981","0.0-16.0-1.6","66c1fad08b1338ad3f23e24c","6790928bebf0b969fc839b02","679825fd91cc29d18e11b5b3","passed","","487","","","","","","","","","","","","","","j","yesOrNo","","","","8","","","lp","1000","","","7","501","151"
"","","","","","html-keyboard-response","111","551537","0.0-16.0-0.7","66c1fad08b1338ad3f23e24c","6790928bebf0b969fc839b02","679825fd91cc29d18e11b5b3","passed","","","","","","","","","","","","","","","","","ballFalling","604.4000000000001","575.4211431702997","266.76","12","fallScene","true","","","","","8","",""
"","","","","","html-keyboard-response","112","552552","0.0-16.0-1.7","66c1fad08b1338ad3f23e24c","6790928bebf0b969fc839b02","679825fd91cc29d18e11b5b3","passed","","744","","","","","","","","","","","","","","f","yesOrNo","","","","12","","","mid","1000","","","8","536.4288568297004","300"
"","","","","","html-keyboard-response","113","554572","0.0-16.0-0.8","66c1fad08b1338ad3f23e24c","6790928bebf0b969fc839b02","679825fd91cc29d18e11b5b3","passed","","","","","","","","","","","","","","","","","ballFalling","500","510.8711431702997","369.03","8","fallScene","true","","","","","9","",""
"","","","","","html-keyboard-response","114","555574","0.0-16.0-1.8","66c1fad08b1338ad3f23e24c","6790928bebf0b969fc839b02","679825fd91cc29d18e11b5b3","passed","","319","","","","","","","","","","","","","","j","yesOrNo","","","","8","","","gt","1000","","","9","510.8711431702997","369.03"
"","","","","","html-keyboard-response","115","557136","0.0-16.0-0.9","66c1fad08b1338ad3f23e24c","6790928bebf0b969fc839b02","679825fd91cc29d18e11b5b3","passed","","","","","","","","","","","","","","","","","ballFalling","500","453.67114317029973","210.33","5","fallScene","false","","","","","10","",""
"","","","","","html-keyboard-response","116","558151","0.0-16.0-1.9","66c1fad08b1338ad3f23e24c","6790928bebf0b969fc839b02","679825fd91cc29d18e11b5b3","passed","","825","","","","","","","","","","","","","","j","yesOrNo","","","","5","","","lp","1000","","","10","499","151"
"","","","","","html-keyboard-response","117","560170","0.0-16.0-0.10","66c1fad08b1338ad3f23e24c","6790928bebf0b969fc839b02","679825fd91cc29d18e11b5b3","passed","","","","","","","","","","","","","","","","","ballFalling","604.4000000000001","596.8711431702998","394.5","10","fallScene","true","","","","","11","",""
"","","","","","html-keyboard-response","118","561185","0.0-16.0-1.10","66c1fad08b1338ad3f23e24c","6790928bebf0b969fc839b02","679825fd91cc29d18e11b5b3","passed","","414","","","","","","","","","","","","","","f","yesOrNo","","","","10","","","mid","1000","","","11","536.4288568297004","300"
"","","","","","html-keyboard-response","119","562736","0.0-16.0-0.11","66c1fad08b1338ad3f23e24c","6790928bebf0b969fc839b02","679825fd91cc29d18e11b5b3","passed","","","","","","","","","","","","","","","","","ballFalling","322.3","356.42114317029973","357.87","4","fallScene","false","","","","","12","",""
"","","","","","html-keyboard-response","120","563749","0.0-16.0-1.11","66c1fad08b1338ad3f23e24c","6790928bebf0b969fc839b02","679825fd91cc29d18e11b5b3","passed","","591","","","","","","","","","","","","","","j","yesOrNo","","","","4","","","lp","1000","","","12","323.3","297.4070551689986"
"","","","","","html-keyboard-response","121","565303","0.0-16.0-0.12","66c1fad08b1338ad3f23e24c","6790928bebf0b969fc839b02","679825fd91cc29d18e11b5b3","passed","","","","","","","","","","","","","","","","","ballFalling","322.3","379.3711431702997","245.25","1","fallScene","false","","","","","13","",""
"","","","","","html-keyboard-response","122","566318","0.0-16.0-1.12","66c1fad08b1338ad3f23e24c","6790928bebf0b969fc839b02","679825fd91cc29d18e11b5b3","passed","","418","","","","","","","","","","","","","","f","yesOrNo","","","","1","","","mid","1000","","","13","390.27114317029975","300"
"","","","","","html-keyboard-response","123","567802","0.0-16.0-0.13","66c1fad08b1338ad3f23e24c","6790928bebf0b969fc839b02","679825fd91cc29d18e11b5b3","passed","","","","","","","","","","","","","","","","","ballFalling","604.4000000000001","667.6211431702998","201.78","9","fallScene","false","","","","","14","",""
"","","","","","html-keyboard-response","124","568804","0.0-16.0-1.13","66c1fad08b1338ad3f23e24c","6790928bebf0b969fc839b02","679825fd91cc29d18e11b5b3","passed","","470","","","","","","","","","","","","","","j","yesOrNo","","","","9","","","gt","1000","","","14","667.6211431702998","201.78"
"","","","","","html-keyboard-response","125","570369","0.0-16.0-0.14","66c1fad08b1338ad3f23e24c","6790928bebf0b969fc839b02","679825fd91cc29d18e11b5b3","passed","","","","","","","","","","","","","","","","","ballFalling","322.3","379.3711431702997","245.25","1","fallScene","false","","","","","15","",""
"","","","","","html-keyboard-response","126","571372","0.0-16.0-1.14","66c1fad08b1338ad3f23e24c","6790928bebf0b969fc839b02","679825fd91cc29d18e11b5b3","passed","","457","","","","","","","","","","","","","","j","yesOrNo","","","","1","","","lp","1000","","","15","323.3","217.74551669457017"
"","","","","","html-keyboard-response","127","572936","0.0-16.0-0.15","66c1fad08b1338ad3f23e24c","6790928bebf0b969fc839b02","679825fd91cc29d18e11b5b3","passed","","","","","","","","","","","","","","","","","ballFalling","604.4000000000001","650.0211431702996","404.58000000000004","11","fallScene","false","","","","","16","",""
"","","","","","html-keyboard-response","128","573950","0.0-16.0-1.15","66c1fad08b1338ad3f23e24c","6790928bebf0b969fc839b02","679825fd91cc29d18e11b5b3","passed","","470","","","","","","","","","","","","","","j","yesOrNo","","","","11","","","mid","1000","","","16","605.4000000000001","300"
"","","","","","html-keyboard-response","129","575969","0.0-16.0-0.16","66c1fad08b1338ad3f23e24c","6790928bebf0b969fc839b02","679825fd91cc29d18e11b5b3","passed","","","","","","","","","","","","","","","","","ballFalling","500","510.8711431702997","369.03","8","fallScene","false","","","","","17","",""
"","","","","","html-keyboard-response","130","576971","0.0-16.0-1.16","66c1fad08b1338ad3f23e24c","6790928bebf0b969fc839b02","679825fd91cc29d18e11b5b3","passed","","438","","","","","","","","","","","","","","j","yesOrNo","","","","8","","","gt","1000","","","17","510.8711431702997","369.03"
"","","","","","html-keyboard-response","131","578536","0.0-16.0-0.17","66c1fad08b1338ad3f23e24c","6790928bebf0b969fc839b02","679825fd91cc29d18e11b5b3","passed","","","","","","","","","","","","","","","","","ballFalling","604.4000000000001","650.0211431702996","404.58000000000004","11","fallScene","true","","","","","18","",""
"","","","","","html-keyboard-response","132","579538","0.0-16.0-1.17","66c1fad08b1338ad3f23e24c","6790928bebf0b969fc839b02","679825fd91cc29d18e11b5b3","passed","","327","","","","","","","","","","","","","","j","yesOrNo","","","","11","","","mid","1000","","","18","605.4000000000001","300"
"","","","","","html-keyboard-response","133","581136","0.0-16.0-0.18","66c1fad08b1338ad3f23e24c","6790928bebf0b969fc839b02","679825fd91cc29d18e11b5b3","passed","","","","","","","","","","","","","","","","","ballFalling","500","553.4711431702997","282.51","7","fallScene","false","","","","","19","",""
"","","","","","html-keyboard-response","134","582150","0.0-16.0-1.18","66c1fad08b1338ad3f23e24c","6790928bebf0b969fc839b02","679825fd91cc29d18e11b5b3","passed","","274","","","","","","","","","","","","","","j","yesOrNo","","","","7","","","gt","1000","","","19","553.4711431702997","282.51"
"","","","","","html-keyboard-response","135","583702","0.0-16.0-0.19","66c1fad08b1338ad3f23e24c","6790928bebf0b969fc839b02","679825fd91cc29d18e11b5b3","passed","","","","","","","","","","","","","","","","","ballFalling","322.3","296.07114317029976","371.46","3","fallScene","true","","","","","20","",""
"","","","","","html-keyboard-response","136","584718","0.0-16.0-1.19","66c1fad08b1338ad3f23e24c","6790928bebf0b969fc839b02","679825fd91cc29d18e11b5b3","passed","","411","","","","","","","","","","","","","","j","yesOrNo","","","","3","","","lp","1000","","","20","321.3","287.3327096511259"
"","","","","","html-keyboard-response","137","586503","0.0-16.0-0.20","66c1fad08b1338ad3f23e24c","6790928bebf0b969fc839b02","679825fd91cc29d18e11b5b3","passed","","","","","","","","","","","","","","","","","ballFalling","322.3","308.07114317029976","253.89","2","fallScene","true","","","","","21","",""
"","","","","","html-keyboard-response","138","587506","0.0-16.0-1.20","66c1fad08b1338ad3f23e24c","6790928bebf0b969fc839b02","679825fd91cc29d18e11b5b3","passed","","372","","","","","","","","","","","","","","f","yesOrNo","","","","2","","","mid","1000","","","21","321.3","300"
"","","","","","html-keyboard-response","139","589169","0.0-16.0-0.21","66c1fad08b1338ad3f23e24c","6790928bebf0b969fc839b02","679825fd91cc29d18e11b5b3","passed","","","","","","","","","","","","","","","","","ballFalling","500","479.92114317029973","330.87","6","fallScene","false","","","","","22","",""
"","","","","","html-keyboard-response","140","590184","0.0-16.0-1.21","66c1fad08b1338ad3f23e24c","6790928bebf0b969fc839b02","679825fd91cc29d18e11b5b3","passed","","789","","","","","","","","","","","","","","j","yesOrNo","","","","6","","","gt","1000","","","22","479.9211431702998","330.87"
"","","","","","html-keyboard-response","141","591969","0.0-16.0-0.22","66c1fad08b1338ad3f23e24c","6790928bebf0b969fc839b02","679825fd91cc29d18e11b5b3","passed","","","","","","","","","","","","","","","","","ballFalling","322.3","308.07114317029976","253.89","2","fallScene","false","","","","","23","",""
"","","","","","html-keyboard-response","142","592984","0.0-16.0-1.22","66c1fad08b1338ad3f23e24c","6790928bebf0b969fc839b02","679825fd91cc29d18e11b5b3","passed","","393","","","","","","","","","","","","","","f","yesOrNo","","","","2","","","gt","1000","","","23","308.07114317029976","253.89"
"","","","","","html-keyboard-response","143","594535","0.0-16.0-0.23","66c1fad08b1338ad3f23e24c","6790928bebf0b969fc839b02","679825fd91cc29d18e11b5b3","passed","","","","","","","","","","","","","","","","","ballFalling","500","453.67114317029973","210.33","5","fallScene","false","","","","","24","",""
"","","","","","html-keyboard-response","144","595546","0.0-16.0-1.23","66c1fad08b1338ad3f23e24c","6790928bebf0b969fc839b02","679825fd91cc29d18e11b5b3","passed","","481","","","","","","","","","","","","","","j","yesOrNo","","","","5","","","mid","1000","","","24","499","300"
"","","","","","html-keyboard-response","145","597465","0.0-17.0","66c1fad08b1338ad3f23e24c","6790928bebf0b969fc839b02","679825fd91cc29d18e11b5b3","passed","","1918","","","","","","","","","","","","","<p><span style=""font-size:40px;"">BLOCK 2</span></p><p><span style=""font-size:25px;"">You have <b style=""color: #FF644F;""><strong>3 second(s)</strong></b> to respond to the following trials.</span><br></p><p></p> <!-- Blank line -->
                <p id=""blinking-text"" style=""font-weight; animation: blink 2s infinite;"">Press Space to continue</p>
                <style>
                    @keyframes blink {
                        50% {
                            opacity: 0;
                        }
                    }
                </style></p>"," ","","","","","","","","","","","","","",""
"","","","","","html-keyboard-response","146","599469","0.0-18.0-0.0","66c1fad08b1338ad3f23e24c","6790928bebf0b969fc839b02","679825fd91cc29d18e11b5b3","passed","","","","","","","","","","","","","","","","","ballFalling","500","510.8711431702997","369.03","8","fallScene","false","","","","","25","",""
"","","","","","html-keyboard-response","147","602484","0.0-18.0-1.0","66c1fad08b1338ad3f23e24c","6790928bebf0b969fc839b02","679825fd91cc29d18e11b5b3","passed","","453","","","","","","","","","","","","","","j","yesOrNo","","","","8","","","mid","3000","","","25","501","300"
"","","","","","html-keyboard-response","148","604035","0.0-18.0-0.1","66c1fad08b1338ad3f23e24c","6790928bebf0b969fc839b02","679825fd91cc29d18e11b5b3","passed","","","","","","","","","","","","","","","","","ballFalling","322.3","356.42114317029973","357.87","4","fallScene","true","","","","","26","",""
"","","","","","html-keyboard-response","149","607048","0.0-18.0-1.1","66c1fad08b1338ad3f23e24c","6790928bebf0b969fc839b02","679825fd91cc29d18e11b5b3","passed","","2119","","","","","","","","","","","","","","f","yesOrNo","","","","4","","","lp","3000","","","26","323.3","297.4070551689986"
"","","","","","html-keyboard-response","150","609068","0.0-18.0-0.2","66c1fad08b1338ad3f23e24c","6790928bebf0b969fc839b02","679825fd91cc29d18e11b5b3","passed","","","","","","","","","","","","","","","","","ballFalling","604.4000000000001","596.8711431702998","394.5","10","fallScene","false","","","","","27","",""
"","","","","","html-keyboard-response","151","612084","0.0-18.0-1.2","66c1fad08b1338ad3f23e24c","6790928bebf0b969fc839b02","679825fd91cc29d18e11b5b3","passed","","597","","","","","","","","","","","","","","j","yesOrNo","","","","10","","","lp","3000","","","27","603.4000000000001","215.50214355555383"
"","","","","","html-keyboard-response","152","613668","0.0-18.0-0.3","66c1fad08b1338ad3f23e24c","6790928bebf0b969fc839b02","679825fd91cc29d18e11b5b3","passed","","","","","","","","","","","","","","","","","ballFalling","500","553.4711431702997","282.51","7","fallScene","false","","","","","28","",""
"","","","","","html-keyboard-response","153","616682","0.0-18.0-1.3","66c1fad08b1338ad3f23e24c","6790928bebf0b969fc839b02","679825fd91cc29d18e11b5b3","passed","","582","","","","","","","","","","","","","","j","yesOrNo","","","","7","","","gt","3000","","","28","553.4711431702997","282.51"
"","","","","","html-keyboard-response","154","618234","0.0-18.0-0.4","66c1fad08b1338ad3f23e24c","6790928bebf0b969fc839b02","679825fd91cc29d18e11b5b3","passed","","","","","","","","","","","","","","","","","ballFalling","322.3","379.3711431702997","245.25","1","fallScene","true","","","","","29","",""
"","","","","","html-keyboard-response","155","621247","0.0-18.0-1.4","66c1fad08b1338ad3f23e24c","6790928bebf0b969fc839b02","679825fd91cc29d18e11b5b3","passed","","1404","","","","","","","","","","","","","","j","yesOrNo","","","","1","","","mid","3000","","","29","390.27114317029975","300"
"","","","","","html-keyboard-response","156","622734","0.0-18.0-0.5","66c1fad08b1338ad3f23e24c","6790928bebf0b969fc839b02","679825fd91cc29d18e11b5b3","passed","","","","","","","","","","","","","","","","","ballFalling","604.4000000000001","667.6211431702998","201.78","9","fallScene","false","","","","","30","",""
"","","","","","html-keyboard-response","157","625740","0.0-18.0-1.5","66c1fad08b1338ad3f23e24c","6790928bebf0b969fc839b02","679825fd91cc29d18e11b5b3","passed","","991","","","","","","","","","","","","","","f","yesOrNo","","","","9","","","lp","3000","","","30","605.4000000000001","151"
"","","","","","html-keyboard-response","158","627768","0.0-18.0-0.6","66c1fad08b1338ad3f23e24c","6790928bebf0b969fc839b02","679825fd91cc29d18e11b5b3","passed","","","","","","","","","","","","","","","","","ballFalling","500","510.8711431702997","369.03","8","fallScene","false","","","","","31","",""
"","","","","","html-keyboard-response","159","630784","0.0-18.0-1.6","66c1fad08b1338ad3f23e24c","6790928bebf0b969fc839b02","679825fd91cc29d18e11b5b3","passed","","1722","","","","","","","","","","","","","","j","yesOrNo","","","","8","","","gt","3000","","","31","510.8711431702997","369.03"
"","","","","","html-keyboard-response","160","632334","0.0-18.0-0.7","66c1fad08b1338ad3f23e24c","6790928bebf0b969fc839b02","679825fd91cc29d18e11b5b3","passed","","","","","","","","","","","","","","","","","ballFalling","604.4000000000001","650.0211431702996","404.58000000000004","11","fallScene","true","","","","","32","",""
"","","","","","html-keyboard-response","161","635346","0.0-18.0-1.7","66c1fad08b1338ad3f23e24c","6790928bebf0b969fc839b02","679825fd91cc29d18e11b5b3","passed","","849","","","","","","","","","","","","","","f","yesOrNo","","","","11","","","mid","3000","","","32","605.4000000000001","300"
"","","","","","html-keyboard-response","162","636901","0.0-18.0-0.8","66c1fad08b1338ad3f23e24c","6790928bebf0b969fc839b02","679825fd91cc29d18e11b5b3","passed","","","","","","","","","","","","","","","","","ballFalling","322.3","356.42114317029973","357.87","4","fallScene","true","","","","","33","",""
"","","","","","html-keyboard-response","163","639916","0.0-18.0-1.8","66c1fad08b1338ad3f23e24c","6790928bebf0b969fc839b02","679825fd91cc29d18e11b5b3","passed","","694","","","","","","","","","","","","","","j","yesOrNo","","","","4","","","gt","3000","","","33","356.42114317029973","357.87"
"","","","","","html-keyboard-response","164","641567","0.0-18.0-0.9","66c1fad08b1338ad3f23e24c","6790928bebf0b969fc839b02","679825fd91cc29d18e11b5b3","passed","","","","","","","","","","","","","","","","","ballFalling","500","479.92114317029973","330.87","6","fallScene","true","","","","","34","",""
"","","","","","html-keyboard-response","165","644569","0.0-18.0-1.9","66c1fad08b1338ad3f23e24c","6790928bebf0b969fc839b02","679825fd91cc29d18e11b5b3","passed","","1025","","","","","","","","","","","","","","j","yesOrNo","","","","6","","","gt","3000","","","34","479.9211431702998","330.87"
"","","","","","html-keyboard-response","166","646134","0.0-18.0-0.10","66c1fad08b1338ad3f23e24c","6790928bebf0b969fc839b02","679825fd91cc29d18e11b5b3","passed","","","","","","","","","","","","","","","","","ballFalling","322.3","356.42114317029973","357.87","4","fallScene","false","","","","","35","",""
"","","","","","html-keyboard-response","167","649149","0.0-18.0-1.10","66c1fad08b1338ad3f23e24c","6790928bebf0b969fc839b02","679825fd91cc29d18e11b5b3","passed","","611","","","","","","","","","","","","","","j","yesOrNo","","","","4","","","gt","3000","","","35","356.42114317029973","357.87"
"","","","","","html-keyboard-response","168","650700","0.0-18.0-0.11","66c1fad08b1338ad3f23e24c","6790928bebf0b969fc839b02","679825fd91cc29d18e11b5b3","passed","","","","","","","","","","","","","","","","","ballFalling","322.3","379.3711431702997","245.25","1","fallScene","true","","","","","36","",""
"","","","","","html-keyboard-response","169","653715","0.0-18.0-1.11","66c1fad08b1338ad3f23e24c","6790928bebf0b969fc839b02","679825fd91cc29d18e11b5b3","passed","","420","","","","","","","","","","","","","","j","yesOrNo","","","","1","","","lp","3000","","","36","323.3","217.74551669457017"
"","","","","","html-keyboard-response","170","655267","0.0-18.0-0.12","66c1fad08b1338ad3f23e24c","6790928bebf0b969fc839b02","679825fd91cc29d18e11b5b3","passed","","","","","","","","","","","","","","","","","ballFalling","322.3","379.3711431702997","245.25","1","fallScene","true","","","","","37","",""
"","","","","","html-keyboard-response","171","658282","0.0-18.0-1.12","66c1fad08b1338ad3f23e24c","6790928bebf0b969fc839b02","679825fd91cc29d18e11b5b3","passed","","424","","","","","","","","","","","","","","j","yesOrNo","","","","1","","","gt","3000","","","37","379.3711431702997","245.25"
"","","","","","html-keyboard-response","172","659833","0.0-18.0-0.13","66c1fad08b1338ad3f23e24c","6790928bebf0b969fc839b02","679825fd91cc29d18e11b5b3","passed","","","","","","","","","","","","","","","","","ballFalling","322.3","296.07114317029976","371.46","3","fallScene","true","","","","","38","",""
"","","","","","html-keyboard-response","173","662849","0.0-18.0-1.13","66c1fad08b1338ad3f23e24c","6790928bebf0b969fc839b02","679825fd91cc29d18e11b5b3","passed","","709","","","","","","","","","","","","","","j","yesOrNo","","","","3","","","lp","3000","","","38","321.3","287.3327096511259"
"","","","","","html-keyboard-response","174","664633","0.0-18.0-0.14","66c1fad08b1338ad3f23e24c","6790928bebf0b969fc839b02","679825fd91cc29d18e11b5b3","passed","","","","","","","","","","","","","","","","","ballFalling","322.3","308.07114317029976","253.89","2","fallScene","true","","","","","39","",""
"","","","","","html-keyboard-response","175","667648","0.0-18.0-1.14","66c1fad08b1338ad3f23e24c","6790928bebf0b969fc839b02","679825fd91cc29d18e11b5b3","passed","","634","","","","","","","","","","","","","","j","yesOrNo","","","","2","","","lp","3000","","","39","321.3","151"
"","","","","","html-keyboard-response","176","669300","0.0-18.0-0.15","66c1fad08b1338ad3f23e24c","6790928bebf0b969fc839b02","679825fd91cc29d18e11b5b3","passed","","","","","","","","","","","","","","","","","ballFalling","500","479.92114317029973","330.87","6","fallScene","false","","","","","40","",""
"","","","","","html-keyboard-response","177","672315","0.0-18.0-1.15","66c1fad08b1338ad3f23e24c","6790928bebf0b969fc839b02","679825fd91cc29d18e11b5b3","passed","","973","","","","","","","","","","","","","","j","yesOrNo","","","","6","","","gt","3000","","","40","479.9211431702998","330.87"
"","","","","","html-keyboard-response","178","673866","0.0-18.0-0.16","66c1fad08b1338ad3f23e24c","6790928bebf0b969fc839b02","679825fd91cc29d18e11b5b3","passed","","","","","","","","","","","","","","","","","ballFalling","604.4000000000001","575.4211431702997","266.76","12","fallScene","false","","","","","41","",""
"","","","","","html-keyboard-response","179","676869","0.0-18.0-1.16","66c1fad08b1338ad3f23e24c","6790928bebf0b969fc839b02","679825fd91cc29d18e11b5b3","passed","","381","","","","","","","","","","","","","","j","yesOrNo","","","","12","","","gt","3000","","","41","575.4211431702997","266.76"
"","","","","","html-keyboard-response","180","678900","0.0-18.0-0.17","66c1fad08b1338ad3f23e24c","6790928bebf0b969fc839b02","679825fd91cc29d18e11b5b3","passed","","","","","","","","","","","","","","","","","ballFalling","604.4000000000001","596.8711431702998","394.5","10","fallScene","true","","","","","42","",""
"","","","","","html-keyboard-response","181","681914","0.0-18.0-1.17","66c1fad08b1338ad3f23e24c","6790928bebf0b969fc839b02","679825fd91cc29d18e11b5b3","passed","","841","","","","","","","","","","","","","","j","yesOrNo","","","","10","","","gt","3000","","","42","596.8711431702998","394.5"
"","","","","","html-keyboard-response","182","683466","0.0-18.0-0.18","66c1fad08b1338ad3f23e24c","6790928bebf0b969fc839b02","679825fd91cc29d18e11b5b3","passed","","","","","","","","","","","","","","","","","ballFalling","322.3","296.07114317029976","371.46","3","fallScene","true","","","","","43","",""
"","","","","","html-keyboard-response","183","686481","0.0-18.0-1.18","66c1fad08b1338ad3f23e24c","6790928bebf0b969fc839b02","679825fd91cc29d18e11b5b3","passed","","1413","","","","","","","","","","","","","","f","yesOrNo","","","","3","","","lp","3000","","","43","321.3","287.3327096511259"
"","","","","","html-keyboard-response","184","688033","0.0-18.0-0.19","66c1fad08b1338ad3f23e24c","6790928bebf0b969fc839b02","679825fd91cc29d18e11b5b3","passed","","","","","","","","","","","","","","","","","ballFalling","500","453.67114317029973","210.33","5","fallScene","false","","","","","44","",""
"","","","","","html-keyboard-response","185","691037","0.0-18.0-1.19","66c1fad08b1338ad3f23e24c","6790928bebf0b969fc839b02","679825fd91cc29d18e11b5b3","passed","","1240","","","","","","","","","","","","","","j","yesOrNo","","","","5","","","gt","3000","","","44","453.6711431702998","210.33"
"","","","","","html-keyboard-response","186","692833","0.0-18.0-0.20","66c1fad08b1338ad3f23e24c","6790928bebf0b969fc839b02","679825fd91cc29d18e11b5b3","passed","","","","","","","","","","","","","","","","","ballFalling","322.3","308.07114317029976","253.89","2","fallScene","false","","","","","45","",""
"","","","","","html-keyboard-response","187","695845","0.0-18.0-1.20","66c1fad08b1338ad3f23e24c","6790928bebf0b969fc839b02","679825fd91cc29d18e11b5b3","passed","","1747","","","","","","","","","","","","","","j","yesOrNo","","","","2","","","gt","3000","","","45","308.07114317029976","253.89"
"","","","","","html-keyboard-response","188","697633","0.0-18.0-0.21","66c1fad08b1338ad3f23e24c","6790928bebf0b969fc839b02","679825fd91cc29d18e11b5b3","passed","","","","","","","","","","","","","","","","","ballFalling","322.3","308.07114317029976","253.89","2","fallScene","true","","","","","46","",""
"","","","","","html-keyboard-response","189","700648","0.0-18.0-1.21","66c1fad08b1338ad3f23e24c","6790928bebf0b969fc839b02","679825fd91cc29d18e11b5b3","passed","","1056","","","","","","","","","","","","","","j","yesOrNo","","","","2","","","gt","3000","","","46","308.07114317029976","253.89"
"","","","","","html-keyboard-response","190","702199","0.0-18.0-0.22","66c1fad08b1338ad3f23e24c","6790928bebf0b969fc839b02","679825fd91cc29d18e11b5b3","passed","","","","","","","","","","","","","","","","","ballFalling","322.3","296.07114317029976","371.46","3","fallScene","true","","","","","47","",""
"","","","","","html-keyboard-response","191","705214","0.0-18.0-1.22","66c1fad08b1338ad3f23e24c","6790928bebf0b969fc839b02","679825fd91cc29d18e11b5b3","passed","","470","","","","","","","","","","","","","","j","yesOrNo","","","","3","","","mid","3000","","","47","321.3","300"
"","","","","","html-keyboard-response","192","706766","0.0-18.0-0.23","66c1fad08b1338ad3f23e24c","6790928bebf0b969fc839b02","679825fd91cc29d18e11b5b3","passed","","","","","","","","","","","","","","","","","ballFalling","322.3","379.3711431702997","245.25","1","fallScene","false","","","","","48","",""
"","","","","","html-keyboard-response","193","709779","0.0-18.0-1.23","66c1fad08b1338ad3f23e24c","6790928bebf0b969fc839b02","679825fd91cc29d18e11b5b3","passed","","1880","","","","","","","","","","","","","","f","yesOrNo","","","","1","","","mid","3000","","","48","390.27114317029975","300"
"","","","","","html-keyboard-response","194","757612","0.0-19.0","66c1fad08b1338ad3f23e24c","6790928bebf0b969fc839b02","679825fd91cc29d18e11b5b3","passed","","47829","","","","","","","","","","","","","<p><span style=""font-size:40px;"">BLOCK 3</span></p><p><span style=""font-size:25px;"">You have <b style=""color: #FF644F;""><strong>3 second(s)</strong></b> to respond to the following trials.</span><br></p><p></p> <!-- Blank line -->
                <p id=""blinking-text"" style=""font-weight; animation: blink 2s infinite;"">Press Space to continue</p>
                <style>
                    @keyframes blink {
                        50% {
                            opacity: 0;
                        }
                    }
                </style></p>"," ","","","","","","","","","","","","","",""
"","","","","","html-keyboard-response","195","758613","0.0-20.0-0.0","66c1fad08b1338ad3f23e24c","6790928bebf0b969fc839b02","679825fd91cc29d18e11b5b3","passed","","","","","","","","","","","","","","","","","ballFalling","604.4000000000001","650.0211431702996","404.58000000000004","11","fallScene","true","","","","","49","",""
"","","","","","html-keyboard-response","196","761629","0.0-20.0-1.0","66c1fad08b1338ad3f23e24c","6790928bebf0b969fc839b02","679825fd91cc29d18e11b5b3","passed","","883","","","","","","","","","","","","","","j","yesOrNo","","","","11","","","gt","3000","","","49","650.0211431702996","404.58"
"","","","","","html-keyboard-response","197","763294","0.0-20.0-0.1","66c1fad08b1338ad3f23e24c","6790928bebf0b969fc839b02","679825fd91cc29d18e11b5b3","passed","","","","","","","","","","","","","","","","","ballFalling","500","479.92114317029973","330.87","6","fallScene","false","","","","","50","",""
"","","","","","html-keyboard-response","198","766297","0.0-20.0-1.1","66c1fad08b1338ad3f23e24c","6790928bebf0b969fc839b02","679825fd91cc29d18e11b5b3","passed","","743","","","","","","","","","","","","","","j","yesOrNo","","","","6","","","mid","3000","","","50","499","300"
"","","","","","html-keyboard-response","199","767864","0.0-20.0-0.2","66c1fad08b1338ad3f23e24c","6790928bebf0b969fc839b02","679825fd91cc29d18e11b5b3","passed","","","","","","","","","","","","","","","","","ballFalling","604.4000000000001","575.4211431702997","266.76","12","fallScene","false","","","","","51","",""
"","","","","","html-keyboard-response","200","770879","0.0-20.0-1.2","66c1fad08b1338ad3f23e24c","6790928bebf0b969fc839b02","679825fd91cc29d18e11b5b3","passed","","1424","","","","","","","","","","","","","","f","yesOrNo","","","","12","","","mid","3000","","","51","536.4288568297004","300"
"","","","","","html-keyboard-response","201","772363","0.0-20.0-0.3","66c1fad08b1338ad3f23e24c","6790928bebf0b969fc839b02","679825fd91cc29d18e11b5b3","passed","","","","","","","","","","","","","","","","","ballFalling","604.4000000000001","667.6211431702998","201.78","9","fallScene","true","","","","","52","",""
"","","","","","html-keyboard-response","202","775379","0.0-20.0-1.3","66c1fad08b1338ad3f23e24c","6790928bebf0b969fc839b02","679825fd91cc29d18e11b5b3","passed","","856","","","","","","","","","","","","","","j","yesOrNo","","","","9","","","mid","3000","","","52","605.4000000000001","300"
"","","","","","html-keyboard-response","203","776946","0.0-20.0-0.4","66c1fad08b1338ad3f23e24c","6790928bebf0b969fc839b02","679825fd91cc29d18e11b5b3","passed","","","","","","","","","","","","","","","","","ballFalling","500","453.67114317029973","210.33","5","fallScene","true","","","","","53","",""
"","","","","","html-keyboard-response","204","779963","0.0-20.0-1.4","66c1fad08b1338ad3f23e24c","6790928bebf0b969fc839b02","679825fd91cc29d18e11b5b3","passed","","1257","","","","","","","","","","","","","","f","yesOrNo","","","","5","","","lp","3000","","","53","499","151"
"","","","","","html-keyboard-response","205","781546","0.0-20.0-0.5","66c1fad08b1338ad3f23e24c","6790928bebf0b969fc839b02","679825fd91cc29d18e11b5b3","passed","","","","","","","","","","","","","","","","","ballFalling","500","553.4711431702997","282.51","7","fallScene","false","","","","","54","",""
"","","","","","html-keyboard-response","206","784562","0.0-20.0-1.5","66c1fad08b1338ad3f23e24c","6790928bebf0b969fc839b02","679825fd91cc29d18e11b5b3","passed","","862","","","","","","","","","","","","","","f","yesOrNo","","","","7","","","mid","3000","","","54","501","300"
"","","","","","html-keyboard-response","207","786129","0.0-20.0-0.6","66c1fad08b1338ad3f23e24c","6790928bebf0b969fc839b02","679825fd91cc29d18e11b5b3","passed","","","","","","","","","","","","","","","","","ballFalling","500","553.4711431702997","282.51","7","fallScene","false","","","","","55","",""
"","","","","","html-keyboard-response","208","789130","0.0-20.0-1.6","66c1fad08b1338ad3f23e24c","6790928bebf0b969fc839b02","679825fd91cc29d18e11b5b3","passed","","502","","","","","","","","","","","","","","f","yesOrNo","","","","7","","","lp","3000","","","55","501","227.2843295913261"
"","","","","","html-keyboard-response","209","790929","0.0-20.0-0.7","66c1fad08b1338ad3f23e24c","6790928bebf0b969fc839b02","679825fd91cc29d18e11b5b3","passed","","","","","","","","","","","","","","","","","ballFalling","322.3","308.07114317029976","253.89","2","fallScene","true","","","","","56","",""
"","","","","","html-keyboard-response","210","793945","0.0-20.0-1.7","66c1fad08b1338ad3f23e24c","6790928bebf0b969fc839b02","679825fd91cc29d18e11b5b3","passed","","250","","","","","","","","","","","","","","j","yesOrNo","","","","2","","","lp","3000","","","56","321.3","151"
"","","","","","html-keyboard-response","211","795595","0.0-20.0-0.8","66c1fad08b1338ad3f23e24c","6790928bebf0b969fc839b02","679825fd91cc29d18e11b5b3","passed","","","","","","","","","","","","","","","","","ballFalling","500","479.92114317029973","330.87","6","fallScene","true","","","","","57","",""
"","","","","","html-keyboard-response","212","798611","0.0-20.0-1.8","66c1fad08b1338ad3f23e24c","6790928bebf0b969fc839b02","679825fd91cc29d18e11b5b3","passed","","1105","","","","","","","","","","","","","","f","yesOrNo","","","","6","","","lp","3000","","","57","499","189.92909825697632"
"","","","","","html-keyboard-response","213","800612","0.0-20.0-0.9","66c1fad08b1338ad3f23e24c","6790928bebf0b969fc839b02","679825fd91cc29d18e11b5b3","passed","","","","","","","","","","","","","","","","","ballFalling","604.4000000000001","596.8711431702998","394.5","10","fallScene","true","","","","","58","",""
"","","","","","html-keyboard-response","214","803628","0.0-20.0-1.9","66c1fad08b1338ad3f23e24c","6790928bebf0b969fc839b02","679825fd91cc29d18e11b5b3","passed","","738","","","","","","","","","","","","","","j","yesOrNo","","","","10","","","mid","3000","","","58","536.4288568297004","300"
"","","","","","html-keyboard-response","215","805179","0.0-20.0-0.10","66c1fad08b1338ad3f23e24c","6790928bebf0b969fc839b02","679825fd91cc29d18e11b5b3","passed","","","","","","","","","","","","","","","","","ballFalling","322.3","296.07114317029976","371.46","3","fallScene","true","","","","","59","",""
"","","","","","html-keyboard-response","216","808181","0.0-20.0-1.10","66c1fad08b1338ad3f23e24c","6790928bebf0b969fc839b02","679825fd91cc29d18e11b5b3","passed","","743","","","","","","","","","","","","","","j","yesOrNo","","","","3","","","gt","3000","","","59","296.07114317029976","371.46"
"","","","","","html-keyboard-response","217","810210","0.0-20.0-0.11","66c1fad08b1338ad3f23e24c","6790928bebf0b969fc839b02","679825fd91cc29d18e11b5b3","passed","","","","","","","","","","","","","","","","","ballFalling","500","510.8711431702997","369.03","8","fallScene","false","","","","","60","",""
"","","","","","html-keyboard-response","218","813213","0.0-20.0-1.11","66c1fad08b1338ad3f23e24c","6790928bebf0b969fc839b02","679825fd91cc29d18e11b5b3","passed","","401","","","","","","","","","","","","","","j","yesOrNo","","","","8","","","mid","3000","","","60","501","300"
"","","","","","html-keyboard-response","219","815012","0.0-20.0-0.12","66c1fad08b1338ad3f23e24c","6790928bebf0b969fc839b02","679825fd91cc29d18e11b5b3","passed","","","","","","","","","","","","","","","","","ballFalling","322.3","308.07114317029976","253.89","2","fallScene","false","","","","","61","",""
"","","","","","html-keyboard-response","220","818013","0.0-20.0-1.12","66c1fad08b1338ad3f23e24c","6790928bebf0b969fc839b02","679825fd91cc29d18e11b5b3","passed","","1732","","","","","","","","","","","","","","j","yesOrNo","","","","2","","","mid","3000","","","61","321.3","300"
"","","","","","html-keyboard-response","221","819595","0.0-20.0-0.13","66c1fad08b1338ad3f23e24c","6790928bebf0b969fc839b02","679825fd91cc29d18e11b5b3","passed","","","","","","","","","","","","","","","","","ballFalling","500","553.4711431702997","282.51","7","fallScene","false","","","","","62","",""
"","","","","","html-keyboard-response","222","822611","0.0-20.0-1.13","66c1fad08b1338ad3f23e24c","6790928bebf0b969fc839b02","679825fd91cc29d18e11b5b3","passed","","488","","","","","","","","","","","","","","f","yesOrNo","","","","7","","","lp","3000","","","62","501","227.2843295913261"
"","","","","","html-keyboard-response","223","824277","0.0-20.0-0.14","66c1fad08b1338ad3f23e24c","6790928bebf0b969fc839b02","679825fd91cc29d18e11b5b3","passed","","","","","","","","","","","","","","","","","ballFalling","500","479.92114317029973","330.87","6","fallScene","true","","","","","63","",""
"","","","","","html-keyboard-response","224","827279","0.0-20.0-1.14","66c1fad08b1338ad3f23e24c","6790928bebf0b969fc839b02","679825fd91cc29d18e11b5b3","passed","","327","","","","","","","","","","","","","","j","yesOrNo","","","","6","","","mid","3000","","","63","499","300"
"","","","","","html-keyboard-response","225","828860","0.0-20.0-0.15","66c1fad08b1338ad3f23e24c","6790928bebf0b969fc839b02","679825fd91cc29d18e11b5b3","passed","","","","","","","","","","","","","","","","","ballFalling","604.4000000000001","650.0211431702996","404.58000000000004","11","fallScene","false","","","","","64","",""
"","","","","","html-keyboard-response","226","831862","0.0-20.0-1.15","66c1fad08b1338ad3f23e24c","6790928bebf0b969fc839b02","679825fd91cc29d18e11b5b3","passed","","541","","","","","","","","","","","","","","j","yesOrNo","","","","11","","","gt","3000","","","64","650.0211431702996","404.58"
"","","","","","html-keyboard-response","227","833427","0.0-20.0-0.16","66c1fad08b1338ad3f23e24c","6790928bebf0b969fc839b02","679825fd91cc29d18e11b5b3","passed","","","","","","","","","","","","","","","","","ballFalling","604.4000000000001","650.0211431702996","404.58000000000004","11","fallScene","true","","","","","65","",""
"","","","","","html-keyboard-response","228","836443","0.0-20.0-1.16","66c1fad08b1338ad3f23e24c","6790928bebf0b969fc839b02","679825fd91cc29d18e11b5b3","passed","","672","","","","","","","","","","","","","","j","yesOrNo","","","","11","","","mid","3000","","","65","605.4000000000001","300"
"","","","","","html-keyboard-response","229","837994","0.0-20.0-0.17","66c1fad08b1338ad3f23e24c","6790928bebf0b969fc839b02","679825fd91cc29d18e11b5b3","passed","","","","","","","","","","","","","","","","","ballFalling","322.3","379.3711431702997","245.25","1","fallScene","false","","","","","66","",""
"","","","","","html-keyboard-response","230","840995","0.0-20.0-1.17","66c1fad08b1338ad3f23e24c","6790928bebf0b969fc839b02","679825fd91cc29d18e11b5b3","passed","","853","","","","","","","","","","","","","","j","yesOrNo","","","","1","","","lp","3000","","","66","323.3","217.74551669457017"
"","","","","","html-keyboard-response","231","842561","0.0-20.0-0.18","66c1fad08b1338ad3f23e24c","6790928bebf0b969fc839b02","679825fd91cc29d18e11b5b3","passed","","","","","","","","","","","","","","","","","ballFalling","322.3","379.3711431702997","245.25","1","fallScene","false","","","","","67","",""
"","","","","","html-keyboard-response","232","845565","0.0-20.0-1.18","66c1fad08b1338ad3f23e24c","6790928bebf0b969fc839b02","679825fd91cc29d18e11b5b3","passed","","1709","","","","","","","","","","","","","","f","yesOrNo","","","","1","","","gt","3000","","","67","379.3711431702997","245.25"
"","","","","","html-keyboard-response","233","847127","0.0-20.0-0.19","66c1fad08b1338ad3f23e24c","6790928bebf0b969fc839b02","679825fd91cc29d18e11b5b3","passed","","","","","","","","","","","","","","","","","ballFalling","322.3","296.07114317029976","371.46","3","fallScene","false","","","","","68","",""
"","","","","","html-keyboard-response","234","850129","0.0-20.0-1.19","66c1fad08b1338ad3f23e24c","6790928bebf0b969fc839b02","679825fd91cc29d18e11b5b3","passed","","660","","","","","","","","","","","","","","j","yesOrNo","","","","3","","","gt","3000","","","68","296.07114317029976","371.46"
"","","","","","html-keyboard-response","235","851711","0.0-20.0-0.20","66c1fad08b1338ad3f23e24c","6790928bebf0b969fc839b02","679825fd91cc29d18e11b5b3","passed","","","","","","","","","","","","","","","","","ballFalling","500","553.4711431702997","282.51","7","fallScene","true","","","","","69","",""
"","","","","","html-keyboard-response","236","854712","0.0-20.0-1.20","66c1fad08b1338ad3f23e24c","6790928bebf0b969fc839b02","679825fd91cc29d18e11b5b3","passed","","405","","","","","","","","","","","","","","j","yesOrNo","","","","7","","","gt","3000","","","69","553.4711431702997","282.51"
"","","","","","html-keyboard-response","237","856727","0.0-20.0-0.21","66c1fad08b1338ad3f23e24c","6790928bebf0b969fc839b02","679825fd91cc29d18e11b5b3","passed","","","","","","","","","","","","","","","","","ballFalling","500","510.8711431702997","369.03","8","fallScene","false","","","","","70","",""
"","","","","","html-keyboard-response","238","859743","0.0-20.0-1.21","66c1fad08b1338ad3f23e24c","6790928bebf0b969fc839b02","679825fd91cc29d18e11b5b3","passed","","452","","","","","","","","","","","","","","j","yesOrNo","","","","8","","","gt","3000","","","70","510.8711431702997","369.03"
"","","","","","html-keyboard-response","239","861743","0.0-20.0-0.22","66c1fad08b1338ad3f23e24c","6790928bebf0b969fc839b02","679825fd91cc29d18e11b5b3","passed","","","","","","","","","","","","","","","","","ballFalling","604.4000000000001","596.8711431702998","394.5","10","fallScene","true","","","","","71","",""
"","","","","","html-keyboard-response","240","864745","0.0-20.0-1.22","66c1fad08b1338ad3f23e24c","6790928bebf0b969fc839b02","679825fd91cc29d18e11b5b3","passed","","331","","","","","","","","","","","","","","j","yesOrNo","","","","10","","","mid","3000","","","71","536.4288568297004","300"
"","","","","","html-keyboard-response","241","866425","0.0-20.0-0.23","66c1fad08b1338ad3f23e24c","6790928bebf0b969fc839b02","679825fd91cc29d18e11b5b3","passed","","","","","","","","","","","","","","","","","ballFalling","500","479.92114317029973","330.87","6","fallScene","false","","","","","72","",""
"","","","","","html-keyboard-response","242","869428","0.0-20.0-1.23","66c1fad08b1338ad3f23e24c","6790928bebf0b969fc839b02","679825fd91cc29d18e11b5b3","passed","","380","","","","","","","","","","","","","","j","yesOrNo","","","","6","","","lp","3000","","","72","499","189.92909825697632"
"","","","","","html-keyboard-response","243","871298","0.0-21.0","66c1fad08b1338ad3f23e24c","6790928bebf0b969fc839b02","679825fd91cc29d18e11b5b3","passed","","1870","","","","","","","","","","","","","<p><span style=""font-size:40px;"">BLOCK 4</span></p><p><span style=""font-size:25px;"">You have <b style=""color: #FF644F;""><strong>1 second(s)</strong></b> to respond to the following trials.</span><br></p><p></p> <!-- Blank line -->
                <p id=""blinking-text"" style=""font-weight; animation: blink 2s infinite;"">Press Space to continue</p>
                <style>
                    @keyframes blink {
                        50% {
                            opacity: 0;
                        }
                    }
                </style></p>"," ","","","","","","","","","","","","","",""
"","","","","","html-keyboard-response","244","872860","0.0-22.0-0.0","66c1fad08b1338ad3f23e24c","6790928bebf0b969fc839b02","679825fd91cc29d18e11b5b3","passed","","","","","","","","","","","","","","","","","ballFalling","322.3","296.07114317029976","371.46","3","fallScene","true","","","","","73","",""
"","","","","","html-keyboard-response","245","873876","0.0-22.0-1.0","66c1fad08b1338ad3f23e24c","6790928bebf0b969fc839b02","679825fd91cc29d18e11b5b3","passed","","310","","","","","","","","","","","","","","j","yesOrNo","","","","3","","","lp","1000","","","73","321.3","287.3327096511259"
"","","","","","html-keyboard-response","246","875660","0.0-22.0-0.1","66c1fad08b1338ad3f23e24c","6790928bebf0b969fc839b02","679825fd91cc29d18e11b5b3","passed","","","","","","","","","","","","","","","","","ballFalling","322.3","308.07114317029976","253.89","2","fallScene","false","","","","","74","",""
"","","","","","html-keyboard-response","247","876662","0.0-22.0-1.1","66c1fad08b1338ad3f23e24c","6790928bebf0b969fc839b02","679825fd91cc29d18e11b5b3","passed","","246","","","","","","","","","","","","","","j","yesOrNo","","","","2","","","mid","1000","","","74","321.3","300"
"","","","","","html-keyboard-response","248","878226","0.0-22.0-0.2","66c1fad08b1338ad3f23e24c","6790928bebf0b969fc839b02","679825fd91cc29d18e11b5b3","passed","","","","","","","","","","","","","","","","","ballFalling","604.4000000000001","650.0211431702996","404.58000000000004","11","fallScene","false","","","","","75","",""
"","","","","","html-keyboard-response","249","879227","0.0-22.0-1.2","66c1fad08b1338ad3f23e24c","6790928bebf0b969fc839b02","679825fd91cc29d18e11b5b3","passed","","336","","","","","","","","","","","","","","j","yesOrNo","","","","11","","","gt","1000","","","75","650.0211431702996","404.58"
"","","","","","html-keyboard-response","250","881243","0.0-22.0-0.3","66c1fad08b1338ad3f23e24c","6790928bebf0b969fc839b02","679825fd91cc29d18e11b5b3","passed","","","","","","","","","","","","","","","","","ballFalling","604.4000000000001","596.8711431702998","394.5","10","fallScene","true","","","","","76","",""
"","","","","","html-keyboard-response","251","882259","0.0-22.0-1.3","66c1fad08b1338ad3f23e24c","6790928bebf0b969fc839b02","679825fd91cc29d18e11b5b3","passed","","313","","","","","","","","","","","","","","f","yesOrNo","","","","10","","","lp","1000","","","76","603.4000000000001","215.50214355555383"
"","","","","","html-keyboard-response","252","883809","0.0-22.0-0.4","66c1fad08b1338ad3f23e24c","6790928bebf0b969fc839b02","679825fd91cc29d18e11b5b3","passed","","","","","","","","","","","","","","","","","ballFalling","322.3","356.42114317029973","357.87","4","fallScene","false","","","","","77","",""
"","","","","","html-keyboard-response","253","884811","0.0-22.0-1.4","66c1fad08b1338ad3f23e24c","6790928bebf0b969fc839b02","679825fd91cc29d18e11b5b3","passed","","575","","","","","","","","","","","","","","j","yesOrNo","","","","4","","","mid","1000","","","77","390.27114317029975","300"
"","","","","","html-keyboard-response","254","886376","0.0-22.0-0.5","66c1fad08b1338ad3f23e24c","6790928bebf0b969fc839b02","679825fd91cc29d18e11b5b3","passed","","","","","","","","","","","","","","","","","ballFalling","604.4000000000001","650.0211431702996","404.58000000000004","11","fallScene","false","","","","","78","",""
"","","","","","html-keyboard-response","255","887392","0.0-22.0-1.5","66c1fad08b1338ad3f23e24c","6790928bebf0b969fc839b02","679825fd91cc29d18e11b5b3","passed","","660","","","","","","","","","","","","","","f","yesOrNo","","","","11","","","lp","1000","","","78","605.4000000000001","372.6340973215488"
"","","","","","html-keyboard-response","256","888876","0.0-22.0-0.6","66c1fad08b1338ad3f23e24c","6790928bebf0b969fc839b02","679825fd91cc29d18e11b5b3","passed","","","","","","","","","","","","","","","","","ballFalling","604.4000000000001","667.6211431702998","201.78","9","fallScene","true","","","","","79","",""
"","","","","","html-keyboard-response","257","889877","0.0-22.0-1.6","66c1fad08b1338ad3f23e24c","6790928bebf0b969fc839b02","679825fd91cc29d18e11b5b3","passed","","313","","","","","","","","","","","","","","f","yesOrNo","","","","9","","","mid","1000","","","79","605.4000000000001","300"
"","","","","","html-keyboard-response","258","891893","0.0-22.0-0.7","66c1fad08b1338ad3f23e24c","6790928bebf0b969fc839b02","679825fd91cc29d18e11b5b3","passed","","","","","","","","","","","","","","","","","ballFalling","604.4000000000001","596.8711431702998","394.5","10","fallScene","false","","","","","80","",""
"","","","","","html-keyboard-response","259","892909","0.0-22.0-1.7","66c1fad08b1338ad3f23e24c","6790928bebf0b969fc839b02","679825fd91cc29d18e11b5b3","passed","","283","","","","","","","","","","","","","","j","yesOrNo","","","","10","","","gt","1000","","","80","596.8711431702998","394.5"
"","","","","","html-keyboard-response","260","894393","0.0-22.0-0.8","66c1fad08b1338ad3f23e24c","6790928bebf0b969fc839b02","679825fd91cc29d18e11b5b3","passed","","","","","","","","","","","","","","","","","ballFalling","604.4000000000001","667.6211431702998","201.78","9","fallScene","false","","","","","81","",""
"","","","","","html-keyboard-response","261","895394","0.0-22.0-1.8","66c1fad08b1338ad3f23e24c","6790928bebf0b969fc839b02","679825fd91cc29d18e11b5b3","passed","","274","","","","","","","","","","","","","","j","yesOrNo","","","","9","","","mid","1000","","","81","605.4000000000001","300"
"","","","","","html-keyboard-response","262","896959","0.0-22.0-0.9","66c1fad08b1338ad3f23e24c","6790928bebf0b969fc839b02","679825fd91cc29d18e11b5b3","passed","","","","","","","","","","","","","","","","","ballFalling","604.4000000000001","650.0211431702996","404.58000000000004","11","fallScene","true","","","","","82","",""
"","","","","","html-keyboard-response","263","897961","0.0-22.0-1.9","66c1fad08b1338ad3f23e24c","6790928bebf0b969fc839b02","679825fd91cc29d18e11b5b3","passed","","308","","","","","","","","","","","","","","j","yesOrNo","","","","11","","","gt","1000","","","82","650.0211431702996","404.58"
"","","","","","html-keyboard-response","264","899526","0.0-22.0-0.10","66c1fad08b1338ad3f23e24c","6790928bebf0b969fc839b02","679825fd91cc29d18e11b5b3","passed","","","","","","","","","","","","","","","","","ballFalling","604.4000000000001","575.4211431702997","266.76","12","fallScene","false","","","","","83","",""
"","","","","","html-keyboard-response","265","900527","0.0-22.0-1.10","66c1fad08b1338ad3f23e24c","6790928bebf0b969fc839b02","679825fd91cc29d18e11b5b3","passed","","303","","","","","","","","","","","","","","j","yesOrNo","","","","12","","","gt","1000","","","83","575.4211431702997","266.76"
"","","","","","html-keyboard-response","266","902093","0.0-22.0-0.11","66c1fad08b1338ad3f23e24c","6790928bebf0b969fc839b02","679825fd91cc29d18e11b5b3","passed","","","","","","","","","","","","","","","","","ballFalling","500","453.67114317029973","210.33","5","fallScene","false","","","","","84","",""
"","","","","","html-keyboard-response","267","903108","0.0-22.0-1.11","66c1fad08b1338ad3f23e24c","6790928bebf0b969fc839b02","679825fd91cc29d18e11b5b3","passed","","237","","","","","","","","","","","","","","j","yesOrNo","","","","5","","","lp","1000","","","84","499","151"
"","","","","","html-keyboard-response","268","904907","0.0-22.0-0.12","66c1fad08b1338ad3f23e24c","6790928bebf0b969fc839b02","679825fd91cc29d18e11b5b3","passed","","","","","","","","","","","","","","","","","ballFalling","322.3","308.07114317029976","253.89","2","fallScene","false","","","","","85","",""
"","","","","","html-keyboard-response","269","905910","0.0-22.0-1.12","66c1fad08b1338ad3f23e24c","6790928bebf0b969fc839b02","679825fd91cc29d18e11b5b3","passed","","339","","","","","","","","","","","","","","j","yesOrNo","","","","2","","","lp","1000","","","85","321.3","151"
"","","","","","html-keyboard-response","270","907476","0.0-22.0-0.13","66c1fad08b1338ad3f23e24c","6790928bebf0b969fc839b02","679825fd91cc29d18e11b5b3","passed","","","","","","","","","","","","","","","","","ballFalling","322.3","296.07114317029976","371.46","3","fallScene","true","","","","","86","",""
"","","","","","html-keyboard-response","271","908492","0.0-22.0-1.13","66c1fad08b1338ad3f23e24c","6790928bebf0b969fc839b02","679825fd91cc29d18e11b5b3","passed","","467","","","","","","","","","","","","","","f","yesOrNo","","","","3","","","mid","1000","","","86","321.3","300"
"","","","","","html-keyboard-response","272","910042","0.0-22.0-0.14","66c1fad08b1338ad3f23e24c","6790928bebf0b969fc839b02","679825fd91cc29d18e11b5b3","passed","","","","","","","","","","","","","","","","","ballFalling","500","453.67114317029973","210.33","5","fallScene","true","","","","","87","",""
"","","","","","html-keyboard-response","273","911058","0.0-22.0-1.14","66c1fad08b1338ad3f23e24c","6790928bebf0b969fc839b02","679825fd91cc29d18e11b5b3","passed","","329","","","","","","","","","","","","","","j","yesOrNo","","","","5","","","mid","1000","","","87","499","300"
"","","","","","html-keyboard-response","274","912609","0.0-22.0-0.15","66c1fad08b1338ad3f23e24c","6790928bebf0b969fc839b02","679825fd91cc29d18e11b5b3","passed","","","","","","","","","","","","","","","","","ballFalling","322.3","379.3711431702997","245.25","1","fallScene","true","","","","","88","",""
"","","","","","html-keyboard-response","275","913611","0.0-22.0-1.15","66c1fad08b1338ad3f23e24c","6790928bebf0b969fc839b02","679825fd91cc29d18e11b5b3","passed","","176","","","","","","","","","","","","","","j","yesOrNo","","","","1","","","mid","1000","","","88","390.27114317029975","300"
"","","","","","html-keyboard-response","276","915175","0.0-22.0-0.16","66c1fad08b1338ad3f23e24c","6790928bebf0b969fc839b02","679825fd91cc29d18e11b5b3","passed","","","","","","","","","","","","","","","","","ballFalling","322.3","379.3711431702997","245.25","1","fallScene","true","","","","","89","",""
"","","","","","html-keyboard-response","277","916177","0.0-22.0-1.16","66c1fad08b1338ad3f23e24c","6790928bebf0b969fc839b02","679825fd91cc29d18e11b5b3","passed","","477","","","","","","","","","","","","","","f","yesOrNo","","","","1","","","lp","1000","","","89","323.3","217.74551669457017"
"","","","","","html-keyboard-response","278","918191","0.0-22.0-0.17","66c1fad08b1338ad3f23e24c","6790928bebf0b969fc839b02","679825fd91cc29d18e11b5b3","passed","","","","","","","","","","","","","","","","","ballFalling","500","510.8711431702997","369.03","8","fallScene","false","","","","","90","",""
"","","","","","html-keyboard-response","279","919195","0.0-22.0-1.17","66c1fad08b1338ad3f23e24c","6790928bebf0b969fc839b02","679825fd91cc29d18e11b5b3","passed","","679","","","","","","","","","","","","","","f","yesOrNo","","","","8","","","lp","1000","","","90","501","151"
"","","","","","html-keyboard-response","280","920759","0.0-22.0-0.18","66c1fad08b1338ad3f23e24c","6790928bebf0b969fc839b02","679825fd91cc29d18e11b5b3","passed","","","","","","","","","","","","","","","","","ballFalling","322.3","296.07114317029976","371.46","3","fallScene","false","","","","","91","",""
"","","","","","html-keyboard-response","281","921760","0.0-22.0-1.18","66c1fad08b1338ad3f23e24c","6790928bebf0b969fc839b02","679825fd91cc29d18e11b5b3","passed","","362","","","","","","","","","","","","","","f","yesOrNo","","","","3","","","gt","1000","","","91","296.07114317029976","371.46"
"","","","","","html-keyboard-response","282","923426","0.0-22.0-0.19","66c1fad08b1338ad3f23e24c","6790928bebf0b969fc839b02","679825fd91cc29d18e11b5b3","passed","","","","","","","","","","","","","","","","","ballFalling","500","479.92114317029973","330.87","6","fallScene","false","","","","","92","",""
"","","","","","html-keyboard-response","283","924441","0.0-22.0-1.19","66c1fad08b1338ad3f23e24c","6790928bebf0b969fc839b02","679825fd91cc29d18e11b5b3","passed","","321","","","","","","","","","","","","","","f","yesOrNo","","","","6","","","mid","1000","","","92","499","300"
"","","","","","html-keyboard-response","284","926092","0.0-22.0-0.20","66c1fad08b1338ad3f23e24c","6790928bebf0b969fc839b02","679825fd91cc29d18e11b5b3","passed","","","","","","","","","","","","","","","","","ballFalling","500","479.92114317029973","330.87","6","fallScene","true","","","","","93","",""
"","","","","","html-keyboard-response","285","927107","0.0-22.0-1.20","66c1fad08b1338ad3f23e24c","6790928bebf0b969fc839b02","679825fd91cc29d18e11b5b3","passed","","427","","","","","","","","","","","","","","f","yesOrNo","","","","6","","","lp","1000","","","93","499","189.92909825697632"
"","","","","","html-keyboard-response","286","928758","0.0-22.0-0.21","66c1fad08b1338ad3f23e24c","6790928bebf0b969fc839b02","679825fd91cc29d18e11b5b3","passed","","","","","","","","","","","","","","","","","ballFalling","500","479.92114317029973","330.87","6","fallScene","true","","","","","94","",""
"","","","","","html-keyboard-response","287","929774","0.0-22.0-1.21","66c1fad08b1338ad3f23e24c","6790928bebf0b969fc839b02","679825fd91cc29d18e11b5b3","passed","","261","","","","","","","","","","","","","","j","yesOrNo","","","","6","","","lp","1000","","","94","499","189.92909825697632"
"","","","","","html-keyboard-response","288","931774","0.0-22.0-0.22","66c1fad08b1338ad3f23e24c","6790928bebf0b969fc839b02","679825fd91cc29d18e11b5b3","passed","","","","","","","","","","","","","","","","","ballFalling","604.4000000000001","596.8711431702998","394.5","10","fallScene","false","","","","","95","",""
"","","","","","html-keyboard-response","289","932776","0.0-22.0-1.22","66c1fad08b1338ad3f23e24c","6790928bebf0b969fc839b02","679825fd91cc29d18e11b5b3","passed","","285","","","","","","","","","","","","","","j","yesOrNo","","","","10","","","mid","1000","","","95","536.4288568297004","300"
"","","","","","html-keyboard-response","290","934358","0.0-22.0-0.23","66c1fad08b1338ad3f23e24c","6790928bebf0b969fc839b02","679825fd91cc29d18e11b5b3","passed","","","","","","","","","","","","","","","","","ballFalling","500","553.4711431702997","282.51","7","fallScene","true","","","","","96","",""
"","","","","","html-keyboard-response","291","935360","0.0-22.0-1.23","66c1fad08b1338ad3f23e24c","6790928bebf0b969fc839b02","679825fd91cc29d18e11b5b3","passed","","358","","","","","","","","","","","","","","j","yesOrNo","","","","7","","","mid","1000","","","96","501","300"
"","","","","","html-keyboard-response","292","936793","0.0-23.0","66c1fad08b1338ad3f23e24c","6790928bebf0b969fc839b02","679825fd91cc29d18e11b5b3","passed","","1432","","","","","","","","","","","","","<p><span style=""font-size:40px;"">BLOCK 5</span></p><p><span style=""font-size:25px;"">You have <b style=""color: #FF644F;""><strong>1 second(s)</strong></b> to respond to the following trials.</span><br></p><p></p> <!-- Blank line -->
                <p id=""blinking-text"" style=""font-weight; animation: blink 2s infinite;"">Press Space to continue</p>
                <style>
                    @keyframes blink {
                        50% {
                            opacity: 0;
                        }
                    }
                </style></p>"," ","","","","","","","","","","","","","",""
"","","","","","html-keyboard-response","293","938358","0.0-24.0-0.0","66c1fad08b1338ad3f23e24c","6790928bebf0b969fc839b02","679825fd91cc29d18e11b5b3","passed","","","","","","","","","","","","","","","","","ballFalling","500","453.67114317029973","210.33","5","fallScene","false","","","","","97","",""
"","","","","","html-keyboard-response","294","939359","0.0-24.0-1.0","66c1fad08b1338ad3f23e24c","6790928bebf0b969fc839b02","679825fd91cc29d18e11b5b3","passed","","288","","","","","","","","","","","","","","j","yesOrNo","","","","5","","","gt","1000","","","97","453.6711431702998","210.33"
