"success","timeout","failed_images","failed_audio","failed_video","trial_type","trial_index","time_elapsed","internal_node_id","subject_id","study_id","session_id","practiceTestResult","view_history","rt","width","height","webaudio","browser","browser_version","mobile","os","fullscreen","vsync_rate","webcam","microphone","url","stimulus","response","task","ball_X","obstacle_groundTruth_x","obstacle_groundTruth_y","stimulus_idx","trial_name","flipped","choice","timeLimit","question_order","currentTrial","obstacle_choice_x","obstacle_choice_y"
"true","false","[]","[]","[]","preload","0","2581","0.0-0.0","66d04902641a3c8fb01582cb","6790928bebf0b969fc839b02","679828b35a458dedb5cafebd","passed","","","","","","","","","","","","","","","","","","","","","","","","","","","","",""
"","","","","","instructions","1","39776","0.0-1.0","66d04902641a3c8fb01582cb","6790928bebf0b969fc839b02","679828b35a458dedb5cafebd","passed","[{""page_index"":0,""viewing_time"":37190}]","37190","","","","","","","","","","","","","","","","","","","","","","","","","","",""
"","","","","","browser-check","2","40762","0.0-2.0","66d04902641a3c8fb01582cb","6790928bebf0b969fc839b02","679828b35a458dedb5cafebd","passed","","","1366","679","true","chrome","131.0.0","false","Windows 10","true","61.19","true","true","","","","","","","","","","","","","","","",""
"","","","","","external-html","3","101875","0.0-3.0","66d04902641a3c8fb01582cb","6790928bebf0b969fc839b02","679828b35a458dedb5cafebd","passed","","57209","","","","","","","","","","","","consent.html","","","","","","","","","","","","","","",""
"true","","","","","fullscreen","4","115558","0.0-4.0","66d04902641a3c8fb01582cb","6790928bebf0b969fc839b02","679828b35a458dedb5cafebd","passed","","13374","","","","","","","","","","","","","","","","","","","","","","","","","","",""
"","","","","","browser-check","5","116558","0.0-5.0","66d04902641a3c8fb01582cb","6790928bebf0b969fc839b02","679828b35a458dedb5cafebd","passed","","","1366","768","true","chrome","131.0.0","false","Windows 10","true","60.25","true","true","","","","","","","","","","","","","","","",""
"","","","","","html-keyboard-response","6","126171","0.0-6.0","66d04902641a3c8fb01582cb","6790928bebf0b969fc839b02","679828b35a458dedb5cafebd","passed","","9610","","","","","","","","","","","","","<p><b>This experiment requires keyboard input.</b></p> 
        <p><b>To ensure your response will be recorded successfully, please press 'Space' to continue.</b></p>
        <p>If you can't proceed, you won't be able to complete this study.</p>
        <p></p> <!-- Blank line -->
        <p id=""blinking-text"" style=""font-weight; animation: blink 2s infinite;"">Press Space to continue</p>
        <style>
            @keyframes blink {
                50% {
                    opacity: 0;
                }
            }
        </style>"," ","","","","","","","","","","","","",""
"","","","","","html-keyboard-response","7","134194","0.0-7.0","66d04902641a3c8fb01582cb","6790928bebf0b969fc839b02","679828b35a458dedb5cafebd","passed","","8020","","","","","","","","","","","","","<p><b>This experiment requires keyboard input.</b></p> 
        <p><b>To ensure your response will be recorded successfully, please press the 'f' key to continue.</b></p>
        <p>If you can't proceed, you won't be able to complete this study.</p>
        <p></p> <!-- Blank line -->
        <p id=""blinking-text"" style=""font-weight; animation: blink 2s infinite;"">Press f to continue</p>
        <style>
            @keyframes blink {
                50% {
                    opacity: 0;
                }
            }
        </style>","f","","","","","","","","","","","","",""
"","","","","","html-keyboard-response","8","138442","0.0-8.0","66d04902641a3c8fb01582cb","6790928bebf0b969fc839b02","679828b35a458dedb5cafebd","passed","","4246","","","","","","","","","","","","","<p><b>This experiment requires keyboard input.</b></p> 
        <p><b>To ensure your response will be recorded successfully, please press the 'j' key to continue.</b></p>
        <p>If you can't proceed, you won't be able to complete this study.</p>
        <p></p> <!-- Blank line -->
        <p id=""blinking-text"" style=""font-weight; animation: blink 2s infinite;"">Press j to continue</p>
        <style>
            @keyframes blink {
                50% {
                    opacity: 0;
                }
            }
        </style>","j","","","","","","","","","","","","",""
"","","","","","browser-check","9","139476","0.0-9.0","66d04902641a3c8fb01582cb","6790928bebf0b969fc839b02","679828b35a458dedb5cafebd","passed","","","1366","768","true","chrome","131.0.0","false","Windows 10","true","59.01","true","true","","","","","","","","","","","","","","","",""
"","","","","","survey-text","10","143975","0.0-10.0","66d04902641a3c8fb01582cb","6790928bebf0b969fc839b02","679828b35a458dedb5cafebd","passed","","4493","","","","","","","","","","","","","","{""prolificID"":""66d04902641a3c8fb01582cb""}","","","","","","","","","","","","",""
"","","","","","instructions","11","291558","0.0-11.0-0.0-0.0","66d04902641a3c8fb01582cb","6790928bebf0b969fc839b02","679828b35a458dedb5cafebd","passed","[{""page_index"":0,""viewing_time"":64144},{""page_index"":1,""viewing_time"":47195},{""page_index"":2,""viewing_time"":14125},{""page_index"":3,""viewing_time"":22118}]","147583","","","","","","","","","","","","","","","","","","","","","","","","","","",""
"","","","","","html-keyboard-response","12","309410","0.0-11.0-0.0-1.0","66d04902641a3c8fb01582cb","6790928bebf0b969fc839b02","679828b35a458dedb5cafebd","passed","","17328","","","","","","","","","","","","","<br>Remember! After a ball falls, the screen will disappear, and you'll decide if the proposed position is where the hidden triangle was. <br>You will now practice this by watching a few videos and making decisions.<p>To respond:<br style=""margin-bottom: 5px; text-indent: -20px; padding-left: 20px;"">- Press <b style=""color: #12AD2B;"">J for Yes</b>, if you think the triangle is in the correct position.<br style=""margin-top: 0; text-indent: -20px; padding-left: 20px;"">- Press <b style=""color: orange;"">F for No</b>, if you think the triangle is not in the correct position.</p><p>In this practice round, there is no time limit. Focus on getting comfortable with the task first.<br>Press either J or F to begin your practice trials.</p><img src = ""YesOrNo_instruction.png"" style=""width: 65%;""></img>","f","","","","","","","","","","","","",""
"","","","","","html-keyboard-response","13","311500","0.0-11.0-0.0-2.0-0.0","66d04902641a3c8fb01582cb","6790928bebf0b969fc839b02","679828b35a458dedb5cafebd","passed","","","","","","","","","","","","","","","","","ballFalling_prac","660","666","350","3","fallScene","false","","","","","",""
"","","","","","html-keyboard-response","14","313378","0.0-11.0-0.0-2.0-1.0","66d04902641a3c8fb01582cb","6790928bebf0b969fc839b02","679828b35a458dedb5cafebd","passed","","1855","","","","","","","","","","","","","","j","yesOrNo_prac_noTimed","","","","3","","","wrong direction","NA","","","",""
"","","","","","html-keyboard-response","15","314952","0.0-11.0-0.0-2.0-0.1","66d04902641a3c8fb01582cb","6790928bebf0b969fc839b02","679828b35a458dedb5cafebd","passed","","","","","","","","","","","","","","","","","ballFalling_prac","416","464","296","1","fallScene","false","","","","","",""
"","","","","","html-keyboard-response","16","316579","0.0-11.0-0.0-2.0-1.1","66d04902641a3c8fb01582cb","6790928bebf0b969fc839b02","679828b35a458dedb5cafebd","passed","","1618","","","","","","","","","","","","","","j","yesOrNo_prac_noTimed","","","","1","","","gt","NA","","","",""
"","","","","","html-keyboard-response","17","318152","0.0-11.0-0.0-2.0-0.2","66d04902641a3c8fb01582cb","6790928bebf0b969fc839b02","679828b35a458dedb5cafebd","passed","","","","","","","","","","","","","","","","","ballFalling_prac","441","414","302","5","fallScene","true","","","","","",""
"","","","","","html-keyboard-response","18","320480","0.0-11.0-0.0-2.0-1.2","66d04902641a3c8fb01582cb","6790928bebf0b969fc839b02","679828b35a458dedb5cafebd","passed","","2322","","","","","","","","","","","","","","j","yesOrNo_prac_noTimed","","","","5","","","close gt","NA","","","",""
"","","","","","instructions","19","403983","0.0-11.0-0.0-3.0","66d04902641a3c8fb01582cb","6790928bebf0b969fc839b02","679828b35a458dedb5cafebd","passed","[{""page_index"":0,""viewing_time"":38189},{""page_index"":1,""viewing_time"":4656},{""page_index"":0,""viewing_time"":9237},{""page_index"":1,""viewing_time"":31419}]","83500","","","","","","","","","","","","","","","","","","","","","","","","","","",""
"","","","","","html-button-response","20","418479","0.0-11.0-0.0-4.0","66d04902641a3c8fb01582cb","6790928bebf0b969fc839b02","679828b35a458dedb5cafebd","passed","","13992","","","","","","","","","","","","","<p>To make sure you understood the task, we just have a <b>brief quiz</b> here.</p><p>If you need to review the instructions, click 'Previous'.</p><p>It's important to understand the task to do the study, so you have to pass the quiz to move to the study.</p>","1","","","","","","","","","","","","",""
"","","","","","survey-multi-choice","21","446600","0.0-11.0-1.0-0.0","66d04902641a3c8fb01582cb","6790928bebf0b969fc839b02","679828b35a458dedb5cafebd","passed","","28120","","","","","","","","","","","","","","{""generalProcedure"":""Watch a video of a ball falling, some of it behind a gray screen. After each video, decide if the triangle is at the spot where the ball hit the triangle behind the screen. There is time limit for the response.""}","","","","","","","","","","[0]","","",""
"","","","","","survey-multi-choice","22","455045","0.0-11.0-1.0-1.0","66d04902641a3c8fb01582cb","6790928bebf0b969fc839b02","679828b35a458dedb5cafebd","passed","","8444","","","","","","","","","","","","","","{""checkBallHitObstacle"":""Yes.""}","","","","","","","","","","[0]","","",""
"","","","","","survey-multi-choice","23","462562","0.0-11.0-1.0-2.0","66d04902641a3c8fb01582cb","6790928bebf0b969fc839b02","679828b35a458dedb5cafebd","passed","","7516","","","","","","","","","","","","","","{""checkTriangleVisibility"":""No, the triangle is hidden behind the gray screen.""}","","","","","","","","","","[0]","","",""
"","","","","","survey-multi-choice","24","471390","0.0-11.0-1.0-3.0","66d04902641a3c8fb01582cb","6790928bebf0b969fc839b02","679828b35a458dedb5cafebd","passed","","8828","","","","","","","","","","","","","","{""checkTimedResponse"":""Your response will not be recorded, and the trial will move to the next one.""}","","","","","","","","","","[0]","","",""
"","","","","","survey-multi-choice","25","512687","0.0-11.0-1.0-4.0","66d04902641a3c8fb01582cb","6790928bebf0b969fc839b02","679828b35a458dedb5cafebd","passed","","41295","","","","","","","","","","","","","","{""checkTimeBlockNotice"":""At the beginning of each block.""}","","","","","","","","","","[0]","","",""
"","","","","","survey-multi-choice","26","537467","0.0-11.0-1.0-5.0","66d04902641a3c8fb01582cb","6790928bebf0b969fc839b02","679828b35a458dedb5cafebd","passed","","24779","","","","","","","","","","","","","","{""checkTimeBlockSameness"":""Yes, the time limit is the same for all trials within a block.""}","","","","","","","","","","[0]","","",""
"","","","","","survey-multi-choice","27","598831","0.0-11.0-1.0-6.0","66d04902641a3c8fb01582cb","6790928bebf0b969fc839b02","679828b35a458dedb5cafebd","passed","","61363","","","","","","","","","","","","","","{""checkTrianglePrecision"":""No. The proposed purple triangle is not in the correct position because it doesn't match the location of the white triangle exactly.""}","","","","","","","","","","[0]","","",""
"","","","","","instructions","28","650091","0.0-12.0","66d04902641a3c8fb01582cb","6790928bebf0b969fc839b02","679828b35a458dedb5cafebd","passed","[{""page_index"":0,""viewing_time"":24858},{""page_index"":1,""viewing_time"":9972},{""page_index"":2,""viewing_time"":8078},{""page_index"":3,""viewing_time"":8352}]","51260","","","","","","","","","","","","","","","","","","","","","","","","","","",""
"","","","","","instructions","29","665937","0.0-13.0-0.0","66d04902641a3c8fb01582cb","6790928bebf0b969fc839b02","679828b35a458dedb5cafebd","passed","[{""page_index"":0,""viewing_time"":15845}]","15845","","","","","","","","","","","","","","","","","","","","","","","","","","",""
"","","","","","html-keyboard-response","30","668690","0.0-13.0-1.0","66d04902641a3c8fb01582cb","6790928bebf0b969fc839b02","679828b35a458dedb5cafebd","passed","","2753","","","","","","","","","","","","","<p><span style=""font-size:40px;"">Practice BLOCK 1</span></p><p><span style=""font-size:25px;"">You have <b style=""color: #FF644F;""><strong>3 second(s)</strong></b> to respond to the following trials.</span><br></p><p id=""blinking-text"" style=""font-weight; animation: blink 2s infinite;"">Press Space to continue</p><style>
                    @keyframes blink {
                        50% {
                            opacity: 0;
                        }
                    }
                </style>"," ","","","","","","","","","","","","",""
"","","","","","html-keyboard-response","31","670254","0.0-13.0-2.0-0.0","66d04902641a3c8fb01582cb","6790928bebf0b969fc839b02","679828b35a458dedb5cafebd","passed","","","","","","","","","","","","","","","","","ballFalling_prac","584","536","296","1","fallScene","true","","","","","",""
"","","","","","html-keyboard-response","32","673283","0.0-13.0-2.0-1.0","66d04902641a3c8fb01582cb","6790928bebf0b969fc839b02","679828b35a458dedb5cafebd","passed","","1060","","","","","","","","","","","","","","f","yesOrNo_prac","","","","1","","","close gt","3000","","","",""
"","","","","","html-keyboard-response","33","674838","0.0-13.0-2.0-0.1","66d04902641a3c8fb01582cb","6790928bebf0b969fc839b02","679828b35a458dedb5cafebd","passed","","","","","","","","","","","","","","","","","ballFalling_prac","416","464","296","1","fallScene","false","","","","","",""
"","","","","","html-keyboard-response","34","677850","0.0-13.0-2.0-1.1","66d04902641a3c8fb01582cb","6790928bebf0b969fc839b02","679828b35a458dedb5cafebd","passed","","1270","","","","","","","","","","","","","","j","yesOrNo_prac","","","","1","","","far gt","3000","","","",""
"","","","","","html-keyboard-response","35","679419","0.0-13.0-2.0-0.2","66d04902641a3c8fb01582cb","6790928bebf0b969fc839b02","679828b35a458dedb5cafebd","passed","","","","","","","","","","","","","","","","","ballFalling_prac","660","610","263","4","fallScene","false","","","","","",""
"","","","","","html-keyboard-response","36","682431","0.0-13.0-2.0-1.2","66d04902641a3c8fb01582cb","6790928bebf0b969fc839b02","679828b35a458dedb5cafebd","passed","","2021","","","","","","","","","","","","","","j","yesOrNo_prac","","","","4","","","gt","3000","","","",""
"","","","","","html-keyboard-response","37","686502","0.0-13.0-3.0","66d04902641a3c8fb01582cb","6790928bebf0b969fc839b02","679828b35a458dedb5cafebd","passed","","4069","","","","","","","","","","","","","<p><span style=""font-size:40px;"">Practice BLOCK 2</span></p><p><span style=""font-size:25px;"">You have <b style=""color: #FF644F;""><strong>1 second(s)</strong></b> to respond to the following trials.</span><br></p><p id=""blinking-text"" style=""font-weight; animation: blink 2s infinite;"">Press Space to continue</p><style>
                    @keyframes blink {
                        50% {
                            opacity: 0;
                        }
                    }
                </style>"," ","","","","","","","","","","","","",""
"","","","","","html-keyboard-response","38","688618","0.0-13.0-4.0-0.0","66d04902641a3c8fb01582cb","6790928bebf0b969fc839b02","679828b35a458dedb5cafebd","passed","","","","","","","","","","","","","","","","","ballFalling_prac","340","334","350","3","fallScene","true","","","","","",""
"","","","","","html-keyboard-response","39","689627","0.0-13.0-4.0-1.0","66d04902641a3c8fb01582cb","6790928bebf0b969fc839b02","679828b35a458dedb5cafebd","passed","","1002","","","","","","","","","","","","","","j","yesOrNo_prac","","","","3","","","close gt","1000","","","",""
"","","","","","html-keyboard-response","40","691201","0.0-13.0-4.0-0.1","66d04902641a3c8fb01582cb","6790928bebf0b969fc839b02","679828b35a458dedb5cafebd","passed","","","","","","","","","","","","","","","","","ballFalling_prac","660","610","263","4","fallScene","false","","","","","",""
"","","","","","html-keyboard-response","41","692215","0.0-13.0-4.0-1.1","66d04902641a3c8fb01582cb","6790928bebf0b969fc839b02","679828b35a458dedb5cafebd","passed","","572","","","","","","","","","","","","","","j","yesOrNo_prac","","","","4","","","far gt","1000","","","",""
"","","","","","html-keyboard-response","42","693770","0.0-13.0-4.0-0.2","66d04902641a3c8fb01582cb","6790928bebf0b969fc839b02","679828b35a458dedb5cafebd","passed","","","","","","","","","","","","","","","","","ballFalling_prac","441","500","317","6","fallScene","true","","","","","",""
"","","","","","html-keyboard-response","43","694782","0.0-13.0-4.0-1.2","66d04902641a3c8fb01582cb","6790928bebf0b969fc839b02","679828b35a458dedb5cafebd","passed","","301","","","","","","","","","","","","","","f","yesOrNo_prac","","","","6","","","gt","1000","","","",""
"","","","","","instructions","44","706665","0.0-13.0-5.0","66d04902641a3c8fb01582cb","6790928bebf0b969fc839b02","679828b35a458dedb5cafebd","passed","[{""page_index"":0,""viewing_time"":11879}]","11880","","","","","","","","","","","","","","","","","","","","","","","","","","",""
"","","","","","html-keyboard-response","45","708390","0.0-13.0-6.0","66d04902641a3c8fb01582cb","6790928bebf0b969fc839b02","679828b35a458dedb5cafebd","passed","","1725","","","","","","","","","","","","","<p><span style=""font-size:40px;"">Practice Test BLOCK 1</span></p><p><span style=""font-size:25px;"">You have <b style=""color: #FF644F;""><strong>1 second(s)</strong></b> to respond to the following trials.</span><br></p><p id=""blinking-text"" style=""font-weight; animation: blink 2s infinite;"">Press Space to continue</p><style>
                    @keyframes blink {
                        50% {
                            opacity: 0;
                        }
                    }
                </style>"," ","","","","","","","","","","","","",""
"","","","","","html-keyboard-response","46","709950","0.0-13.0-7.0-0.0","66d04902641a3c8fb01582cb","6790928bebf0b969fc839b02","679828b35a458dedb5cafebd","passed","","","","","","","","","","","","","","","","","ballFalling_prac","559","586","302","5","fallScene","false","","","","","",""
"","","","","","html-keyboard-response","47","710968","0.0-13.0-7.0-1.0","66d04902641a3c8fb01582cb","6790928bebf0b969fc839b02","679828b35a458dedb5cafebd","passed","","848","","","","","","","","","","","","","","f","yesOrNo_prac","","","","5","","","gt","1000","","","",""
"","","","","","html-keyboard-response","48","712534","0.0-13.0-7.0-0.1","66d04902641a3c8fb01582cb","6790928bebf0b969fc839b02","679828b35a458dedb5cafebd","passed","","","","","","","","","","","","","","","","","ballFalling_prac","441","500","317","6","fallScene","true","","","","","",""
"","","","","","html-keyboard-response","49","713548","0.0-13.0-7.0-1.1","66d04902641a3c8fb01582cb","6790928bebf0b969fc839b02","679828b35a458dedb5cafebd","passed","","521","","","","","","","","","","","","","","f","yesOrNo_prac","","","","6","","","close gt","1000","","","",""
"","","","","","html-keyboard-response","50","715118","0.0-13.0-7.0-0.2","66d04902641a3c8fb01582cb","6790928bebf0b969fc839b02","679828b35a458dedb5cafebd","passed","","","","","","","","","","","","","","","","","ballFalling_prac","340","390","263","4","fallScene","true","","","","","",""
"","","","","","html-keyboard-response","51","716148","0.0-13.0-7.0-1.2","66d04902641a3c8fb01582cb","6790928bebf0b969fc839b02","679828b35a458dedb5cafebd","passed","","310","","","","","","","","","","","","","","f","yesOrNo_prac","","","","4","","","far gt","1000","","","",""
"","","","","","html-keyboard-response","52","718557","0.0-13.0-8.0","66d04902641a3c8fb01582cb","6790928bebf0b969fc839b02","679828b35a458dedb5cafebd","passed","","2406","","","","","","","","","","","","","<p><span style=""font-size:40px;"">Practice Test BLOCK 2</span></p><p><span style=""font-size:25px;"">You have <b style=""color: #FF644F;""><strong>3 second(s)</strong></b> to respond to the following trials.</span><br></p><p id=""blinking-text"" style=""font-weight; animation: blink 2s infinite;"">Press Space to continue</p><style>
                    @keyframes blink {
                        50% {
                            opacity: 0;
                        }
                    }
                </style>"," ","","","","","","","","","","","","",""
"","","","","","html-keyboard-response","53","720133","0.0-13.0-9.0-0.0","66d04902641a3c8fb01582cb","6790928bebf0b969fc839b02","679828b35a458dedb5cafebd","passed","","","","","","","","","","","","","","","","","ballFalling_prac","559","586","302","5","fallScene","false","","","","","",""
"","","","","","html-keyboard-response","54","723147","0.0-13.0-9.0-1.0","66d04902641a3c8fb01582cb","6790928bebf0b969fc839b02","679828b35a458dedb5cafebd","passed","","1250","","","","","","","","","","","","","","f","yesOrNo_prac","","","","5","","","far gt","3000","","","",""
"","","","","","html-keyboard-response","55","724717","0.0-13.0-9.0-0.1","66d04902641a3c8fb01582cb","6790928bebf0b969fc839b02","679828b35a458dedb5cafebd","passed","","","","","","","","","","","","","","","","","ballFalling_prac","416","365","249","2","fallScene","false","","","","","",""
"","","","","","html-keyboard-response","56","727729","0.0-13.0-9.0-1.1","66d04902641a3c8fb01582cb","6790928bebf0b969fc839b02","679828b35a458dedb5cafebd","passed","","581","","","","","","","","","","","","","","j","yesOrNo_prac","","","","2","","","gt","3000","","","",""
"","","","","","html-keyboard-response","57","729300","0.0-13.0-9.0-0.2","66d04902641a3c8fb01582cb","6790928bebf0b969fc839b02","679828b35a458dedb5cafebd","passed","","","","","","","","","","","","","","","","","ballFalling_prac","340","390","263","4","fallScene","true","","","","","",""
"","","","","","html-keyboard-response","58","732313","0.0-13.0-9.0-1.2","66d04902641a3c8fb01582cb","6790928bebf0b969fc839b02","679828b35a458dedb5cafebd","passed","","678","","","","","","","","","","","","","","f","yesOrNo_prac","","","","4","","","close gt","3000","","","",""
"","","","","","instructions","59","749091","0.0-14.0","66d04902641a3c8fb01582cb","6790928bebf0b969fc839b02","679828b35a458dedb5cafebd","passed","[{""page_index"":0,""viewing_time"":16773}]","16773","","","","","","","","","","","","","","","","","","","","","","","","","","",""
"","","","","","html-keyboard-response","60","750906","0.0-15.0","66d04902641a3c8fb01582cb","6790928bebf0b969fc839b02","679828b35a458dedb5cafebd","passed","","1815","","","","","","","","","","","","","<p><span style=""font-size:40px;"">BLOCK 1</span></p><p><span style=""font-size:25px;"">You have <b style=""color: #FF644F;""><strong>1 second(s)</strong></b> to respond to the following trials.</span><br></p><p></p> <!-- Blank line -->
                <p id=""blinking-text"" style=""font-weight; animation: blink 2s infinite;"">Press Space to continue</p>
                <style>
                    @keyframes blink {
                        50% {
                            opacity: 0;
                        }
                    }
                </style></p>"," ","","","","","","","","","","","","",""
"","","","","","html-keyboard-response","61","752464","0.0-16.0-0.0","66d04902641a3c8fb01582cb","6790928bebf0b969fc839b02","679828b35a458dedb5cafebd","passed","","","","","","","","","","","","","","","","","ballFalling","500","453.67114317029973","210.33","5","fallScene","true","","","","1","",""
"","","","","","html-keyboard-response","62","753483","0.0-16.0-1.0","66d04902641a3c8fb01582cb","6790928bebf0b969fc839b02","679828b35a458dedb5cafebd","passed","","254","","","","","","","","","","","","","","f","yesOrNo","","","","5","","","mid","1000","","1","499","300"
"","","","","","html-keyboard-response","63","755045","0.0-16.0-0.1","66d04902641a3c8fb01582cb","6790928bebf0b969fc839b02","679828b35a458dedb5cafebd","passed","","","","","","","","","","","","","","","","","ballFalling","322.3","379.3711431702997","245.25","1","fallScene","true","","","","2","",""
"","","","","","html-keyboard-response","64","756047","0.0-16.0-1.1","66d04902641a3c8fb01582cb","6790928bebf0b969fc839b02","679828b35a458dedb5cafebd","passed","","520","","","","","","","","","","","","","","j","yesOrNo","","","","1","","","mid","1000","","2","390.27114317029975","300"
"","","","","","html-keyboard-response","65","757614","0.0-16.0-0.2","66d04902641a3c8fb01582cb","6790928bebf0b969fc839b02","679828b35a458dedb5cafebd","passed","","","","","","","","","","","","","","","","","ballFalling","500","453.67114317029973","210.33","5","fallScene","true","","","","3","",""
"","","","","","html-keyboard-response","66","758623","0.0-16.0-1.2","66d04902641a3c8fb01582cb","6790928bebf0b969fc839b02","679828b35a458dedb5cafebd","passed","","821","","","","","","","","","","","","","","j","yesOrNo","","","","5","","","gt","1000","","3","453.6711431702998","210.33"
"","","","","","html-keyboard-response","67","760182","0.0-16.0-0.3","66d04902641a3c8fb01582cb","6790928bebf0b969fc839b02","679828b35a458dedb5cafebd","passed","","","","","","","","","","","","","","","","","ballFalling","322.3","379.3711431702997","245.25","1","fallScene","true","","","","4","",""
"","","","","","html-keyboard-response","68","761195","0.0-16.0-1.3","66d04902641a3c8fb01582cb","6790928bebf0b969fc839b02","679828b35a458dedb5cafebd","passed","","768","","","","","","","","","","","","","","f","yesOrNo","","","","1","","","gt","1000","","4","379.3711431702997","245.25"
"","","","","","html-keyboard-response","69","762765","0.0-16.0-0.4","66d04902641a3c8fb01582cb","6790928bebf0b969fc839b02","679828b35a458dedb5cafebd","passed","","","","","","","","","","","","","","","","","ballFalling","500","553.4711431702997","282.51","7","fallScene","true","","","","5","",""
"","","","","","html-keyboard-response","70","763780","0.0-16.0-1.4","66d04902641a3c8fb01582cb","6790928bebf0b969fc839b02","679828b35a458dedb5cafebd","passed","","664","","","","","","","","","","","","","","j","yesOrNo","","","","7","","","gt","1000","","5","553.4711431702997","282.51"
"","","","","","html-keyboard-response","71","765332","0.0-16.0-0.5","66d04902641a3c8fb01582cb","6790928bebf0b969fc839b02","679828b35a458dedb5cafebd","passed","","","","","","","","","","","","","","","","","ballFalling","322.3","356.42114317029973","357.87","4","fallScene","false","","","","6","",""
"","","","","","html-keyboard-response","72","766346","0.0-16.0-1.5","66d04902641a3c8fb01582cb","6790928bebf0b969fc839b02","679828b35a458dedb5cafebd","passed","","570","","","","","","","","","","","","","","f","yesOrNo","","","","4","","","lp","1000","","6","323.3","297.4070551689986"
"","","","","","html-keyboard-response","73","767899","0.0-16.0-0.6","66d04902641a3c8fb01582cb","6790928bebf0b969fc839b02","679828b35a458dedb5cafebd","passed","","","","","","","","","","","","","","","","","ballFalling","322.3","379.3711431702997","245.25","1","fallScene","false","","","","7","",""
"","","","","","html-keyboard-response","74","768912","0.0-16.0-1.6","66d04902641a3c8fb01582cb","6790928bebf0b969fc839b02","679828b35a458dedb5cafebd","passed","","436","","","","","","","","","","","","","","j","yesOrNo","","","","1","","","mid","1000","","7","390.27114317029975","300"
"","","","","","html-keyboard-response","75","770915","0.0-16.0-0.7","66d04902641a3c8fb01582cb","6790928bebf0b969fc839b02","679828b35a458dedb5cafebd","passed","","","","","","","","","","","","","","","","","ballFalling","604.4000000000001","596.8711431702998","394.5","10","fallScene","false","","","","8","",""
"","","","","","html-keyboard-response","76","771928","0.0-16.0-1.7","66d04902641a3c8fb01582cb","6790928bebf0b969fc839b02","679828b35a458dedb5cafebd","passed","","523","","","","","","","","","","","","","","j","yesOrNo","","","","10","","","gt","1000","","8","596.8711431702998","394.5"
"","","","","","html-keyboard-response","77","773481","0.0-16.0-0.8","66d04902641a3c8fb01582cb","6790928bebf0b969fc839b02","679828b35a458dedb5cafebd","passed","","","","","","","","","","","","","","","","","ballFalling","322.3","356.42114317029973","357.87","4","fallScene","false","","","","9","",""
"","","","","","html-keyboard-response","78","774495","0.0-16.0-1.8","66d04902641a3c8fb01582cb","6790928bebf0b969fc839b02","679828b35a458dedb5cafebd","passed","","null","","","","","","","","","","","","","","null","yesOrNo","","","","4","","","lp","1000","","9","323.3","297.4070551689986"
"","","","","","html-keyboard-response","79","776498","0.0-16.0-0.9","66d04902641a3c8fb01582cb","6790928bebf0b969fc839b02","679828b35a458dedb5cafebd","passed","","","","","","","","","","","","","","","","","ballFalling","500","510.8711431702997","369.03","8","fallScene","false","","","","10","",""
"","","","","","html-keyboard-response","80","777519","0.0-16.0-1.9","66d04902641a3c8fb01582cb","6790928bebf0b969fc839b02","679828b35a458dedb5cafebd","passed","","356","","","","","","","","","","","","","","f","yesOrNo","","","","8","","","mid","1000","","10","501","300"
"","","","","","html-keyboard-response","81","779298","0.0-16.0-0.10","66d04902641a3c8fb01582cb","6790928bebf0b969fc839b02","679828b35a458dedb5cafebd","passed","","","","","","","","","","","","","","","","","ballFalling","322.3","308.07114317029976","253.89","2","fallScene","false","","","","11","",""
"","","","","","html-keyboard-response","82","780303","0.0-16.0-1.10","66d04902641a3c8fb01582cb","6790928bebf0b969fc839b02","679828b35a458dedb5cafebd","passed","","603","","","","","","","","","","","","","","j","yesOrNo","","","","2","","","lp","1000","","11","321.3","151"
"","","","","","html-keyboard-response","83","781805","0.0-16.0-0.11","66d04902641a3c8fb01582cb","6790928bebf0b969fc839b02","679828b35a458dedb5cafebd","passed","","","","","","","","","","","","","","","","","ballFalling","604.4000000000001","667.6211431702998","201.78","9","fallScene","true","","","","12","",""
"","","","","","html-keyboard-response","84","782808","0.0-16.0-1.11","66d04902641a3c8fb01582cb","6790928bebf0b969fc839b02","679828b35a458dedb5cafebd","passed","","569","","","","","","","","","","","","","","f","yesOrNo","","","","9","","","lp","1000","","12","605.4000000000001","151"
"","","","","","html-keyboard-response","85","784364","0.0-16.0-0.12","66d04902641a3c8fb01582cb","6790928bebf0b969fc839b02","679828b35a458dedb5cafebd","passed","","","","","","","","","","","","","","","","","ballFalling","604.4000000000001","650.0211431702996","404.58000000000004","11","fallScene","true","","","","13","",""
"","","","","","html-keyboard-response","86","785374","0.0-16.0-1.12","66d04902641a3c8fb01582cb","6790928bebf0b969fc839b02","679828b35a458dedb5cafebd","passed","","589","","","","","","","","","","","","","","j","yesOrNo","","","","11","","","lp","1000","","13","605.4000000000001","372.6340973215488"
"","","","","","html-keyboard-response","87","787381","0.0-16.0-0.13","66d04902641a3c8fb01582cb","6790928bebf0b969fc839b02","679828b35a458dedb5cafebd","passed","","","","","","","","","","","","","","","","","ballFalling","604.4000000000001","596.8711431702998","394.5","10","fallScene","false","","","","14","",""
"","","","","","html-keyboard-response","88","788394","0.0-16.0-1.13","66d04902641a3c8fb01582cb","6790928bebf0b969fc839b02","679828b35a458dedb5cafebd","passed","","680","","","","","","","","","","","","","","f","yesOrNo","","","","10","","","lp","1000","","14","603.4000000000001","215.50214355555383"
"","","","","","html-keyboard-response","89","790047","0.0-16.0-0.14","66d04902641a3c8fb01582cb","6790928bebf0b969fc839b02","679828b35a458dedb5cafebd","passed","","","","","","","","","","","","","","","","","ballFalling","500","479.92114317029973","330.87","6","fallScene","true","","","","15","",""
"","","","","","html-keyboard-response","90","791061","0.0-16.0-1.14","66d04902641a3c8fb01582cb","6790928bebf0b969fc839b02","679828b35a458dedb5cafebd","passed","","634","","","","","","","","","","","","","","f","yesOrNo","","","","6","","","lp","1000","","15","499","189.92909825697632"
"","","","","","html-keyboard-response","91","792628","0.0-16.0-0.15","66d04902641a3c8fb01582cb","6790928bebf0b969fc839b02","679828b35a458dedb5cafebd","passed","","","","","","","","","","","","","","","","","ballFalling","500","553.4711431702997","282.51","7","fallScene","true","","","","16","",""
"","","","","","html-keyboard-response","92","793635","0.0-16.0-1.15","66d04902641a3c8fb01582cb","6790928bebf0b969fc839b02","679828b35a458dedb5cafebd","passed","","891","","","","","","","","","","","","","","f","yesOrNo","","","","7","","","gt","1000","","16","553.4711431702997","282.51"
"","","","","","html-keyboard-response","93","795644","0.0-16.0-0.16","66d04902641a3c8fb01582cb","6790928bebf0b969fc839b02","679828b35a458dedb5cafebd","passed","","","","","","","","","","","","","","","","","ballFalling","604.4000000000001","596.8711431702998","394.5","10","fallScene","false","","","","17","",""
"","","","","","html-keyboard-response","94","796655","0.0-16.0-1.16","66d04902641a3c8fb01582cb","6790928bebf0b969fc839b02","679828b35a458dedb5cafebd","passed","","811","","","","","","","","","","","","","","j","yesOrNo","","","","10","","","mid","1000","","17","536.4288568297004","300"
"","","","","","html-keyboard-response","95","798313","0.0-16.0-0.17","66d04902641a3c8fb01582cb","6790928bebf0b969fc839b02","679828b35a458dedb5cafebd","passed","","","","","","","","","","","","","","","","","ballFalling","500","479.92114317029973","330.87","6","fallScene","false","","","","18","",""
"","","","","","html-keyboard-response","96","799327","0.0-16.0-1.17","66d04902641a3c8fb01582cb","6790928bebf0b969fc839b02","679828b35a458dedb5cafebd","passed","","451","","","","","","","","","","","","","","j","yesOrNo","","","","6","","","lp","1000","","18","499","189.92909825697632"
"","","","","","html-keyboard-response","97","800880","0.0-16.0-0.18","66d04902641a3c8fb01582cb","6790928bebf0b969fc839b02","679828b35a458dedb5cafebd","passed","","","","","","","","","","","","","","","","","ballFalling","322.3","356.42114317029973","357.87","4","fallScene","true","","","","19","",""
"","","","","","html-keyboard-response","98","801893","0.0-16.0-1.18","66d04902641a3c8fb01582cb","6790928bebf0b969fc839b02","679828b35a458dedb5cafebd","passed","","540","","","","","","","","","","","","","","j","yesOrNo","","","","4","","","gt","1000","","19","356.42114317029973","357.87"
"","","","","","html-keyboard-response","99","803906","0.0-16.0-0.19","66d04902641a3c8fb01582cb","6790928bebf0b969fc839b02","679828b35a458dedb5cafebd","passed","","","","","","","","","","","","","","","","","ballFalling","500","510.8711431702997","369.03","8","fallScene","true","","","","20","",""
"","","","","","html-keyboard-response","100","804912","0.0-16.0-1.19","66d04902641a3c8fb01582cb","6790928bebf0b969fc839b02","679828b35a458dedb5cafebd","passed","","496","","","","","","","","","","","","","","f","yesOrNo","","","","8","","","lp","1000","","20","501","151"
"","","","","","html-keyboard-response","101","806933","0.0-16.0-0.20","66d04902641a3c8fb01582cb","6790928bebf0b969fc839b02","679828b35a458dedb5cafebd","passed","","","","","","","","","","","","","","","","","ballFalling","604.4000000000001","596.8711431702998","394.5","10","fallScene","false","","","","21","",""
"","","","","","html-keyboard-response","102","807936","0.0-16.0-1.20","66d04902641a3c8fb01582cb","6790928bebf0b969fc839b02","679828b35a458dedb5cafebd","passed","","491","","","","","","","","","","","","","","j","yesOrNo","","","","10","","","gt","1000","","21","596.8711431702998","394.5"
"","","","","","html-keyboard-response","103","809497","0.0-16.0-0.21","66d04902641a3c8fb01582cb","6790928bebf0b969fc839b02","679828b35a458dedb5cafebd","passed","","","","","","","","","","","","","","","","","ballFalling","322.3","296.07114317029976","371.46","3","fallScene","false","","","","22","",""
"","","","","","html-keyboard-response","104","810510","0.0-16.0-1.21","66d04902641a3c8fb01582cb","6790928bebf0b969fc839b02","679828b35a458dedb5cafebd","passed","","635","","","","","","","","","","","","","","f","yesOrNo","","","","3","","","mid","1000","","22","321.3","300"
"","","","","","html-keyboard-response","105","812163","0.0-16.0-0.22","66d04902641a3c8fb01582cb","6790928bebf0b969fc839b02","679828b35a458dedb5cafebd","passed","","","","","","","","","","","","","","","","","ballFalling","500","479.92114317029973","330.87","6","fallScene","true","","","","23","",""
"","","","","","html-keyboard-response","106","813177","0.0-16.0-1.22","66d04902641a3c8fb01582cb","6790928bebf0b969fc839b02","679828b35a458dedb5cafebd","passed","","754","","","","","","","","","","","","","","f","yesOrNo","","","","6","","","gt","1000","","23","479.9211431702998","330.87"
"","","","","","html-keyboard-response","107","814731","0.0-16.0-0.23","66d04902641a3c8fb01582cb","6790928bebf0b969fc839b02","679828b35a458dedb5cafebd","passed","","","","","","","","","","","","","","","","","ballFalling","604.4000000000001","650.0211431702996","404.58000000000004","11","fallScene","false","","","","24","",""
"","","","","","html-keyboard-response","108","815742","0.0-16.0-1.23","66d04902641a3c8fb01582cb","6790928bebf0b969fc839b02","679828b35a458dedb5cafebd","passed","","624","","","","","","","","","","","","","","j","yesOrNo","","","","11","","","lp","1000","","24","605.4000000000001","372.6340973215488"
"","","","","","html-keyboard-response","109","817651","0.0-17.0","66d04902641a3c8fb01582cb","6790928bebf0b969fc839b02","679828b35a458dedb5cafebd","passed","","1906","","","","","","","","","","","","","<p><span style=""font-size:40px;"">BLOCK 2</span></p><p><span style=""font-size:25px;"">You have <b style=""color: #FF644F;""><strong>1 second(s)</strong></b> to respond to the following trials.</span><br></p><p></p> <!-- Blank line -->
                <p id=""blinking-text"" style=""font-weight; animation: blink 2s infinite;"">Press Space to continue</p>
                <style>
                    @keyframes blink {
                        50% {
                            opacity: 0;
                        }
                    }
                </style></p>"," ","","","","","","","","","","","","",""
"","","","","","html-keyboard-response","110","819446","0.0-18.0-0.0","66d04902641a3c8fb01582cb","6790928bebf0b969fc839b02","679828b35a458dedb5cafebd","passed","","","","","","","","","","","","","","","","","ballFalling","322.3","308.07114317029976","253.89","2","fallScene","false","","","","25","",""
"","","","","","html-keyboard-response","111","820460","0.0-18.0-1.0","66d04902641a3c8fb01582cb","6790928bebf0b969fc839b02","679828b35a458dedb5cafebd","passed","","652","","","","","","","","","","","","","","j","yesOrNo","","","","2","","","mid","1000","","25","321.3","300"
"","","","","","html-keyboard-response","112","822012","0.0-18.0-0.1","66d04902641a3c8fb01582cb","6790928bebf0b969fc839b02","679828b35a458dedb5cafebd","passed","","","","","","","","","","","","","","","","","ballFalling","322.3","379.3711431702997","245.25","1","fallScene","false","","","","26","",""
"","","","","","html-keyboard-response","113","823026","0.0-18.0-1.1","66d04902641a3c8fb01582cb","6790928bebf0b969fc839b02","679828b35a458dedb5cafebd","passed","","590","","","","","","","","","","","","","","j","yesOrNo","","","","1","","","lp","1000","","26","323.3","217.74551669457017"
"","","","","","html-keyboard-response","114","824812","0.0-18.0-0.2","66d04902641a3c8fb01582cb","6790928bebf0b969fc839b02","679828b35a458dedb5cafebd","passed","","","","","","","","","","","","","","","","","ballFalling","322.3","308.07114317029976","253.89","2","fallScene","false","","","","27","",""
"","","","","","html-keyboard-response","115","825820","0.0-18.0-1.2","66d04902641a3c8fb01582cb","6790928bebf0b969fc839b02","679828b35a458dedb5cafebd","passed","","632","","","","","","","","","","","","","","f","yesOrNo","","","","2","","","lp","1000","","27","321.3","151"
"","","","","","html-keyboard-response","116","827613","0.0-18.0-0.3","66d04902641a3c8fb01582cb","6790928bebf0b969fc839b02","679828b35a458dedb5cafebd","passed","","","","","","","","","","","","","","","","","ballFalling","322.3","308.07114317029976","253.89","2","fallScene","false","","","","28","",""
"","","","","","html-keyboard-response","117","828619","0.0-18.0-1.3","66d04902641a3c8fb01582cb","6790928bebf0b969fc839b02","679828b35a458dedb5cafebd","passed","","529","","","","","","","","","","","","","","f","yesOrNo","","","","2","","","gt","1000","","28","308.07114317029976","253.89"
"","","","","","html-keyboard-response","118","830181","0.0-18.0-0.4","66d04902641a3c8fb01582cb","6790928bebf0b969fc839b02","679828b35a458dedb5cafebd","passed","","","","","","","","","","","","","","","","","ballFalling","322.3","356.42114317029973","357.87","4","fallScene","false","","","","29","",""
"","","","","","html-keyboard-response","119","831193","0.0-18.0-1.4","66d04902641a3c8fb01582cb","6790928bebf0b969fc839b02","679828b35a458dedb5cafebd","passed","","823","","","","","","","","","","","","","","j","yesOrNo","","","","4","","","mid","1000","","29","390.27114317029975","300"
"","","","","","html-keyboard-response","120","832757","0.0-18.0-0.5","66d04902641a3c8fb01582cb","6790928bebf0b969fc839b02","679828b35a458dedb5cafebd","passed","","","","","","","","","","","","","","","","","ballFalling","604.4000000000001","650.0211431702996","404.58000000000004","11","fallScene","true","","","","30","",""
"","","","","","html-keyboard-response","121","833775","0.0-18.0-1.5","66d04902641a3c8fb01582cb","6790928bebf0b969fc839b02","679828b35a458dedb5cafebd","passed","","809","","","","","","","","","","","","","","j","yesOrNo","","","","11","","","gt","1000","","30","650.0211431702996","404.58"
"","","","","","html-keyboard-response","122","835428","0.0-18.0-0.6","66d04902641a3c8fb01582cb","6790928bebf0b969fc839b02","679828b35a458dedb5cafebd","passed","","","","","","","","","","","","","","","","","ballFalling","500","479.92114317029973","330.87","6","fallScene","true","","","","31","",""
"","","","","","html-keyboard-response","123","836442","0.0-18.0-1.6","66d04902641a3c8fb01582cb","6790928bebf0b969fc839b02","679828b35a458dedb5cafebd","passed","","765","","","","","","","","","","","","","","j","yesOrNo","","","","6","","","gt","1000","","31","479.9211431702998","330.87"
"","","","","","html-keyboard-response","124","837996","0.0-18.0-0.7","66d04902641a3c8fb01582cb","6790928bebf0b969fc839b02","679828b35a458dedb5cafebd","passed","","","","","","","","","","","","","","","","","ballFalling","604.4000000000001","650.0211431702996","404.58000000000004","11","fallScene","false","","","","32","",""
"","","","","","html-keyboard-response","125","839009","0.0-18.0-1.7","66d04902641a3c8fb01582cb","6790928bebf0b969fc839b02","679828b35a458dedb5cafebd","passed","","467","","","","","","","","","","","","","","j","yesOrNo","","","","11","","","mid","1000","","32","605.4000000000001","300"
"","","","","","html-keyboard-response","126","840496","0.0-18.0-0.8","66d04902641a3c8fb01582cb","6790928bebf0b969fc839b02","679828b35a458dedb5cafebd","passed","","","","","","","","","","","","","","","","","ballFalling","604.4000000000001","667.6211431702998","201.78","9","fallScene","false","","","","33","",""
"","","","","","html-keyboard-response","127","841508","0.0-18.0-1.8","66d04902641a3c8fb01582cb","6790928bebf0b969fc839b02","679828b35a458dedb5cafebd","passed","","647","","","","","","","","","","","","","","f","yesOrNo","","","","9","","","gt","1000","","33","667.6211431702998","201.78"
"","","","","","html-keyboard-response","128","843061","0.0-18.0-0.9","66d04902641a3c8fb01582cb","6790928bebf0b969fc839b02","679828b35a458dedb5cafebd","passed","","","","","","","","","","","","","","","","","ballFalling","322.3","356.42114317029973","357.87","4","fallScene","false","","","","34","",""
"","","","","","html-keyboard-response","129","844074","0.0-18.0-1.9","66d04902641a3c8fb01582cb","6790928bebf0b969fc839b02","679828b35a458dedb5cafebd","passed","","674","","","","","","","","","","","","","","f","yesOrNo","","","","4","","","gt","1000","","34","356.42114317029973","357.87"
"","","","","","html-keyboard-response","130","845628","0.0-18.0-0.10","66d04902641a3c8fb01582cb","6790928bebf0b969fc839b02","679828b35a458dedb5cafebd","passed","","","","","","","","","","","","","","","","","ballFalling","500","453.67114317029973","210.33","5","fallScene","true","","","","35","",""
"","","","","","html-keyboard-response","131","846641","0.0-18.0-1.10","66d04902641a3c8fb01582cb","6790928bebf0b969fc839b02","679828b35a458dedb5cafebd","passed","","967","","","","","","","","","","","","","","f","yesOrNo","","","","5","","","mid","1000","","35","499","300"
"","","","","","html-keyboard-response","132","848129","0.0-18.0-0.11","66d04902641a3c8fb01582cb","6790928bebf0b969fc839b02","679828b35a458dedb5cafebd","passed","","","","","","","","","","","","","","","","","ballFalling","604.4000000000001","667.6211431702998","201.78","9","fallScene","false","","","","36","",""
"","","","","","html-keyboard-response","133","849141","0.0-18.0-1.11","66d04902641a3c8fb01582cb","6790928bebf0b969fc839b02","679828b35a458dedb5cafebd","passed","","679","","","","","","","","","","","","","","f","yesOrNo","","","","9","","","gt","1000","","36","667.6211431702998","201.78"
"","","","","","html-keyboard-response","134","850695","0.0-18.0-0.12","66d04902641a3c8fb01582cb","6790928bebf0b969fc839b02","679828b35a458dedb5cafebd","passed","","","","","","","","","","","","","","","","","ballFalling","604.4000000000001","650.0211431702996","404.58000000000004","11","fallScene","true","","","","37","",""
"","","","","","html-keyboard-response","135","851708","0.0-18.0-1.12","66d04902641a3c8fb01582cb","6790928bebf0b969fc839b02","679828b35a458dedb5cafebd","passed","","448","","","","","","","","","","","","","","j","yesOrNo","","","","11","","","mid","1000","","37","605.4000000000001","300"
"","","","","","html-keyboard-response","136","853262","0.0-18.0-0.13","66d04902641a3c8fb01582cb","6790928bebf0b969fc839b02","679828b35a458dedb5cafebd","passed","","","","","","","","","","","","","","","","","ballFalling","604.4000000000001","575.4211431702997","266.76","12","fallScene","true","","","","38","",""
"","","","","","html-keyboard-response","137","854270","0.0-18.0-1.13","66d04902641a3c8fb01582cb","6790928bebf0b969fc839b02","679828b35a458dedb5cafebd","passed","","682","","","","","","","","","","","","","","j","yesOrNo","","","","12","","","lp","1000","","38","603.4000000000001","151"
"","","","","","html-keyboard-response","138","856061","0.0-18.0-0.14","66d04902641a3c8fb01582cb","6790928bebf0b969fc839b02","679828b35a458dedb5cafebd","passed","","","","","","","","","","","","","","","","","ballFalling","322.3","308.07114317029976","253.89","2","fallScene","false","","","","39","",""
"","","","","","html-keyboard-response","139","857073","0.0-18.0-1.14","66d04902641a3c8fb01582cb","6790928bebf0b969fc839b02","679828b35a458dedb5cafebd","passed","","548","","","","","","","","","","","","","","j","yesOrNo","","","","2","","","mid","1000","","39","321.3","300"
"","","","","","html-keyboard-response","140","858627","0.0-18.0-0.15","66d04902641a3c8fb01582cb","6790928bebf0b969fc839b02","679828b35a458dedb5cafebd","passed","","","","","","","","","","","","","","","","","ballFalling","604.4000000000001","575.4211431702997","266.76","12","fallScene","false","","","","40","",""
"","","","","","html-keyboard-response","141","859640","0.0-18.0-1.15","66d04902641a3c8fb01582cb","6790928bebf0b969fc839b02","679828b35a458dedb5cafebd","passed","","615","","","","","","","","","","","","","","j","yesOrNo","","","","12","","","gt","1000","","40","575.4211431702997","266.76"
"","","","","","html-keyboard-response","142","861195","0.0-18.0-0.16","66d04902641a3c8fb01582cb","6790928bebf0b969fc839b02","679828b35a458dedb5cafebd","passed","","","","","","","","","","","","","","","","","ballFalling","500","453.67114317029973","210.33","5","fallScene","true","","","","41","",""
"","","","","","html-keyboard-response","143","862202","0.0-18.0-1.16","66d04902641a3c8fb01582cb","6790928bebf0b969fc839b02","679828b35a458dedb5cafebd","passed","","813","","","","","","","","","","","","","","f","yesOrNo","","","","5","","","lp","1000","","41","499","151"
"","","","","","html-keyboard-response","144","863761","0.0-18.0-0.17","66d04902641a3c8fb01582cb","6790928bebf0b969fc839b02","679828b35a458dedb5cafebd","passed","","","","","","","","","","","","","","","","","ballFalling","322.3","356.42114317029973","357.87","4","fallScene","true","","","","42","",""
"","","","","","html-keyboard-response","145","864767","0.0-18.0-1.17","66d04902641a3c8fb01582cb","6790928bebf0b969fc839b02","679828b35a458dedb5cafebd","passed","","514","","","","","","","","","","","","","","j","yesOrNo","","","","4","","","mid","1000","","42","390.27114317029975","300"
"","","","","","html-keyboard-response","146","866561","0.0-18.0-0.18","66d04902641a3c8fb01582cb","6790928bebf0b969fc839b02","679828b35a458dedb5cafebd","passed","","","","","","","","","","","","","","","","","ballFalling","322.3","308.07114317029976","253.89","2","fallScene","false","","","","43","",""
"","","","","","html-keyboard-response","147","867574","0.0-18.0-1.18","66d04902641a3c8fb01582cb","6790928bebf0b969fc839b02","679828b35a458dedb5cafebd","passed","","687","","","","","","","","","","","","","","f","yesOrNo","","","","2","","","gt","1000","","43","308.07114317029976","253.89"
"","","","","","html-keyboard-response","148","869577","0.0-18.0-0.19","66d04902641a3c8fb01582cb","6790928bebf0b969fc839b02","679828b35a458dedb5cafebd","passed","","","","","","","","","","","","","","","","","ballFalling","604.4000000000001","596.8711431702998","394.5","10","fallScene","false","","","","44","",""
"","","","","","html-keyboard-response","149","870590","0.0-18.0-1.19","66d04902641a3c8fb01582cb","6790928bebf0b969fc839b02","679828b35a458dedb5cafebd","passed","","800","","","","","","","","","","","","","","j","yesOrNo","","","","10","","","lp","1000","","44","603.4000000000001","215.50214355555383"
"","","","","","html-keyboard-response","150","872594","0.0-18.0-0.20","66d04902641a3c8fb01582cb","6790928bebf0b969fc839b02","679828b35a458dedb5cafebd","passed","","","","","","","","","","","","","","","","","ballFalling","500","510.8711431702997","369.03","8","fallScene","true","","","","45","",""
"","","","","","html-keyboard-response","151","873606","0.0-18.0-1.20","66d04902641a3c8fb01582cb","6790928bebf0b969fc839b02","679828b35a458dedb5cafebd","passed","","666","","","","","","","","","","","","","","j","yesOrNo","","","","8","","","mid","1000","","45","501","300"
"","","","","","html-keyboard-response","152","875174","0.0-18.0-0.21","66d04902641a3c8fb01582cb","6790928bebf0b969fc839b02","679828b35a458dedb5cafebd","passed","","","","","","","","","","","","","","","","","ballFalling","604.4000000000001","575.4211431702997","266.76","12","fallScene","true","","","","46","",""
"","","","","","html-keyboard-response","153","876182","0.0-18.0-1.21","66d04902641a3c8fb01582cb","6790928bebf0b969fc839b02","679828b35a458dedb5cafebd","passed","","801","","","","","","","","","","","","","","f","yesOrNo","","","","12","","","gt","1000","","46","575.4211431702997","266.76"
"","","","","","html-keyboard-response","154","877844","0.0-18.0-0.22","66d04902641a3c8fb01582cb","6790928bebf0b969fc839b02","679828b35a458dedb5cafebd","passed","","","","","","","","","","","","","","","","","ballFalling","500","479.92114317029973","330.87","6","fallScene","false","","","","47","",""
"","","","","","html-keyboard-response","155","878857","0.0-18.0-1.22","66d04902641a3c8fb01582cb","6790928bebf0b969fc839b02","679828b35a458dedb5cafebd","passed","","731","","","","","","","","","","","","","","j","yesOrNo","","","","6","","","mid","1000","","47","499","300"
"","","","","","html-keyboard-response","156","880860","0.0-18.0-0.23","66d04902641a3c8fb01582cb","6790928bebf0b969fc839b02","679828b35a458dedb5cafebd","passed","","","","","","","","","","","","","","","","","ballFalling","500","510.8711431702997","369.03","8","fallScene","true","","","","48","",""
"","","","","","html-keyboard-response","157","881868","0.0-18.0-1.23","66d04902641a3c8fb01582cb","6790928bebf0b969fc839b02","679828b35a458dedb5cafebd","passed","","986","","","","","","","","","","","","","","j","yesOrNo","","","","8","","","gt","1000","","48","510.8711431702997","369.03"
"","","","","","html-keyboard-response","158","883818","0.0-19.0","66d04902641a3c8fb01582cb","6790928bebf0b969fc839b02","679828b35a458dedb5cafebd","passed","","1946","","","","","","","","","","","","","<p><span style=""font-size:40px;"">BLOCK 3</span></p><p><span style=""font-size:25px;"">You have <b style=""color: #FF644F;""><strong>3 second(s)</strong></b> to respond to the following trials.</span><br></p><p></p> <!-- Blank line -->
                <p id=""blinking-text"" style=""font-weight; animation: blink 2s infinite;"">Press Space to continue</p>
                <style>
                    @keyframes blink {
                        50% {
                            opacity: 0;
                        }
                    }
                </style></p>"," ","","","","","","","","","","","","",""
"","","","","","html-keyboard-response","159","885310","0.0-20.0-0.0","66d04902641a3c8fb01582cb","6790928bebf0b969fc839b02","679828b35a458dedb5cafebd","passed","","","","","","","","","","","","","","","","","ballFalling","604.4000000000001","667.6211431702998","201.78","9","fallScene","true","","","","49","",""
"","","","","","html-keyboard-response","160","888323","0.0-20.0-1.0","66d04902641a3c8fb01582cb","6790928bebf0b969fc839b02","679828b35a458dedb5cafebd","passed","","746","","","","","","","","","","","","","","f","yesOrNo","","","","9","","","lp","3000","","49","605.4000000000001","151"
"","","","","","html-keyboard-response","161","889876","0.0-20.0-0.1","66d04902641a3c8fb01582cb","6790928bebf0b969fc839b02","679828b35a458dedb5cafebd","passed","","","","","","","","","","","","","","","","","ballFalling","604.4000000000001","650.0211431702996","404.58000000000004","11","fallScene","true","","","","50","",""
"","","","","","html-keyboard-response","162","892888","0.0-20.0-1.1","66d04902641a3c8fb01582cb","6790928bebf0b969fc839b02","679828b35a458dedb5cafebd","passed","","723","","","","","","","","","","","","","","j","yesOrNo","","","","11","","","gt","3000","","50","650.0211431702996","404.58"
"","","","","","html-keyboard-response","163","894444","0.0-20.0-0.2","66d04902641a3c8fb01582cb","6790928bebf0b969fc839b02","679828b35a458dedb5cafebd","passed","","","","","","","","","","","","","","","","","ballFalling","604.4000000000001","650.0211431702996","404.58000000000004","11","fallScene","true","","","","51","",""
"","","","","","html-keyboard-response","164","897456","0.0-20.0-1.2","66d04902641a3c8fb01582cb","6790928bebf0b969fc839b02","679828b35a458dedb5cafebd","passed","","562","","","","","","","","","","","","","","j","yesOrNo","","","","11","","","gt","3000","","51","650.0211431702996","404.58"
"","","","","","html-keyboard-response","165","899025","0.0-20.0-0.3","66d04902641a3c8fb01582cb","6790928bebf0b969fc839b02","679828b35a458dedb5cafebd","passed","","","","","","","","","","","","","","","","","ballFalling","500","553.4711431702997","282.51","7","fallScene","true","","","","52","",""
"","","","","","html-keyboard-response","166","902039","0.0-20.0-1.3","66d04902641a3c8fb01582cb","6790928bebf0b969fc839b02","679828b35a458dedb5cafebd","passed","","851","","","","","","","","","","","","","","f","yesOrNo","","","","7","","","lp","3000","","52","501","227.2843295913261"
"","","","","","html-keyboard-response","167","903526","0.0-20.0-0.4","66d04902641a3c8fb01582cb","6790928bebf0b969fc839b02","679828b35a458dedb5cafebd","passed","","","","","","","","","","","","","","","","","ballFalling","604.4000000000001","667.6211431702998","201.78","9","fallScene","false","","","","53","",""
"","","","","","html-keyboard-response","168","906539","0.0-20.0-1.4","66d04902641a3c8fb01582cb","6790928bebf0b969fc839b02","679828b35a458dedb5cafebd","passed","","782","","","","","","","","","","","","","","j","yesOrNo","","","","9","","","mid","3000","","53","605.4000000000001","300"
"","","","","","html-keyboard-response","169","908543","0.0-20.0-0.5","66d04902641a3c8fb01582cb","6790928bebf0b969fc839b02","679828b35a458dedb5cafebd","passed","","","","","","","","","","","","","","","","","ballFalling","500","510.8711431702997","369.03","8","fallScene","true","","","","54","",""
"","","","","","html-keyboard-response","170","911555","0.0-20.0-1.5","66d04902641a3c8fb01582cb","6790928bebf0b969fc839b02","679828b35a458dedb5cafebd","passed","","799","","","","","","","","","","","","","","j","yesOrNo","","","","8","","","mid","3000","","54","501","300"
"","","","","","html-keyboard-response","171","913109","0.0-20.0-0.6","66d04902641a3c8fb01582cb","6790928bebf0b969fc839b02","679828b35a458dedb5cafebd","passed","","","","","","","","","","","","","","","","","ballFalling","322.3","296.07114317029976","371.46","3","fallScene","true","","","","55","",""
"","","","","","html-keyboard-response","172","916122","0.0-20.0-1.6","66d04902641a3c8fb01582cb","6790928bebf0b969fc839b02","679828b35a458dedb5cafebd","passed","","756","","","","","","","","","","","","","","j","yesOrNo","","","","3","","","mid","3000","","55","321.3","300"
"","","","","","html-keyboard-response","173","917676","0.0-20.0-0.7","66d04902641a3c8fb01582cb","6790928bebf0b969fc839b02","679828b35a458dedb5cafebd","passed","","","","","","","","","","","","","","","","","ballFalling","322.3","296.07114317029976","371.46","3","fallScene","true","","","","56","",""
"","","","","","html-keyboard-response","174","920688","0.0-20.0-1.7","66d04902641a3c8fb01582cb","6790928bebf0b969fc839b02","679828b35a458dedb5cafebd","passed","","758","","","","","","","","","","","","","","j","yesOrNo","","","","3","","","gt","3000","","56","296.07114317029976","371.46"
"","","","","","html-keyboard-response","175","922257","0.0-20.0-0.8","66d04902641a3c8fb01582cb","6790928bebf0b969fc839b02","679828b35a458dedb5cafebd","passed","","","","","","","","","","","","","","","","","ballFalling","500","553.4711431702997","282.51","7","fallScene","false","","","","57","",""
"","","","","","html-keyboard-response","176","925271","0.0-20.0-1.8","66d04902641a3c8fb01582cb","6790928bebf0b969fc839b02","679828b35a458dedb5cafebd","passed","","950","","","","","","","","","","","","","","f","yesOrNo","","","","7","","","gt","3000","","57","553.4711431702997","282.51"
"","","","","","html-keyboard-response","177","927274","0.0-20.0-0.9","66d04902641a3c8fb01582cb","6790928bebf0b969fc839b02","679828b35a458dedb5cafebd","passed","","","","","","","","","","","","","","","","","ballFalling","604.4000000000001","596.8711431702998","394.5","10","fallScene","false","","","","58","",""
"","","","","","html-keyboard-response","178","930287","0.0-20.0-1.9","66d04902641a3c8fb01582cb","6790928bebf0b969fc839b02","679828b35a458dedb5cafebd","passed","","638","","","","","","","","","","","","","","j","yesOrNo","","","","10","","","gt","3000","","58","596.8711431702998","394.5"
"","","","","","html-keyboard-response","179","931841","0.0-20.0-0.10","66d04902641a3c8fb01582cb","6790928bebf0b969fc839b02","679828b35a458dedb5cafebd","passed","","","","","","","","","","","","","","","","","ballFalling","322.3","379.3711431702997","245.25","1","fallScene","false","","","","59","",""
"","","","","","html-keyboard-response","180","934854","0.0-20.0-1.10","66d04902641a3c8fb01582cb","6790928bebf0b969fc839b02","679828b35a458dedb5cafebd","passed","","875","","","","","","","","","","","","","","j","yesOrNo","","","","1","","","gt","3000","","59","379.3711431702997","245.25"
"","","","","","html-keyboard-response","181","936407","0.0-20.0-0.11","66d04902641a3c8fb01582cb","6790928bebf0b969fc839b02","679828b35a458dedb5cafebd","passed","","","","","","","","","","","","","","","","","ballFalling","500","453.67114317029973","210.33","5","fallScene","false","","","","60","",""
"","","","","","html-keyboard-response","182","939421","0.0-20.0-1.11","66d04902641a3c8fb01582cb","6790928bebf0b969fc839b02","679828b35a458dedb5cafebd","passed","","615","","","","","","","","","","","","","","j","yesOrNo","","","","5","","","mid","3000","","60","499","300"
"","","","","","html-keyboard-response","183","940974","0.0-20.0-0.12","66d04902641a3c8fb01582cb","6790928bebf0b969fc839b02","679828b35a458dedb5cafebd","passed","","","","","","","","","","","","","","","","","ballFalling","322.3","296.07114317029976","371.46","3","fallScene","false","","","","61","",""
"","","","","","html-keyboard-response","184","943987","0.0-20.0-1.12","66d04902641a3c8fb01582cb","6790928bebf0b969fc839b02","679828b35a458dedb5cafebd","passed","","635","","","","","","","","","","","","","","j","yesOrNo","","","","3","","","lp","3000","","61","321.3","287.3327096511259"
"","","","","","html-keyboard-response","185","945640","0.0-20.0-0.13","66d04902641a3c8fb01582cb","6790928bebf0b969fc839b02","679828b35a458dedb5cafebd","passed","","","","","","","","","","","","","","","","","ballFalling","500","479.92114317029973","330.87","6","fallScene","true","","","","62","",""
"","","","","","html-keyboard-response","186","948654","0.0-20.0-1.13","66d04902641a3c8fb01582cb","6790928bebf0b969fc839b02","679828b35a458dedb5cafebd","passed","","915","","","","","","","","","","","","","","f","yesOrNo","","","","6","","","lp","3000","","62","499","189.92909825697632"
"","","","","","html-keyboard-response","187","950207","0.0-20.0-0.14","66d04902641a3c8fb01582cb","6790928bebf0b969fc839b02","679828b35a458dedb5cafebd","passed","","","","","","","","","","","","","","","","","ballFalling","322.3","379.3711431702997","245.25","1","fallScene","false","","","","63","",""
"","","","","","html-keyboard-response","188","953219","0.0-20.0-1.14","66d04902641a3c8fb01582cb","6790928bebf0b969fc839b02","679828b35a458dedb5cafebd","passed","","816","","","","","","","","","","","","","","f","yesOrNo","","","","1","","","lp","3000","","63","323.3","217.74551669457017"
"","","","","","html-keyboard-response","189","955225","0.0-20.0-0.15","66d04902641a3c8fb01582cb","6790928bebf0b969fc839b02","679828b35a458dedb5cafebd","passed","","","","","","","","","","","","","","","","","ballFalling","500","510.8711431702997","369.03","8","fallScene","false","","","","64","",""
"","","","","","html-keyboard-response","190","958236","0.0-20.0-1.15","66d04902641a3c8fb01582cb","6790928bebf0b969fc839b02","679828b35a458dedb5cafebd","passed","","1288","","","","","","","","","","","","","","j","yesOrNo","","","","8","","","gt","3000","","64","510.8711431702997","369.03"
"","","","","","html-keyboard-response","191","959790","0.0-20.0-0.16","66d04902641a3c8fb01582cb","6790928bebf0b969fc839b02","679828b35a458dedb5cafebd","passed","","","","","","","","","","","","","","","","","ballFalling","322.3","296.07114317029976","371.46","3","fallScene","true","","","","65","",""
"","","","","","html-keyboard-response","192","962801","0.0-20.0-1.16","66d04902641a3c8fb01582cb","6790928bebf0b969fc839b02","679828b35a458dedb5cafebd","passed","","671","","","","","","","","","","","","","","j","yesOrNo","","","","3","","","gt","3000","","65","296.07114317029976","371.46"
"","","","","","html-keyboard-response","193","964356","0.0-20.0-0.17","66d04902641a3c8fb01582cb","6790928bebf0b969fc839b02","679828b35a458dedb5cafebd","passed","","","","","","","","","","","","","","","","","ballFalling","322.3","356.42114317029973","357.87","4","fallScene","false","","","","66","",""
"","","","","","html-keyboard-response","194","967370","0.0-20.0-1.17","66d04902641a3c8fb01582cb","6790928bebf0b969fc839b02","679828b35a458dedb5cafebd","passed","","1331","","","","","","","","","","","","","","f","yesOrNo","","","","4","","","gt","3000","","66","356.42114317029973","357.87"
"","","","","","html-keyboard-response","195","968923","0.0-20.0-0.18","66d04902641a3c8fb01582cb","6790928bebf0b969fc839b02","679828b35a458dedb5cafebd","passed","","","","","","","","","","","","","","","","","ballFalling","322.3","356.42114317029973","357.87","4","fallScene","false","","","","67","",""
"","","","","","html-keyboard-response","196","971935","0.0-20.0-1.18","66d04902641a3c8fb01582cb","6790928bebf0b969fc839b02","679828b35a458dedb5cafebd","passed","","715","","","","","","","","","","","","","","j","yesOrNo","","","","4","","","gt","3000","","67","356.42114317029973","357.87"
"","","","","","html-keyboard-response","197","973489","0.0-20.0-0.19","66d04902641a3c8fb01582cb","6790928bebf0b969fc839b02","679828b35a458dedb5cafebd","passed","","","","","","","","","","","","","","","","","ballFalling","604.4000000000001","575.4211431702997","266.76","12","fallScene","true","","","","68","",""
"","","","","","html-keyboard-response","198","976503","0.0-20.0-1.19","66d04902641a3c8fb01582cb","6790928bebf0b969fc839b02","679828b35a458dedb5cafebd","passed","","993","","","","","","","","","","","","","","f","yesOrNo","","","","12","","","mid","3000","","68","536.4288568297004","300"
"","","","","","html-keyboard-response","199","978056","0.0-20.0-0.20","66d04902641a3c8fb01582cb","6790928bebf0b969fc839b02","679828b35a458dedb5cafebd","passed","","","","","","","","","","","","","","","","","ballFalling","604.4000000000001","650.0211431702996","404.58000000000004","11","fallScene","false","","","","69","",""
"","","","","","html-keyboard-response","200","981069","0.0-20.0-1.20","66d04902641a3c8fb01582cb","6790928bebf0b969fc839b02","679828b35a458dedb5cafebd","passed","","1049","","","","","","","","","","","","","","f","yesOrNo","","","","11","","","mid","3000","","69","605.4000000000001","300"
"","","","","","html-keyboard-response","201","982622","0.0-20.0-0.21","66d04902641a3c8fb01582cb","6790928bebf0b969fc839b02","679828b35a458dedb5cafebd","passed","","","","","","","","","","","","","","","","","ballFalling","322.3","356.42114317029973","357.87","4","fallScene","false","","","","70","",""
"","","","","","html-keyboard-response","202","985636","0.0-20.0-1.21","66d04902641a3c8fb01582cb","6790928bebf0b969fc839b02","679828b35a458dedb5cafebd","passed","","1186","","","","","","","","","","","","","","j","yesOrNo","","","","4","","","lp","3000","","70","323.3","297.4070551689986"
"","","","","","html-keyboard-response","203","987430","0.0-20.0-0.22","66d04902641a3c8fb01582cb","6790928bebf0b969fc839b02","679828b35a458dedb5cafebd","passed","","","","","","","","","","","","","","","","","ballFalling","322.3","308.07114317029976","253.89","2","fallScene","false","","","","71","",""
"","","","","","html-keyboard-response","204","990435","0.0-20.0-1.22","66d04902641a3c8fb01582cb","6790928bebf0b969fc839b02","679828b35a458dedb5cafebd","passed","","997","","","","","","","","","","","","","","f","yesOrNo","","","","2","","","gt","3000","","71","308.07114317029976","253.89"
"","","","","","html-keyboard-response","205","992005","0.0-20.0-0.23","66d04902641a3c8fb01582cb","6790928bebf0b969fc839b02","679828b35a458dedb5cafebd","passed","","","","","","","","","","","","","","","","","ballFalling","500","553.4711431702997","282.51","7","fallScene","true","","","","72","",""
"","","","","","html-keyboard-response","206","995018","0.0-20.0-1.23","66d04902641a3c8fb01582cb","6790928bebf0b969fc839b02","679828b35a458dedb5cafebd","passed","","1170","","","","","","","","","","","","","","f","yesOrNo","","","","7","","","gt","3000","","72","553.4711431702997","282.51"
"","","","","","html-keyboard-response","207","996945","0.0-21.0","66d04902641a3c8fb01582cb","6790928bebf0b969fc839b02","679828b35a458dedb5cafebd","passed","","1923","","","","","","","","","","","","","<p><span style=""font-size:40px;"">BLOCK 4</span></p><p><span style=""font-size:25px;"">You have <b style=""color: #FF644F;""><strong>1 second(s)</strong></b> to respond to the following trials.</span><br></p><p></p> <!-- Blank line -->
                <p id=""blinking-text"" style=""font-weight; animation: blink 2s infinite;"">Press Space to continue</p>
                <style>
                    @keyframes blink {
                        50% {
                            opacity: 0;
                        }
                    }
                </style></p>"," ","","","","","","","","","","","","",""
"","","","","","html-keyboard-response","208","998518","0.0-22.0-0.0","66d04902641a3c8fb01582cb","6790928bebf0b969fc839b02","679828b35a458dedb5cafebd","passed","","","","","","","","","","","","","","","","","ballFalling","322.3","296.07114317029976","371.46","3","fallScene","false","","","","73","",""
"","","","","","html-keyboard-response","209","999522","0.0-22.0-1.0","66d04902641a3c8fb01582cb","6790928bebf0b969fc839b02","679828b35a458dedb5cafebd","passed","","523","","","","","","","","","","","","","","j","yesOrNo","","","","3","","","lp","1000","","73","321.3","287.3327096511259"
"","","","","","html-keyboard-response","210","1001104","0.0-22.0-0.1","66d04902641a3c8fb01582cb","6790928bebf0b969fc839b02","679828b35a458dedb5cafebd","passed","","","","","","","","","","","","","","","","","ballFalling","500","553.4711431702997","282.51","7","fallScene","false","","","","74","",""
"","","","","","html-keyboard-response","211","1002118","0.0-22.0-1.1","66d04902641a3c8fb01582cb","6790928bebf0b969fc839b02","679828b35a458dedb5cafebd","passed","","671","","","","","","","","","","","","","","j","yesOrNo","","","","7","","","lp","1000","","74","501","227.2843295913261"
"","","","","","html-keyboard-response","212","1003671","0.0-22.0-0.2","66d04902641a3c8fb01582cb","6790928bebf0b969fc839b02","679828b35a458dedb5cafebd","passed","","","","","","","","","","","","","","","","","ballFalling","604.4000000000001","575.4211431702997","266.76","12","fallScene","false","","","","75","",""
"","","","","","html-keyboard-response","213","1004685","0.0-22.0-1.2","66d04902641a3c8fb01582cb","6790928bebf0b969fc839b02","679828b35a458dedb5cafebd","passed","","732","","","","","","","","","","","","","","f","yesOrNo","","","","12","","","mid","1000","","75","536.4288568297004","300"
"","","","","","html-keyboard-response","214","1006690","0.0-22.0-0.3","66d04902641a3c8fb01582cb","6790928bebf0b969fc839b02","679828b35a458dedb5cafebd","passed","","","","","","","","","","","","","","","","","ballFalling","604.4000000000001","596.8711431702998","394.5","10","fallScene","true","","","","76","",""
"","","","","","html-keyboard-response","215","1007692","0.0-22.0-1.3","66d04902641a3c8fb01582cb","6790928bebf0b969fc839b02","679828b35a458dedb5cafebd","passed","","607","","","","","","","","","","","","","","f","yesOrNo","","","","10","","","mid","1000","","76","536.4288568297004","300"
"","","","","","html-keyboard-response","216","1009254","0.0-22.0-0.4","66d04902641a3c8fb01582cb","6790928bebf0b969fc839b02","679828b35a458dedb5cafebd","passed","","","","","","","","","","","","","","","","","ballFalling","322.3","379.3711431702997","245.25","1","fallScene","false","","","","77","",""
"","","","","","html-keyboard-response","217","1010268","0.0-22.0-1.4","66d04902641a3c8fb01582cb","6790928bebf0b969fc839b02","679828b35a458dedb5cafebd","passed","","818","","","","","","","","","","","","","","j","yesOrNo","","","","1","","","gt","1000","","77","379.3711431702997","245.25"
"","","","","","html-keyboard-response","218","1011754","0.0-22.0-0.5","66d04902641a3c8fb01582cb","6790928bebf0b969fc839b02","679828b35a458dedb5cafebd","passed","","","","","","","","","","","","","","","","","ballFalling","604.4000000000001","667.6211431702998","201.78","9","fallScene","false","","","","78","",""
"","","","","","html-keyboard-response","219","1012768","0.0-22.0-1.5","66d04902641a3c8fb01582cb","6790928bebf0b969fc839b02","679828b35a458dedb5cafebd","passed","","808","","","","","","","","","","","","","","j","yesOrNo","","","","9","","","mid","1000","","78","605.4000000000001","300"
"","","","","","html-keyboard-response","220","1014321","0.0-22.0-0.6","66d04902641a3c8fb01582cb","6790928bebf0b969fc839b02","679828b35a458dedb5cafebd","passed","","","","","","","","","","","","","","","","","ballFalling","500","453.67114317029973","210.33","5","fallScene","false","","","","79","",""
"","","","","","html-keyboard-response","221","1015334","0.0-22.0-1.6","66d04902641a3c8fb01582cb","6790928bebf0b969fc839b02","679828b35a458dedb5cafebd","passed","","641","","","","","","","","","","","","","","j","yesOrNo","","","","5","","","lp","1000","","79","499","151"
"","","","","","html-keyboard-response","222","1016904","0.0-22.0-0.7","66d04902641a3c8fb01582cb","6790928bebf0b969fc839b02","679828b35a458dedb5cafebd","passed","","","","","","","","","","","","","","","","","ballFalling","500","553.4711431702997","282.51","7","fallScene","true","","","","80","",""
"","","","","","html-keyboard-response","223","1017916","0.0-22.0-1.7","66d04902641a3c8fb01582cb","6790928bebf0b969fc839b02","679828b35a458dedb5cafebd","passed","","523","","","","","","","","","","","","","","j","yesOrNo","","","","7","","","mid","1000","","80","501","300"
"","","","","","html-keyboard-response","224","1019403","0.0-22.0-0.8","66d04902641a3c8fb01582cb","6790928bebf0b969fc839b02","679828b35a458dedb5cafebd","passed","","","","","","","","","","","","","","","","","ballFalling","604.4000000000001","667.6211431702998","201.78","9","fallScene","true","","","","81","",""
"","","","","","html-keyboard-response","225","1020417","0.0-22.0-1.8","66d04902641a3c8fb01582cb","6790928bebf0b969fc839b02","679828b35a458dedb5cafebd","passed","","667","","","","","","","","","","","","","","f","yesOrNo","","","","9","","","lp","1000","","81","605.4000000000001","151"
"","","","","","html-keyboard-response","226","1021970","0.0-22.0-0.9","66d04902641a3c8fb01582cb","6790928bebf0b969fc839b02","679828b35a458dedb5cafebd","passed","","","","","","","","","","","","","","","","","ballFalling","604.4000000000001","575.4211431702997","266.76","12","fallScene","true","","","","82","",""
"","","","","","html-keyboard-response","227","1022983","0.0-22.0-1.9","66d04902641a3c8fb01582cb","6790928bebf0b969fc839b02","679828b35a458dedb5cafebd","passed","","672","","","","","","","","","","","","","","f","yesOrNo","","","","12","","","mid","1000","","82","536.4288568297004","300"
"","","","","","html-keyboard-response","228","1024984","0.0-22.0-0.10","66d04902641a3c8fb01582cb","6790928bebf0b969fc839b02","679828b35a458dedb5cafebd","passed","","","","","","","","","","","","","","","","","ballFalling","500","510.8711431702997","369.03","8","fallScene","false","","","","83","",""
"","","","","","html-keyboard-response","229","1025999","0.0-22.0-1.10","66d04902641a3c8fb01582cb","6790928bebf0b969fc839b02","679828b35a458dedb5cafebd","passed","","582","","","","","","","","","","","","","","j","yesOrNo","","","","8","","","gt","1000","","83","510.8711431702997","369.03"
"","","","","","html-keyboard-response","230","1027537","0.0-22.0-0.11","66d04902641a3c8fb01582cb","6790928bebf0b969fc839b02","679828b35a458dedb5cafebd","passed","","","","","","","","","","","","","","","","","ballFalling","322.3","296.07114317029976","371.46","3","fallScene","true","","","","84","",""
"","","","","","html-keyboard-response","231","1028549","0.0-22.0-1.11","66d04902641a3c8fb01582cb","6790928bebf0b969fc839b02","679828b35a458dedb5cafebd","passed","","517","","","","","","","","","","","","","","j","yesOrNo","","","","3","","","gt","1000","","84","296.07114317029976","371.46"
"","","","","","html-keyboard-response","232","1030103","0.0-22.0-0.12","66d04902641a3c8fb01582cb","6790928bebf0b969fc839b02","679828b35a458dedb5cafebd","passed","","","","","","","","","","","","","","","","","ballFalling","500","453.67114317029973","210.33","5","fallScene","false","","","","85","",""
"","","","","","html-keyboard-response","233","1031117","0.0-22.0-1.12","66d04902641a3c8fb01582cb","6790928bebf0b969fc839b02","679828b35a458dedb5cafebd","passed","","445","","","","","","","","","","","","","","f","yesOrNo","","","","5","","","gt","1000","","85","453.6711431702998","210.33"
"","","","","","html-keyboard-response","234","1032770","0.0-22.0-0.13","66d04902641a3c8fb01582cb","6790928bebf0b969fc839b02","679828b35a458dedb5cafebd","passed","","","","","","","","","","","","","","","","","ballFalling","500","479.92114317029973","330.87","6","fallScene","false","","","","86","",""
"","","","","","html-keyboard-response","235","1033778","0.0-22.0-1.13","66d04902641a3c8fb01582cb","6790928bebf0b969fc839b02","679828b35a458dedb5cafebd","passed","","733","","","","","","","","","","","","","","f","yesOrNo","","","","6","","","mid","1000","","86","499","300"
"","","","","","html-keyboard-response","236","1035337","0.0-22.0-0.14","66d04902641a3c8fb01582cb","6790928bebf0b969fc839b02","679828b35a458dedb5cafebd","passed","","","","","","","","","","","","","","","","","ballFalling","604.4000000000001","575.4211431702997","266.76","12","fallScene","true","","","","87","",""
"","","","","","html-keyboard-response","237","1036350","0.0-22.0-1.14","66d04902641a3c8fb01582cb","6790928bebf0b969fc839b02","679828b35a458dedb5cafebd","passed","","831","","","","","","","","","","","","","","f","yesOrNo","","","","12","","","lp","1000","","87","603.4000000000001","151"
"","","","","","html-keyboard-response","238","1037903","0.0-22.0-0.15","66d04902641a3c8fb01582cb","6790928bebf0b969fc839b02","679828b35a458dedb5cafebd","passed","","","","","","","","","","","","","","","","","ballFalling","604.4000000000001","650.0211431702996","404.58000000000004","11","fallScene","true","","","","88","",""
"","","","","","html-keyboard-response","239","1038910","0.0-22.0-1.15","66d04902641a3c8fb01582cb","6790928bebf0b969fc839b02","679828b35a458dedb5cafebd","passed","","697","","","","","","","","","","","","","","j","yesOrNo","","","","11","","","gt","1000","","88","650.0211431702996","404.58"
"","","","","","html-keyboard-response","240","1040404","0.0-22.0-0.16","66d04902641a3c8fb01582cb","6790928bebf0b969fc839b02","679828b35a458dedb5cafebd","passed","","","","","","","","","","","","","","","","","ballFalling","604.4000000000001","667.6211431702998","201.78","9","fallScene","true","","","","89","",""
"","","","","","html-keyboard-response","241","1041416","0.0-22.0-1.16","66d04902641a3c8fb01582cb","6790928bebf0b969fc839b02","679828b35a458dedb5cafebd","passed","","631","","","","","","","","","","","","","","j","yesOrNo","","","","9","","","mid","1000","","89","605.4000000000001","300"
"","","","","","html-keyboard-response","242","1042986","0.0-22.0-0.17","66d04902641a3c8fb01582cb","6790928bebf0b969fc839b02","679828b35a458dedb5cafebd","passed","","","","","","","","","","","","","","","","","ballFalling","500","553.4711431702997","282.51","7","fallScene","false","","","","90","",""
"","","","","","html-keyboard-response","243","1043999","0.0-22.0-1.17","66d04902641a3c8fb01582cb","6790928bebf0b969fc839b02","679828b35a458dedb5cafebd","passed","","579","","","","","","","","","","","","","","j","yesOrNo","","","","7","","","mid","1000","","90","501","300"
"","","","","","html-keyboard-response","244","1045552","0.0-22.0-0.18","66d04902641a3c8fb01582cb","6790928bebf0b969fc839b02","679828b35a458dedb5cafebd","passed","","","","","","","","","","","","","","","","","ballFalling","322.3","296.07114317029976","371.46","3","fallScene","false","","","","91","",""
"","","","","","html-keyboard-response","245","1046560","0.0-22.0-1.18","66d04902641a3c8fb01582cb","6790928bebf0b969fc839b02","679828b35a458dedb5cafebd","passed","","803","","","","","","","","","","","","","","f","yesOrNo","","","","3","","","lp","1000","","91","321.3","287.3327096511259"
"","","","","","html-keyboard-response","246","1048582","0.0-22.0-0.19","66d04902641a3c8fb01582cb","6790928bebf0b969fc839b02","679828b35a458dedb5cafebd","passed","","","","","","","","","","","","","","","","","ballFalling","500","510.8711431702997","369.03","8","fallScene","true","","","","92","",""
"","","","","","html-keyboard-response","247","1049585","0.0-22.0-1.19","66d04902641a3c8fb01582cb","6790928bebf0b969fc839b02","679828b35a458dedb5cafebd","passed","","625","","","","","","","","","","","","","","f","yesOrNo","","","","8","","","lp","1000","","92","501","151"
"","","","","","html-keyboard-response","248","1051153","0.0-22.0-0.20","66d04902641a3c8fb01582cb","6790928bebf0b969fc839b02","679828b35a458dedb5cafebd","passed","","","","","","","","","","","","","","","","","ballFalling","322.3","379.3711431702997","245.25","1","fallScene","false","","","","93","",""
"","","","","","html-keyboard-response","249","1052166","0.0-22.0-1.20","66d04902641a3c8fb01582cb","6790928bebf0b969fc839b02","679828b35a458dedb5cafebd","passed","","515","","","","","","","","","","","","","","f","yesOrNo","","","","1","","","lp","1000","","93","323.3","217.74551669457017"
"","","","","","html-keyboard-response","250","1053719","0.0-22.0-0.21","66d04902641a3c8fb01582cb","6790928bebf0b969fc839b02","679828b35a458dedb5cafebd","passed","","","","","","","","","","","","","","","","","ballFalling","322.3","296.07114317029976","371.46","3","fallScene","false","","","","94","",""
"","","","","","html-keyboard-response","251","1054732","0.0-22.0-1.21","66d04902641a3c8fb01582cb","6790928bebf0b969fc839b02","679828b35a458dedb5cafebd","passed","","755","","","","","","","","","","","","","","j","yesOrNo","","","","3","","","mid","1000","","94","321.3","300"
"","","","","","html-keyboard-response","252","1056302","0.0-22.0-0.22","66d04902641a3c8fb01582cb","6790928bebf0b969fc839b02","679828b35a458dedb5cafebd","passed","","","","","","","","","","","","","","","","","ballFalling","500","553.4711431702997","282.51","7","fallScene","true","","","","95","",""
"","","","","","html-keyboard-response","253","1057315","0.0-22.0-1.22","66d04902641a3c8fb01582cb","6790928bebf0b969fc839b02","679828b35a458dedb5cafebd","passed","","697","","","","","","","","","","","","","","f","yesOrNo","","","","7","","","lp","1000","","95","501","227.2843295913261"
"","","","","","html-keyboard-response","254","1058869","0.0-22.0-0.23","66d04902641a3c8fb01582cb","6790928bebf0b969fc839b02","679828b35a458dedb5cafebd","passed","","","","","","","","","","","","","","","","","ballFalling","322.3","296.07114317029976","371.46","3","fallScene","true","","","","96","",""
"","","","","","html-keyboard-response","255","1059882","0.0-22.0-1.23","66d04902641a3c8fb01582cb","6790928bebf0b969fc839b02","679828b35a458dedb5cafebd","passed","","681","","","","","","","","","","","","","","j","yesOrNo","","","","3","","","gt","1000","","96","296.07114317029976","371.46"
"","","","","","html-keyboard-response","256","1063850","0.0-23.0","66d04902641a3c8fb01582cb","6790928bebf0b969fc839b02","679828b35a458dedb5cafebd","passed","","3963","","","","","","","","","","","","","<p><span style=""font-size:40px;"">BLOCK 5</span></p><p><span style=""font-size:25px;"">You have <b style=""color: #FF644F;""><strong>3 second(s)</strong></b> to respond to the following trials.</span><br></p><p></p> <!-- Blank line -->
                <p id=""blinking-text"" style=""font-weight; animation: blink 2s infinite;"">Press Space to continue</p>
                <style>
                    @keyframes blink {
                        50% {
                            opacity: 0;
                        }
                    }
                </style></p>"," ","","","","","","","","","","","","",""
"","","","","","html-keyboard-response","257","1065651","0.0-24.0-0.0","66d04902641a3c8fb01582cb","6790928bebf0b969fc839b02","679828b35a458dedb5cafebd","passed","","","","","","","","","","","","","","","","","ballFalling","322.3","308.07114317029976","253.89","2","fallScene","true","","","","97","",""
"","","","","","html-keyboard-response","258","1068665","0.0-24.0-1.0","66d04902641a3c8fb01582cb","6790928bebf0b969fc839b02","679828b35a458dedb5cafebd","passed","","1220","","","","","","","","","","","","","","j","yesOrNo","","","","2","","","mid","3000","","97","321.3","300"
"","","","","","html-keyboard-response","259","1070218","0.0-24.0-0.1","66d04902641a3c8fb01582cb","6790928bebf0b969fc839b02","679828b35a458dedb5cafebd","passed","","","","","","","","","","","","","","","","","ballFalling","322.3","356.42114317029973","357.87","4","fallScene","false","","","","98","",""
"","","","","","html-keyboard-response","260","1073230","0.0-24.0-1.1","66d04902641a3c8fb01582cb","6790928bebf0b969fc839b02","679828b35a458dedb5cafebd","passed","","900","","","","","","","","","","","","","","j","yesOrNo","","","","4","","","lp","3000","","98","323.3","297.4070551689986"
"","","","","","html-keyboard-response","261","1074785","0.0-24.0-0.2","66d04902641a3c8fb01582cb","6790928bebf0b969fc839b02","679828b35a458dedb5cafebd","passed","","","","","","","","","","","","","","","","","ballFalling","500","453.67114317029973","210.33","5","fallScene","true","","","","99","",""
"","","","","","html-keyboard-response","262","1077795","0.0-24.0-1.2","66d04902641a3c8fb01582cb","6790928bebf0b969fc839b02","679828b35a458dedb5cafebd","passed","","800","","","","","","","","","","","","","","f","yesOrNo","","","","5","","","gt","3000","","99","453.6711431702998","210.33"
"","","","","","html-keyboard-response","263","1079451","0.0-24.0-0.3","66d04902641a3c8fb01582cb","6790928bebf0b969fc839b02","679828b35a458dedb5cafebd","passed","","","","","","","","","","","","","","","","","ballFalling","500","479.92114317029973","330.87","6","fallScene","true","","","","100","",""
"","","","","","html-keyboard-response","264","1082463","0.0-24.0-1.3","66d04902641a3c8fb01582cb","6790928bebf0b969fc839b02","679828b35a458dedb5cafebd","passed","","1104","","","","","","","","","","","","","","f","yesOrNo","","","","6","","","mid","3000","","100","499","300"
"","","","","","html-keyboard-response","265","1084468","0.0-24.0-0.4","66d04902641a3c8fb01582cb","6790928bebf0b969fc839b02","679828b35a458dedb5cafebd","passed","","","","","","","","","","","","","","","","","ballFalling","500","510.8711431702997","369.03","8","fallScene","true","","","","101","",""
"","","","","","html-keyboard-response","266","1087480","0.0-24.0-1.4","66d04902641a3c8fb01582cb","6790928bebf0b969fc839b02","679828b35a458dedb5cafebd","passed","","1005","","","","","","","","","","","","","","j","yesOrNo","","","","8","","","mid","3000","","101","501","300"
"","","","","","html-keyboard-response","267","1089484","0.0-24.0-0.5","66d04902641a3c8fb01582cb","6790928bebf0b969fc839b02","679828b35a458dedb5cafebd","passed","","","","","","","","","","","","","","","","","ballFalling","500","510.8711431702997","369.03","8","fallScene","true","","","","102","",""
"","","","","","html-keyboard-response","268","1092497","0.0-24.0-1.5","66d04902641a3c8fb01582cb","6790928bebf0b969fc839b02","679828b35a458dedb5cafebd","passed","","803","","","","","","","","","","","","","","f","yesOrNo","","","","8","","","lp","3000","","102","501","151"
"","","","","","html-keyboard-response","269","1094050","0.0-24.0-0.6","66d04902641a3c8fb01582cb","6790928bebf0b969fc839b02","679828b35a458dedb5cafebd","passed","","","","","","","","","","","","","","","","","ballFalling","322.3","379.3711431702997","245.25","1","fallScene","false","","","","103","",""
"","","","","","html-keyboard-response","270","1097063","0.0-24.0-1.6","66d04902641a3c8fb01582cb","6790928bebf0b969fc839b02","679828b35a458dedb5cafebd","passed","","1233","","","","","","","","","","","","","","f","yesOrNo","","","","1","","","mid","3000","","103","390.27114317029975","300"
"","","","","","html-keyboard-response","271","1098617","0.0-24.0-0.7","66d04902641a3c8fb01582cb","6790928bebf0b969fc839b02","679828b35a458dedb5cafebd","passed","","","","","","","","","","","","","","","","","ballFalling","604.4000000000001","575.4211431702997","266.76","12","fallScene","true","","","","104","",""
"","","","","","html-keyboard-response","272","1101630","0.0-24.0-1.7","66d04902641a3c8fb01582cb","6790928bebf0b969fc839b02","679828b35a458dedb5cafebd","passed","","1254","","","","","","","","","","","","","","f","yesOrNo","","","","12","","","lp","3000","","104","603.4000000000001","151"
"","","","","","html-keyboard-response","273","1103183","0.0-24.0-0.8","66d04902641a3c8fb01582cb","6790928bebf0b969fc839b02","679828b35a458dedb5cafebd","passed","","","","","","","","","","","","","","","","","ballFalling","604.4000000000001","575.4211431702997","266.76","12","fallScene","true","","","","105","",""
"","","","","","html-keyboard-response","274","1106197","0.0-24.0-1.8","66d04902641a3c8fb01582cb","6790928bebf0b969fc839b02","679828b35a458dedb5cafebd","passed","","1947","","","","","","","","","","","","","","j","yesOrNo","","","","12","","","mid","3000","","105","536.4288568297004","300"
"","","","","","html-keyboard-response","275","1107750","0.0-24.0-0.9","66d04902641a3c8fb01582cb","6790928bebf0b969fc839b02","679828b35a458dedb5cafebd","passed","","","","","","","","","","","","","","","","","ballFalling","322.3","379.3711431702997","245.25","1","fallScene","false","","","","106","",""
"","","","","","html-keyboard-response","276","1110771","0.0-24.0-1.9","66d04902641a3c8fb01582cb","6790928bebf0b969fc839b02","679828b35a458dedb5cafebd","passed","","894","","","","","","","","","","","","","","j","yesOrNo","","","","1","","","mid","3000","","106","390.27114317029975","300"
"","","","","","html-keyboard-response","277","1112330","0.0-24.0-0.10","66d04902641a3c8fb01582cb","6790928bebf0b969fc839b02","679828b35a458dedb5cafebd","passed","","","","","","","","","","","","","","","","","ballFalling","604.4000000000001","650.0211431702996","404.58000000000004","11","fallScene","true","","","","107","",""
"","","","","","html-keyboard-response","278","1115346","0.0-24.0-1.10","66d04902641a3c8fb01582cb","6790928bebf0b969fc839b02","679828b35a458dedb5cafebd","passed","","1308","","","","","","","","","","","","","","f","yesOrNo","","","","11","","","mid","3000","","107","605.4000000000001","300"
"","","","","","html-keyboard-response","279","1116900","0.0-24.0-0.11","66d04902641a3c8fb01582cb","6790928bebf0b969fc839b02","679828b35a458dedb5cafebd","passed","","","","","","","","","","","","","","","","","ballFalling","604.4000000000001","650.0211431702996","404.58000000000004","11","fallScene","true","","","","108","",""
"","","","","","html-keyboard-response","280","1119913","0.0-24.0-1.11","66d04902641a3c8fb01582cb","6790928bebf0b969fc839b02","679828b35a458dedb5cafebd","passed","","1014","","","","","","","","","","","","","","j","yesOrNo","","","","11","","","lp","3000","","108","605.4000000000001","372.6340973215488"
"","","","","","html-keyboard-response","281","1121566","0.0-24.0-0.12","66d04902641a3c8fb01582cb","6790928bebf0b969fc839b02","679828b35a458dedb5cafebd","passed","","","","","","","","","","","","","","","","","ballFalling","500","479.92114317029973","330.87","6","fallScene","true","","","","109","",""
"","","","","","html-keyboard-response","282","1124579","0.0-24.0-1.12","66d04902641a3c8fb01582cb","6790928bebf0b969fc839b02","679828b35a458dedb5cafebd","passed","","807","","","","","","","","","","","","","","f","yesOrNo","","","","6","","","lp","3000","","109","499","189.92909825697632"
"","","","","","html-keyboard-response","283","1126582","0.0-24.0-0.13","66d04902641a3c8fb01582cb","6790928bebf0b969fc839b02","679828b35a458dedb5cafebd","passed","","","","","","","","","","","","","","","","","ballFalling","604.4000000000001","596.8711431702998","394.5","10","fallScene","false","","","","110","",""
"","","","","","html-keyboard-response","284","1129592","0.0-24.0-1.13","66d04902641a3c8fb01582cb","6790928bebf0b969fc839b02","679828b35a458dedb5cafebd","passed","","751","","","","","","","","","","","","","","j","yesOrNo","","","","10","","","mid","3000","","110","536.4288568297004","300"
"","","","","","html-keyboard-response","285","1131149","0.0-24.0-0.14","66d04902641a3c8fb01582cb","6790928bebf0b969fc839b02","679828b35a458dedb5cafebd","passed","","","","","","","","","","","","","","","","","ballFalling","604.4000000000001","575.4211431702997","266.76","12","fallScene","false","","","","111","",""
"","","","","","html-keyboard-response","286","1134162","0.0-24.0-1.14","66d04902641a3c8fb01582cb","6790928bebf0b969fc839b02","679828b35a458dedb5cafebd","passed","","922","","","","","","","","","","","","","","f","yesOrNo","","","","12","","","lp","3000","","111","603.4000000000001","151"
"","","","","","html-keyboard-response","287","1135715","0.0-24.0-0.15","66d04902641a3c8fb01582cb","6790928bebf0b969fc839b02","679828b35a458dedb5cafebd","passed","","","","","","","","","","","","","","","","","ballFalling","500","453.67114317029973","210.33","5","fallScene","false","","","","112","",""
"","","","","","html-keyboard-response","288","1138728","0.0-24.0-1.15","66d04902641a3c8fb01582cb","6790928bebf0b969fc839b02","679828b35a458dedb5cafebd","passed","","707","","","","","","","","","","","","","","j","yesOrNo","","","","5","","","mid","3000","","112","499","300"
"","","","","","html-keyboard-response","289","1140733","0.0-24.0-0.16","66d04902641a3c8fb01582cb","6790928bebf0b969fc839b02","679828b35a458dedb5cafebd","passed","","","","","","","","","","","","","","","","","ballFalling","604.4000000000001","596.8711431702998","394.5","10","fallScene","false","","","","113","",""
"","","","","","html-keyboard-response","290","1143740","0.0-24.0-1.16","66d04902641a3c8fb01582cb","6790928bebf0b969fc839b02","679828b35a458dedb5cafebd","passed","","665","","","","","","","","","","","","","","f","yesOrNo","","","","10","","","lp","3000","","113","603.4000000000001","215.50214355555383"
"","","","","","html-keyboard-response","291","1145298","0.0-24.0-0.17","66d04902641a3c8fb01582cb","6790928bebf0b969fc839b02","679828b35a458dedb5cafebd","passed","","","","","","","","","","","","","","","","","ballFalling","322.3","296.07114317029976","371.46","3","fallScene","true","","","","114","",""
"","","","","","html-keyboard-response","292","1148311","0.0-24.0-1.17","66d04902641a3c8fb01582cb","6790928bebf0b969fc839b02","679828b35a458dedb5cafebd","passed","","1287","","","","","","","","","","","","","","j","yesOrNo","","","","3","","","lp","3000","","114","321.3","287.3327096511259"
"","","","","","html-keyboard-response","293","1149865","0.0-24.0-0.18","66d04902641a3c8fb01582cb","6790928bebf0b969fc839b02","679828b35a458dedb5cafebd","passed","","","","","","","","","","","","","","","","","ballFalling","500","453.67114317029973","210.33","5","fallScene","true","","","","115","",""
"","","","","","html-keyboard-response","294","1152878","0.0-24.0-1.18","66d04902641a3c8fb01582cb","6790928bebf0b969fc839b02","679828b35a458dedb5cafebd","passed","","663","","","","","","","","","","","","","","f","yesOrNo","","","","5","","","lp","3000","","115","499","151"
"","","","","","html-keyboard-response","295","1154364","0.0-24.0-0.19","66d04902641a3c8fb01582cb","6790928bebf0b969fc839b02","679828b35a458dedb5cafebd","passed","","","","","","","","","","","","","","","","","ballFalling","604.4000000000001","667.6211431702998","201.78","9","fallScene","false","","","","116","",""
"","","","","","html-keyboard-response","296","1157378","0.0-24.0-1.19","66d04902641a3c8fb01582cb","6790928bebf0b969fc839b02","679828b35a458dedb5cafebd","passed","","716","","","","","","","","","","","","","","f","yesOrNo","","","","9","","","lp","3000","","116","605.4000000000001","151"
"","","","","","html-keyboard-response","297","1158931","0.0-24.0-0.20","66d04902641a3c8fb01582cb","6790928bebf0b969fc839b02","679828b35a458dedb5cafebd","passed","","","","","","","","","","","","","","","","","ballFalling","322.3","296.07114317029976","371.46","3","fallScene","false","","","","117","",""
"","","","","","html-keyboard-response","298","1161944","0.0-24.0-1.20","66d04902641a3c8fb01582cb","6790928bebf0b969fc839b02","679828b35a458dedb5cafebd","passed","","655","","","","","","","","","","","","","","j","yesOrNo","","","","3","","","mid","3000","","117","321.3","300"
"","","","","","html-keyboard-response","299","1163513","0.0-24.0-0.21","66d04902641a3c8fb01582cb","6790928bebf0b969fc839b02","679828b35a458dedb5cafebd","passed","","","","","","","","","","","","","","","","","ballFalling","500","553.4711431702997","282.51","7","fallScene","true","","","","118","",""
"","","","","","html-keyboard-response","300","1166527","0.0-24.0-1.21","66d04902641a3c8fb01582cb","6790928bebf0b969fc839b02","679828b35a458dedb5cafebd","passed","","642","","","","","","","","","","","","","","j","yesOrNo","","","","7","","","mid","3000","","118","501","300"
"","","","","","html-keyboard-response","301","1168080","0.0-24.0-0.22","66d04902641a3c8fb01582cb","6790928bebf0b969fc839b02","679828b35a458dedb5cafebd","passed","","","","","","","","","","","","","","","","","ballFalling","322.3","356.42114317029973","357.87","4","fallScene","true","","","","119","",""
"","","","","","html-keyboard-response","302","1171093","0.0-24.0-1.22","66d04902641a3c8fb01582cb","6790928bebf0b969fc839b02","679828b35a458dedb5cafebd","passed","","789","","","","","","","","","","","","","","j","yesOrNo","","","","4","","","mid","3000","","119","390.27114317029975","300"
"","","","","","html-keyboard-response","303","1173108","0.0-24.0-0.23","66d04902641a3c8fb01582cb","6790928bebf0b969fc839b02","679828b35a458dedb5cafebd","passed","","","","","","","","","","","","","","","","","ballFalling","500","510.8711431702997","369.03","8","fallScene","true","","","","120","",""
"","","","","","html-keyboard-response","304","1176116","0.0-24.0-1.23","66d04902641a3c8fb01582cb","6790928bebf0b969fc839b02","679828b35a458dedb5cafebd","passed","","578","","","","","","","","","","","","","","f","yesOrNo","","","","8","","","lp","3000","","120","501","151"
"","","","","","html-keyboard-response","305","1180164","0.0-25.0","66d04902641a3c8fb01582cb","6790928bebf0b969fc839b02","679828b35a458dedb5cafebd","passed","","4045","","","","","","","","","","","","","<p><span style=""font-size:40px;"">BLOCK 6</span></p><p><span style=""font-size:25px;"">You have <b style=""color: #FF644F;""><strong>3 second(s)</strong></b> to respond to the following trials.</span><br></p><p></p> <!-- Blank line -->
                <p id=""blinking-text"" style=""font-weight; animation: blink 2s infinite;"">Press Space to continue</p>
                <style>
                    @keyframes blink {
                        50% {
                            opacity: 0;
                        }
                    }
                </style></p>"," ","","","","","","","","","","","","",""
"","","","","","html-keyboard-response","306","1181730","0.0-26.0-0.0","66d04902641a3c8fb01582cb","6790928bebf0b969fc839b02","679828b35a458dedb5cafebd","passed","","","","","","","","","","","","","","","","","ballFalling","500","453.67114317029973","210.33","5","fallScene","false","","","","121","",""
