"success","timeout","failed_images","failed_audio","failed_video","trial_type","trial_index","time_elapsed","internal_node_id","subject_id","study_id","session_id","practiceTestResult","view_history","rt","width","height","webaudio","browser","browser_version","mobile","os","fullscreen","vsync_rate","webcam","microphone","url","stimulus","response","task","ball_X","obstacle_groundTruth_x","obstacle_groundTruth_y","stimulus_idx","trial_name","flipped","choice","timeLimit","question_order","comprehensionCheck","currentTrial","obstacle_choice_x","obstacle_choice_y"
"true","false","[]","[]","[]","preload","0","157","0.0-0.0","66f23f43364a3d1b7b018f27","6790928bebf0b969fc839b02","67982756161a841bba24367d","passed","","","","","","","","","","","","","","","","","","","","","","","","","","","","","",""
"","","","","","instructions","1","4652","0.0-1.0","66f23f43364a3d1b7b018f27","6790928bebf0b969fc839b02","67982756161a841bba24367d","passed","[{""page_index"":0,""viewing_time"":4494}]","4494","","","","","","","","","","","","","","","","","","","","","","","","","","","",""
"","","","","","browser-check","2","5089","0.0-2.0","66f23f43364a3d1b7b018f27","6790928bebf0b969fc839b02","67982756161a841bba24367d","passed","","","1920","945","true","chrome","132.0.0","false","Windows 10","true","137.77","true","true","","","","","","","","","","","","","","","","",""
"","","","","","external-html","3","9493","0.0-3.0","66f23f43364a3d1b7b018f27","6790928bebf0b969fc839b02","67982756161a841bba24367d","passed","","4370","","","","","","","","","","","","consent.html","","","","","","","","","","","","","","","",""
"true","","","","","fullscreen","4","21558","0.0-4.0","66f23f43364a3d1b7b018f27","6790928bebf0b969fc839b02","67982756161a841bba24367d","passed","","11748","","","","","","","","","","","","","","","","","","","","","","","","","","","",""
"","","","","","browser-check","5","21976","0.0-5.0","66f23f43364a3d1b7b018f27","6790928bebf0b969fc839b02","67982756161a841bba24367d","passed","","","1920","1080","true","chrome","132.0.0","false","Windows 10","true","144.13","true","true","","","","","","","","","","","","","","","","",""
"","","","","","html-keyboard-response","6","25675","0.0-6.0","66f23f43364a3d1b7b018f27","6790928bebf0b969fc839b02","67982756161a841bba24367d","passed","","3698","","","","","","","","","","","","","<p><b>This experiment requires keyboard input.</b></p> 
        <p><b>To ensure your response will be recorded successfully, please press 'Space' to continue.</b></p>
        <p>If you can't proceed, you won't be able to complete this study.</p>
        <p></p> <!-- Blank line -->
        <p id=""blinking-text"" style=""font-weight; animation: blink 2s infinite;"">Press Space to continue</p>
        <style>
            @keyframes blink {
                50% {
                    opacity: 0;
                }
            }
        </style>"," ","","","","","","","","","","","","","",""
"","","","","","html-keyboard-response","7","31791","0.0-7.0","66f23f43364a3d1b7b018f27","6790928bebf0b969fc839b02","67982756161a841bba24367d","passed","","6116","","","","","","","","","","","","","<p><b>This experiment requires keyboard input.</b></p> 
        <p><b>To ensure your response will be recorded successfully, please press the 'f' key to continue.</b></p>
        <p>If you can't proceed, you won't be able to complete this study.</p>
        <p></p> <!-- Blank line -->
        <p id=""blinking-text"" style=""font-weight; animation: blink 2s infinite;"">Press f to continue</p>
        <style>
            @keyframes blink {
                50% {
                    opacity: 0;
                }
            }
        </style>","f","","","","","","","","","","","","","",""
"","","","","","html-keyboard-response","8","34628","0.0-8.0","66f23f43364a3d1b7b018f27","6790928bebf0b969fc839b02","67982756161a841bba24367d","passed","","2836","","","","","","","","","","","","","<p><b>This experiment requires keyboard input.</b></p> 
        <p><b>To ensure your response will be recorded successfully, please press the 'j' key to continue.</b></p>
        <p>If you can't proceed, you won't be able to complete this study.</p>
        <p></p> <!-- Blank line -->
        <p id=""blinking-text"" style=""font-weight; animation: blink 2s infinite;"">Press j to continue</p>
        <style>
            @keyframes blink {
                50% {
                    opacity: 0;
                }
            }
        </style>","j","","","","","","","","","","","","","",""
"","","","","","browser-check","9","35049","0.0-9.0","66f23f43364a3d1b7b018f27","6790928bebf0b969fc839b02","67982756161a841bba24367d","passed","","","1920","1080","true","chrome","132.0.0","false","Windows 10","true","143.88","true","true","","","","","","","","","","","","","","","","",""
"","","","","","survey-text","10","39521","0.0-10.0","66f23f43364a3d1b7b018f27","6790928bebf0b969fc839b02","67982756161a841bba24367d","passed","","4470","","","","","","","","","","","","","","{""prolificID"":""66f23f43364a3d1b7b018f27""}","","","","","","","","","","","","","",""
"","","","","","instructions","11","1057959","0.0-11.0-0.0-0.0","66f23f43364a3d1b7b018f27","6790928bebf0b969fc839b02","67982756161a841bba24367d","passed","[{""page_index"":0,""viewing_time"":31353},{""page_index"":1,""viewing_time"":946562},{""page_index"":2,""viewing_time"":13553},{""page_index"":3,""viewing_time"":26970}]","1018438","","","","","","","","","","","","","","","","","","","","","","","","","","","",""
"","","","","","html-keyboard-response","12","1085915","0.0-11.0-0.0-1.0","66f23f43364a3d1b7b018f27","6790928bebf0b969fc839b02","67982756161a841bba24367d","passed","","27451","","","","","","","","","","","","","<br>Remember! After a ball falls, the screen will disappear, and you'll decide if the proposed position is where the hidden triangle was. <br>You will now practice this by watching a few videos and making decisions.<p>To respond:<br style=""margin-bottom: 5px; text-indent: -20px; padding-left: 20px;"">- Press <b style=""color: #12AD2B;"">J for Yes</b>, if you think the triangle is in the correct position.<br style=""margin-top: 0; text-indent: -20px; padding-left: 20px;"">- Press <b style=""color: orange;"">F for No</b>, if you think the triangle is not in the correct position.</p><p>In this practice round, there is no time limit. Focus on getting comfortable with the task first.<br>Press either J or F to begin your practice trials.</p><img src = ""YesOrNo_instruction.png"" style=""width: 65%;""></img>","f","","","","","","","","","","","","","",""
"","","","","","html-keyboard-response","13","1087949","0.0-11.0-0.0-2.0-0.0","66f23f43364a3d1b7b018f27","6790928bebf0b969fc839b02","67982756161a841bba24367d","passed","","","","","","","","","","","","","","","","","ballFalling_prac","660","666","350","3","fallScene","false","","","","","","",""
"","","","","","html-keyboard-response","14","1092409","0.0-11.0-0.0-2.0-1.0","66f23f43364a3d1b7b018f27","6790928bebf0b969fc839b02","67982756161a841bba24367d","passed","","4457","","","","","","","","","","","","","","j","yesOrNo_prac_noTimed","","","","3","","","wrong direction","NA","","","","",""
"","","","","","html-keyboard-response","15","1093990","0.0-11.0-0.0-2.0-0.1","66f23f43364a3d1b7b018f27","6790928bebf0b969fc839b02","67982756161a841bba24367d","passed","","","","","","","","","","","","","","","","","ballFalling_prac","441","414","302","5","fallScene","true","","","","","","",""
"","","","","","html-keyboard-response","16","1098580","0.0-11.0-0.0-2.0-1.1","66f23f43364a3d1b7b018f27","6790928bebf0b969fc839b02","67982756161a841bba24367d","passed","","4589","","","","","","","","","","","","","","j","yesOrNo_prac_noTimed","","","","5","","","close gt","NA","","","","",""
"","","","","","html-keyboard-response","17","1100141","0.0-11.0-0.0-2.0-0.2","66f23f43364a3d1b7b018f27","6790928bebf0b969fc839b02","67982756161a841bba24367d","passed","","","","","","","","","","","","","","","","","ballFalling_prac","416","464","296","1","fallScene","false","","","","","","",""
"","","","","","html-keyboard-response","18","1102442","0.0-11.0-0.0-2.0-1.2","66f23f43364a3d1b7b018f27","6790928bebf0b969fc839b02","67982756161a841bba24367d","passed","","2299","","","","","","","","","","","","","","j","yesOrNo_prac_noTimed","","","","1","","","gt","NA","","","","",""
"","","","","","instructions","19","1126039","0.0-11.0-0.0-3.0","66f23f43364a3d1b7b018f27","6790928bebf0b969fc839b02","67982756161a841bba24367d","passed","[{""page_index"":0,""viewing_time"":14050},{""page_index"":1,""viewing_time"":9547}]","23597","","","","","","","","","","","","","","","","","","","","","","","","","","","",""
"","","","","","html-button-response","20","1127985","0.0-11.0-0.0-4.0","66f23f43364a3d1b7b018f27","6790928bebf0b969fc839b02","67982756161a841bba24367d","passed","","1444","","","","","","","","","","","","","<p>To make sure you understood the task, we just have a <b>brief quiz</b> here.</p><p>If you need to review the instructions, click 'Previous'.</p><p>It's important to understand the task to do the study, so you have to pass the quiz to move to the study.</p>","1","","","","","","","","","","","","","",""
"","","","","","survey-multi-choice","21","1140130","0.0-11.0-1.0-0.0","66f23f43364a3d1b7b018f27","6790928bebf0b969fc839b02","67982756161a841bba24367d","passed","","12144","","","","","","","","","","","","","","{""generalProcedure"":""Watch a video of a ball falling, some of it behind a gray screen. After each video, decide if the triangle is at the spot where the ball hit the triangle behind the screen. There is time limit for the response.""}","","","","","","","","","","[0]","","","",""
"","","","","","survey-multi-choice","22","1152761","0.0-11.0-1.0-1.0","66f23f43364a3d1b7b018f27","6790928bebf0b969fc839b02","67982756161a841bba24367d","passed","","12630","","","","","","","","","","","","","","{""checkBallHitObstacle"":""No.""}","","","","","","","","","","[0]","","","",""
"","","","","","survey-multi-choice","23","1157671","0.0-11.0-1.0-2.0","66f23f43364a3d1b7b018f27","6790928bebf0b969fc839b02","67982756161a841bba24367d","passed","","4909","","","","","","","","","","","","","","{""checkTriangleVisibility"":""No, the triangle is hidden behind the gray screen.""}","","","","","","","","","","[0]","","","",""
"","","","","","survey-multi-choice","24","1163718","0.0-11.0-1.0-3.0","66f23f43364a3d1b7b018f27","6790928bebf0b969fc839b02","67982756161a841bba24367d","passed","","6046","","","","","","","","","","","","","","{""checkTimedResponse"":""Your response will not be recorded, and the trial will move to the next one.""}","","","","","","","","","","[0]","","","",""
"","","","","","survey-multi-choice","25","1177149","0.0-11.0-1.0-4.0","66f23f43364a3d1b7b018f27","6790928bebf0b969fc839b02","67982756161a841bba24367d","passed","","13430","","","","","","","","","","","","","","{""checkTimeBlockNotice"":""At the beginning of each block.""}","","","","","","","","","","[0]","","","",""
"","","","","","survey-multi-choice","26","1185998","0.0-11.0-1.0-5.0","66f23f43364a3d1b7b018f27","6790928bebf0b969fc839b02","67982756161a841bba24367d","passed","","8849","","","","","","","","","","","","","","{""checkTimeBlockSameness"":""Yes, the time limit is the same for all trials within a block.""}","","","","","","","","","","[0]","","","",""
"","","","","","survey-multi-choice","27","1211164","0.0-11.0-1.0-6.0","66f23f43364a3d1b7b018f27","6790928bebf0b969fc839b02","67982756161a841bba24367d","passed","","25165","","","","","","","","","","","","","","{""checkTrianglePrecision"":""No. The proposed purple triangle is not in the correct position because it doesn't match the location of the white triangle exactly.""}","","","","","","","","","","[0]","","","",""
"","","","","","html-button-response","28","1213920","0.0-11.0-2.0-0.0","66f23f43364a3d1b7b018f27","6790928bebf0b969fc839b02","67982756161a841bba24367d","passed","","2756","","","","","","","","","","","","","<p>Oops! You did not pass the quiz.</p><p>You will now repeat the instructions and practice.</p>","0","","","","","","","","","","","failed","","",""
"","","","","","instructions","29","1274720","0.0-11.1-0.1-0.1","66f23f43364a3d1b7b018f27","6790928bebf0b969fc839b02","67982756161a841bba24367d","passed","[{""page_index"":0,""viewing_time"":23352},{""page_index"":1,""viewing_time"":16592},{""page_index"":2,""viewing_time"":9031},{""page_index"":3,""viewing_time"":11824}]","60800","","","","","","","","","","","","","","","","","","","","","","","","","","","",""
"","","","","","html-keyboard-response","30","1302256","0.0-11.1-0.1-1.1","66f23f43364a3d1b7b018f27","6790928bebf0b969fc839b02","67982756161a841bba24367d","passed","","27035","","","","","","","","","","","","","<br>Remember! After a ball falls, the screen will disappear, and you'll decide if the proposed position is where the hidden triangle was. <br>You will now practice this by watching a few videos and making decisions.<p>To respond:<br style=""margin-bottom: 5px; text-indent: -20px; padding-left: 20px;"">- Press <b style=""color: #12AD2B;"">J for Yes</b>, if you think the triangle is in the correct position.<br style=""margin-top: 0; text-indent: -20px; padding-left: 20px;"">- Press <b style=""color: orange;"">F for No</b>, if you think the triangle is not in the correct position.</p><p>In this practice round, there is no time limit. Focus on getting comfortable with the task first.<br>Press either J or F to begin your practice trials.</p><img src = ""YesOrNo_instruction.png"" style=""width: 65%;""></img>","f","","","","","","","","","","","","","",""
"","","","","","html-keyboard-response","31","1303831","0.0-11.1-0.1-2.1-0.3","66f23f43364a3d1b7b018f27","6790928bebf0b969fc839b02","67982756161a841bba24367d","passed","","","","","","","","","","","","","","","","","ballFalling_prac","441","414","302","5","fallScene","true","","","","","","",""
"","","","","","html-keyboard-response","32","1307644","0.0-11.1-0.1-2.1-1.3","66f23f43364a3d1b7b018f27","6790928bebf0b969fc839b02","67982756161a841bba24367d","passed","","3812","","","","","","","","","","","","","","j","yesOrNo_prac_noTimed","","","","5","","","close gt","NA","","","","",""
"","","","","","html-keyboard-response","33","1309205","0.0-11.1-0.1-2.1-0.4","66f23f43364a3d1b7b018f27","6790928bebf0b969fc839b02","67982756161a841bba24367d","passed","","","","","","","","","","","","","","","","","ballFalling_prac","416","464","296","1","fallScene","false","","","","","","",""
"","","","","","html-keyboard-response","34","1312019","0.0-11.1-0.1-2.1-1.4","66f23f43364a3d1b7b018f27","6790928bebf0b969fc839b02","67982756161a841bba24367d","passed","","2813","","","","","","","","","","","","","","j","yesOrNo_prac_noTimed","","","","1","","","gt","NA","","","","",""
"","","","","","html-keyboard-response","35","1314135","0.0-11.1-0.1-2.1-0.5","66f23f43364a3d1b7b018f27","6790928bebf0b969fc839b02","67982756161a841bba24367d","passed","","","","","","","","","","","","","","","","","ballFalling_prac","660","666","350","3","fallScene","false","","","","","","",""
"","","","","","html-keyboard-response","36","1316314","0.0-11.1-0.1-2.1-1.5","66f23f43364a3d1b7b018f27","6790928bebf0b969fc839b02","67982756161a841bba24367d","passed","","2178","","","","","","","","","","","","","","j","yesOrNo_prac_noTimed","","","","3","","","wrong direction","NA","","","","",""
"","","","","","instructions","37","1360737","0.0-11.1-0.1-3.1","66f23f43364a3d1b7b018f27","6790928bebf0b969fc839b02","67982756161a841bba24367d","passed","[{""page_index"":0,""viewing_time"":22921},{""page_index"":1,""viewing_time"":21501}]","44422","","","","","","","","","","","","","","","","","","","","","","","","","","","",""
"","","","","","html-button-response","38","1366233","0.0-11.1-0.1-4.1","66f23f43364a3d1b7b018f27","6790928bebf0b969fc839b02","67982756161a841bba24367d","passed","","4980","","","","","","","","","","","","","<p>To make sure you understood the task, we just have a <b>brief quiz</b> here.</p><p>If you need to review the instructions, click 'Previous'.</p><p>It's important to understand the task to do the study, so you have to pass the quiz to move to the study.</p>","1","","","","","","","","","","","","","",""
"","","","","","survey-multi-choice","39","1381706","0.0-11.1-1.1-0.1","66f23f43364a3d1b7b018f27","6790928bebf0b969fc839b02","67982756161a841bba24367d","passed","","15472","","","","","","","","","","","","","","{""generalProcedure"":""Watch a video of a ball falling, some of it behind a gray screen. After each video, decide if the triangle is at the spot where the ball hit the triangle behind the screen. There is time limit for the response.""}","","","","","","","","","","[0]","","","",""
"","","","","","survey-multi-choice","40","1384393","0.0-11.1-1.1-1.1","66f23f43364a3d1b7b018f27","6790928bebf0b969fc839b02","67982756161a841bba24367d","passed","","2686","","","","","","","","","","","","","","{""checkBallHitObstacle"":""Yes.""}","","","","","","","","","","[0]","","","",""
"","","","","","survey-multi-choice","41","1389167","0.0-11.1-1.1-2.1","66f23f43364a3d1b7b018f27","6790928bebf0b969fc839b02","67982756161a841bba24367d","passed","","4774","","","","","","","","","","","","","","{""checkTriangleVisibility"":""No, the triangle is hidden behind the gray screen.""}","","","","","","","","","","[0]","","","",""
"","","","","","survey-multi-choice","42","1402723","0.0-11.1-1.1-3.1","66f23f43364a3d1b7b018f27","6790928bebf0b969fc839b02","67982756161a841bba24367d","passed","","13555","","","","","","","","","","","","","","{""checkTimedResponse"":""Your response will not be recorded, and the trial will move to the next one.""}","","","","","","","","","","[0]","","","",""
"","","","","","survey-multi-choice","43","1413712","0.0-11.1-1.1-4.1","66f23f43364a3d1b7b018f27","6790928bebf0b969fc839b02","67982756161a841bba24367d","passed","","10988","","","","","","","","","","","","","","{""checkTimeBlockNotice"":""At the beginning of each block.""}","","","","","","","","","","[0]","","","",""
"","","","","","survey-multi-choice","44","1422862","0.0-11.1-1.1-5.1","66f23f43364a3d1b7b018f27","6790928bebf0b969fc839b02","67982756161a841bba24367d","passed","","9150","","","","","","","","","","","","","","{""checkTimeBlockSameness"":""Yes, the time limit is the same for all trials within a block.""}","","","","","","","","","","[0]","","","",""
"","","","","","survey-multi-choice","45","1427036","0.0-11.1-1.1-6.1","66f23f43364a3d1b7b018f27","6790928bebf0b969fc839b02","67982756161a841bba24367d","passed","","4173","","","","","","","","","","","","","","{""checkTrianglePrecision"":""No. The proposed purple triangle is not in the correct position because it doesn't match the location of the white triangle exactly.""}","","","","","","","","","","[0]","","","",""
"","","","","","instructions","46","1461004","0.0-12.0","66f23f43364a3d1b7b018f27","6790928bebf0b969fc839b02","67982756161a841bba24367d","passed","[{""page_index"":0,""viewing_time"":2184},{""page_index"":1,""viewing_time"":7499},{""page_index"":2,""viewing_time"":10576},{""page_index"":3,""viewing_time"":13708}]","33968","","","","","","","","","","","","","","","","","","","","","","","","","","","",""
"","","","","","instructions","47","1504577","0.0-13.0-0.0","66f23f43364a3d1b7b018f27","6790928bebf0b969fc839b02","67982756161a841bba24367d","passed","[{""page_index"":0,""viewing_time"":43573}]","43573","","","","","","","","","","","","","","","","","","","","","","","","","","","",""
"","","","","","html-keyboard-response","48","1508530","0.0-13.0-1.0","66f23f43364a3d1b7b018f27","6790928bebf0b969fc839b02","67982756161a841bba24367d","passed","","3952","","","","","","","","","","","","","<p><span style=""font-size:40px;"">Practice BLOCK 1</span></p><p><span style=""font-size:25px;"">You have <b style=""color: #FF644F;""><strong>3 second(s)</strong></b> to respond to the following trials.</span><br></p><p id=""blinking-text"" style=""font-weight; animation: blink 2s infinite;"">Press Space to continue</p><style>
                    @keyframes blink {
                        50% {
                            opacity: 0;
                        }
                    }
                </style>"," ","","","","","","","","","","","","","",""
"","","","","","html-keyboard-response","49","1510090","0.0-13.0-2.0-0.0","66f23f43364a3d1b7b018f27","6790928bebf0b969fc839b02","67982756161a841bba24367d","passed","","","","","","","","","","","","","","","","","ballFalling_prac","416","464","296","1","fallScene","false","","","","","","",""
"","","","","","html-keyboard-response","50","1513096","0.0-13.0-2.0-1.0","66f23f43364a3d1b7b018f27","6790928bebf0b969fc839b02","67982756161a841bba24367d","passed","","980","","","","","","","","","","","","","","j","yesOrNo_prac","","","","1","","","far gt","3000","","","","",""
"","","","","","html-keyboard-response","51","1514651","0.0-13.0-2.0-0.1","66f23f43364a3d1b7b018f27","6790928bebf0b969fc839b02","67982756161a841bba24367d","passed","","","","","","","","","","","","","","","","","ballFalling_prac","584","536","296","1","fallScene","true","","","","","","",""
"","","","","","html-keyboard-response","52","1517658","0.0-13.0-2.0-1.1","66f23f43364a3d1b7b018f27","6790928bebf0b969fc839b02","67982756161a841bba24367d","passed","","715","","","","","","","","","","","","","","j","yesOrNo_prac","","","","1","","","close gt","3000","","","","",""
"","","","","","html-keyboard-response","53","1519234","0.0-13.0-2.0-0.2","66f23f43364a3d1b7b018f27","6790928bebf0b969fc839b02","67982756161a841bba24367d","passed","","","","","","","","","","","","","","","","","ballFalling_prac","660","610","263","4","fallScene","false","","","","","","",""
"","","","","","html-keyboard-response","54","1522240","0.0-13.0-2.0-1.2","66f23f43364a3d1b7b018f27","6790928bebf0b969fc839b02","67982756161a841bba24367d","passed","","1423","","","","","","","","","","","","","","j","yesOrNo_prac","","","","4","","","gt","3000","","","","",""
"","","","","","html-keyboard-response","55","1526108","0.0-13.0-3.0","66f23f43364a3d1b7b018f27","6790928bebf0b969fc839b02","67982756161a841bba24367d","passed","","3868","","","","","","","","","","","","","<p><span style=""font-size:40px;"">Practice BLOCK 2</span></p><p><span style=""font-size:25px;"">You have <b style=""color: #FF644F;""><strong>1 second(s)</strong></b> to respond to the following trials.</span><br></p><p id=""blinking-text"" style=""font-weight; animation: blink 2s infinite;"">Press Space to continue</p><style>
                    @keyframes blink {
                        50% {
                            opacity: 0;
                        }
                    }
                </style>"," ","","","","","","","","","","","","","",""
"","","","","","html-keyboard-response","56","1528225","0.0-13.0-4.0-0.0","66f23f43364a3d1b7b018f27","6790928bebf0b969fc839b02","67982756161a841bba24367d","passed","","","","","","","","","","","","","","","","","ballFalling_prac","340","334","350","3","fallScene","true","","","","","","",""
"","","","","","html-keyboard-response","57","1529232","0.0-13.0-4.0-1.0","66f23f43364a3d1b7b018f27","6790928bebf0b969fc839b02","67982756161a841bba24367d","passed","","625","","","","","","","","","","","","","","f","yesOrNo_prac","","","","3","","","close gt","1000","","","","",""
"","","","","","html-keyboard-response","58","1530808","0.0-13.0-4.0-0.1","66f23f43364a3d1b7b018f27","6790928bebf0b969fc839b02","67982756161a841bba24367d","passed","","","","","","","","","","","","","","","","","ballFalling_prac","660","610","263","4","fallScene","false","","","","","","",""
"","","","","","html-keyboard-response","59","1531815","0.0-13.0-4.0-1.1","66f23f43364a3d1b7b018f27","6790928bebf0b969fc839b02","67982756161a841bba24367d","passed","","321","","","","","","","","","","","","","","j","yesOrNo_prac","","","","4","","","far gt","1000","","","","",""
"","","","","","html-keyboard-response","60","1533370","0.0-13.0-4.0-0.2","66f23f43364a3d1b7b018f27","6790928bebf0b969fc839b02","67982756161a841bba24367d","passed","","","","","","","","","","","","","","","","","ballFalling_prac","441","500","317","6","fallScene","true","","","","","","",""
"","","","","","html-keyboard-response","61","1534377","0.0-13.0-4.0-1.2","66f23f43364a3d1b7b018f27","6790928bebf0b969fc839b02","67982756161a841bba24367d","passed","","299","","","","","","","","","","","","","","j","yesOrNo_prac","","","","6","","","gt","1000","","","","",""
"","","","","","instructions","62","1544711","0.0-13.0-5.0","66f23f43364a3d1b7b018f27","6790928bebf0b969fc839b02","67982756161a841bba24367d","passed","[{""page_index"":0,""viewing_time"":10334}]","10334","","","","","","","","","","","","","","","","","","","","","","","","","","","",""
"","","","","","html-keyboard-response","63","1546953","0.0-13.0-6.0","66f23f43364a3d1b7b018f27","6790928bebf0b969fc839b02","67982756161a841bba24367d","passed","","2241","","","","","","","","","","","","","<p><span style=""font-size:40px;"">Practice Test BLOCK 1</span></p><p><span style=""font-size:25px;"">You have <b style=""color: #FF644F;""><strong>1 second(s)</strong></b> to respond to the following trials.</span><br></p><p id=""blinking-text"" style=""font-weight; animation: blink 2s infinite;"">Press Space to continue</p><style>
                    @keyframes blink {
                        50% {
                            opacity: 0;
                        }
                    }
                </style>"," ","","","","","","","","","","","","","",""
"","","","","","html-keyboard-response","64","1548513","0.0-13.0-7.0-0.0","66f23f43364a3d1b7b018f27","6790928bebf0b969fc839b02","67982756161a841bba24367d","passed","","","","","","","","","","","","","","","","","ballFalling_prac","441","500","317","6","fallScene","true","","","","","","",""
"","","","","","html-keyboard-response","65","1549520","0.0-13.0-7.0-1.0","66f23f43364a3d1b7b018f27","6790928bebf0b969fc839b02","67982756161a841bba24367d","passed","","258","","","","","","","","","","","","","","j","yesOrNo_prac","","","","6","","","close gt","1000","","","","",""
"","","","","","html-keyboard-response","66","1551096","0.0-13.0-7.0-0.1","66f23f43364a3d1b7b018f27","6790928bebf0b969fc839b02","67982756161a841bba24367d","passed","","","","","","","","","","","","","","","","","ballFalling_prac","559","586","302","5","fallScene","false","","","","","","",""
"","","","","","html-keyboard-response","67","1552102","0.0-13.0-7.0-1.1","66f23f43364a3d1b7b018f27","6790928bebf0b969fc839b02","67982756161a841bba24367d","passed","","303","","","","","","","","","","","","","","j","yesOrNo_prac","","","","5","","","gt","1000","","","","",""
"","","","","","html-keyboard-response","68","1553679","0.0-13.0-7.0-0.2","66f23f43364a3d1b7b018f27","6790928bebf0b969fc839b02","67982756161a841bba24367d","passed","","","","","","","","","","","","","","","","","ballFalling_prac","340","390","263","4","fallScene","true","","","","","","",""
"","","","","","html-keyboard-response","69","1554685","0.0-13.0-7.0-1.2","66f23f43364a3d1b7b018f27","6790928bebf0b969fc839b02","67982756161a841bba24367d","passed","","561","","","","","","","","","","","","","","j","yesOrNo_prac","","","","4","","","far gt","1000","","","","",""
"","","","","","html-keyboard-response","70","1557257","0.0-13.0-8.0","66f23f43364a3d1b7b018f27","6790928bebf0b969fc839b02","67982756161a841bba24367d","passed","","2571","","","","","","","","","","","","","<p><span style=""font-size:40px;"">Practice Test BLOCK 2</span></p><p><span style=""font-size:25px;"">You have <b style=""color: #FF644F;""><strong>3 second(s)</strong></b> to respond to the following trials.</span><br></p><p id=""blinking-text"" style=""font-weight; animation: blink 2s infinite;"">Press Space to continue</p><style>
                    @keyframes blink {
                        50% {
                            opacity: 0;
                        }
                    }
                </style>"," ","","","","","","","","","","","","","",""
"","","","","","html-keyboard-response","71","1558837","0.0-13.0-9.0-0.0","66f23f43364a3d1b7b018f27","6790928bebf0b969fc839b02","67982756161a841bba24367d","passed","","","","","","","","","","","","","","","","","ballFalling_prac","559","586","302","5","fallScene","false","","","","","","",""
"","","","","","html-keyboard-response","72","1561842","0.0-13.0-9.0-1.0","66f23f43364a3d1b7b018f27","6790928bebf0b969fc839b02","67982756161a841bba24367d","passed","","733","","","","","","","","","","","","","","f","yesOrNo_prac","","","","5","","","far gt","3000","","","","",""
"","","","","","html-keyboard-response","73","1563420","0.0-13.0-9.0-0.1","66f23f43364a3d1b7b018f27","6790928bebf0b969fc839b02","67982756161a841bba24367d","passed","","","","","","","","","","","","","","","","","ballFalling_prac","340","390","263","4","fallScene","true","","","","","","",""
"","","","","","html-keyboard-response","74","1566426","0.0-13.0-9.0-1.1","66f23f43364a3d1b7b018f27","6790928bebf0b969fc839b02","67982756161a841bba24367d","passed","","950","","","","","","","","","","","","","","j","yesOrNo_prac","","","","4","","","close gt","3000","","","","",""
"","","","","","html-keyboard-response","75","1568002","0.0-13.0-9.0-0.2","66f23f43364a3d1b7b018f27","6790928bebf0b969fc839b02","67982756161a841bba24367d","passed","","","","","","","","","","","","","","","","","ballFalling_prac","416","365","249","2","fallScene","false","","","","","","",""
"","","","","","html-keyboard-response","76","1571009","0.0-13.0-9.0-1.2","66f23f43364a3d1b7b018f27","6790928bebf0b969fc839b02","67982756161a841bba24367d","passed","","501","","","","","","","","","","","","","","j","yesOrNo_prac","","","","2","","","gt","3000","","","","",""
"","","","","","instructions","77","1692904","0.0-14.0","66f23f43364a3d1b7b018f27","6790928bebf0b969fc839b02","67982756161a841bba24367d","passed","[{""page_index"":0,""viewing_time"":121894}]","121894","","","","","","","","","","","","","","","","","","","","","","","","","","","",""
"","","","","","html-keyboard-response","78","1696142","0.0-15.0","66f23f43364a3d1b7b018f27","6790928bebf0b969fc839b02","67982756161a841bba24367d","passed","","3238","","","","","","","","","","","","","<p><span style=""font-size:40px;"">BLOCK 1</span></p><p><span style=""font-size:25px;"">You have <b style=""color: #FF644F;""><strong>3 second(s)</strong></b> to respond to the following trials.</span><br></p><p></p> <!-- Blank line -->
                <p id=""blinking-text"" style=""font-weight; animation: blink 2s infinite;"">Press Space to continue</p>
                <style>
                    @keyframes blink {
                        50% {
                            opacity: 0;
                        }
                    }
                </style></p>"," ","","","","","","","","","","","","","",""
"","","","","","html-keyboard-response","79","1697719","0.0-16.0-0.0","66f23f43364a3d1b7b018f27","6790928bebf0b969fc839b02","67982756161a841bba24367d","passed","","","","","","","","","","","","","","","","","ballFalling","500","553.4711431702997","282.51","7","fallScene","true","","","","","1","",""
"","","","","","html-keyboard-response","80","1700726","0.0-16.0-1.0","66f23f43364a3d1b7b018f27","6790928bebf0b969fc839b02","67982756161a841bba24367d","passed","","534","","","","","","","","","","","","","","j","yesOrNo","","","","7","","","mid","3000","","","1","501","300"
"","","","","","html-keyboard-response","81","1702282","0.0-16.0-0.1","66f23f43364a3d1b7b018f27","6790928bebf0b969fc839b02","67982756161a841bba24367d","passed","","","","","","","","","","","","","","","","","ballFalling","322.3","379.3711431702997","245.25","1","fallScene","true","","","","","2","",""
"","","","","","html-keyboard-response","82","1705288","0.0-16.0-1.1","66f23f43364a3d1b7b018f27","6790928bebf0b969fc839b02","67982756161a841bba24367d","passed","","1072","","","","","","","","","","","","","","j","yesOrNo","","","","1","","","lp","3000","","","2","323.3","217.74551669457017"
"","","","","","html-keyboard-response","83","1707295","0.0-16.0-0.2","66f23f43364a3d1b7b018f27","6790928bebf0b969fc839b02","67982756161a841bba24367d","passed","","","","","","","","","","","","","","","","","ballFalling","500","510.8711431702997","369.03","8","fallScene","true","","","","","3","",""
"","","","","","html-keyboard-response","84","1710301","0.0-16.0-1.2","66f23f43364a3d1b7b018f27","6790928bebf0b969fc839b02","67982756161a841bba24367d","passed","","null","","","","","","","","","","","","","","null","yesOrNo","","","","8","","","lp","3000","","","3","501","151"
"","","","","","html-keyboard-response","85","1711856","0.0-16.0-0.3","66f23f43364a3d1b7b018f27","6790928bebf0b969fc839b02","67982756161a841bba24367d","passed","","","","","","","","","","","","","","","","","ballFalling","604.4000000000001","650.0211431702996","404.58000000000004","11","fallScene","true","","","","","4","",""
"","","","","","html-keyboard-response","86","1714863","0.0-16.0-1.3","66f23f43364a3d1b7b018f27","6790928bebf0b969fc839b02","67982756161a841bba24367d","passed","","348","","","","","","","","","","","","","","f","yesOrNo","","","","11","","","gt","3000","","","4","650.0211431702996","404.58"
"","","","","","html-keyboard-response","87","1716869","0.0-16.0-0.4","66f23f43364a3d1b7b018f27","6790928bebf0b969fc839b02","67982756161a841bba24367d","passed","","","","","","","","","","","","","","","","","ballFalling","500","510.8711431702997","369.03","8","fallScene","true","","","","","5","",""
"","","","","","html-keyboard-response","88","1719876","0.0-16.0-1.4","66f23f43364a3d1b7b018f27","6790928bebf0b969fc839b02","67982756161a841bba24367d","passed","","393","","","","","","","","","","","","","","j","yesOrNo","","","","8","","","gt","3000","","","5","510.8711431702997","369.03"
"","","","","","html-keyboard-response","89","1721431","0.0-16.0-0.5","66f23f43364a3d1b7b018f27","6790928bebf0b969fc839b02","67982756161a841bba24367d","passed","","","","","","","","","","","","","","","","","ballFalling","604.4000000000001","575.4211431702997","266.76","12","fallScene","false","","","","","6","",""
"","","","","","html-keyboard-response","90","1724434","0.0-16.0-1.5","66f23f43364a3d1b7b018f27","6790928bebf0b969fc839b02","67982756161a841bba24367d","passed","","1051","","","","","","","","","","","","","","j","yesOrNo","","","","12","","","gt","3000","","","6","575.4211431702997","266.76"
"","","","","","html-keyboard-response","91","1725993","0.0-16.0-0.6","66f23f43364a3d1b7b018f27","6790928bebf0b969fc839b02","67982756161a841bba24367d","passed","","","","","","","","","","","","","","","","","ballFalling","604.4000000000001","650.0211431702996","404.58000000000004","11","fallScene","false","","","","","7","",""
"","","","","","html-keyboard-response","92","1728999","0.0-16.0-1.6","66f23f43364a3d1b7b018f27","6790928bebf0b969fc839b02","67982756161a841bba24367d","passed","","267","","","","","","","","","","","","","","f","yesOrNo","","","","11","","","mid","3000","","","7","605.4000000000001","300"
"","","","","","html-keyboard-response","93","1731005","0.0-16.0-0.7","66f23f43364a3d1b7b018f27","6790928bebf0b969fc839b02","67982756161a841bba24367d","passed","","","","","","","","","","","","","","","","","ballFalling","604.4000000000001","596.8711431702998","394.5","10","fallScene","true","","","","","8","",""
"","","","","","html-keyboard-response","94","1734009","0.0-16.0-1.7","66f23f43364a3d1b7b018f27","6790928bebf0b969fc839b02","67982756161a841bba24367d","passed","","348","","","","","","","","","","","","","","j","yesOrNo","","","","10","","","lp","3000","","","8","603.4000000000001","215.50214355555383"
"","","","","","html-keyboard-response","95","1735567","0.0-16.0-0.8","66f23f43364a3d1b7b018f27","6790928bebf0b969fc839b02","67982756161a841bba24367d","passed","","","","","","","","","","","","","","","","","ballFalling","500","453.67114317029973","210.33","5","fallScene","true","","","","","9","",""
"","","","","","html-keyboard-response","96","1738573","0.0-16.0-1.8","66f23f43364a3d1b7b018f27","6790928bebf0b969fc839b02","67982756161a841bba24367d","passed","","null","","","","","","","","","","","","","","null","yesOrNo","","","","5","","","mid","3000","","","9","499","300"
"","","","","","html-keyboard-response","97","1740066","0.0-16.0-0.9","66f23f43364a3d1b7b018f27","6790928bebf0b969fc839b02","67982756161a841bba24367d","passed","","","","","","","","","","","","","","","","","ballFalling","604.4000000000001","667.6211431702998","201.78","9","fallScene","false","","","","","10","",""
"","","","","","html-keyboard-response","98","1743072","0.0-16.0-1.9","66f23f43364a3d1b7b018f27","6790928bebf0b969fc839b02","67982756161a841bba24367d","passed","","474","","","","","","","","","","","","","","f","yesOrNo","","","","9","","","mid","3000","","","10","605.4000000000001","300"
"","","","","","html-keyboard-response","99","1744628","0.0-16.0-0.10","66f23f43364a3d1b7b018f27","6790928bebf0b969fc839b02","67982756161a841bba24367d","passed","","","","","","","","","","","","","","","","","ballFalling","322.3","356.42114317029973","357.87","4","fallScene","false","","","","","11","",""
"","","","","","html-keyboard-response","100","1747634","0.0-16.0-1.10","66f23f43364a3d1b7b018f27","6790928bebf0b969fc839b02","67982756161a841bba24367d","passed","","731","","","","","","","","","","","","","","f","yesOrNo","","","","4","","","mid","3000","","","11","390.27114317029975","300"
"","","","","","html-keyboard-response","101","1749189","0.0-16.0-0.11","66f23f43364a3d1b7b018f27","6790928bebf0b969fc839b02","67982756161a841bba24367d","passed","","","","","","","","","","","","","","","","","ballFalling","500","453.67114317029973","210.33","5","fallScene","false","","","","","12","",""
"","","","","","html-keyboard-response","102","1752196","0.0-16.0-1.11","66f23f43364a3d1b7b018f27","6790928bebf0b969fc839b02","67982756161a841bba24367d","passed","","376","","","","","","","","","","","","","","j","yesOrNo","","","","5","","","gt","3000","","","12","453.6711431702998","210.33"
"","","","","","html-keyboard-response","103","1753688","0.0-16.0-0.12","66f23f43364a3d1b7b018f27","6790928bebf0b969fc839b02","67982756161a841bba24367d","passed","","","","","","","","","","","","","","","","","ballFalling","604.4000000000001","667.6211431702998","201.78","9","fallScene","false","","","","","13","",""
"","","","","","html-keyboard-response","104","1756695","0.0-16.0-1.12","66f23f43364a3d1b7b018f27","6790928bebf0b969fc839b02","67982756161a841bba24367d","passed","","1304","","","","","","","","","","","","","","f","yesOrNo","","","","9","","","lp","3000","","","13","605.4000000000001","151"
"","","","","","html-keyboard-response","105","1758271","0.0-16.0-0.13","66f23f43364a3d1b7b018f27","6790928bebf0b969fc839b02","67982756161a841bba24367d","passed","","","","","","","","","","","","","","","","","ballFalling","500","553.4711431702997","282.51","7","fallScene","true","","","","","14","",""
"","","","","","html-keyboard-response","106","1761273","0.0-16.0-1.13","66f23f43364a3d1b7b018f27","6790928bebf0b969fc839b02","67982756161a841bba24367d","passed","","312","","","","","","","","","","","","","","j","yesOrNo","","","","7","","","mid","3000","","","14","501","300"
"","","","","","html-keyboard-response","107","1762937","0.0-16.0-0.14","66f23f43364a3d1b7b018f27","6790928bebf0b969fc839b02","67982756161a841bba24367d","passed","","","","","","","","","","","","","","","","","ballFalling","500","479.92114317029973","330.87","6","fallScene","true","","","","","15","",""
"","","","","","html-keyboard-response","108","1765942","0.0-16.0-1.14","66f23f43364a3d1b7b018f27","6790928bebf0b969fc839b02","67982756161a841bba24367d","passed","","599","","","","","","","","","","","","","","f","yesOrNo","","","","6","","","gt","3000","","","15","479.9211431702998","330.87"
"","","","","","html-keyboard-response","109","1767498","0.0-16.0-0.15","66f23f43364a3d1b7b018f27","6790928bebf0b969fc839b02","67982756161a841bba24367d","passed","","","","","","","","","","","","","","","","","ballFalling","322.3","379.3711431702997","245.25","1","fallScene","true","","","","","16","",""
"","","","","","html-keyboard-response","110","1770505","0.0-16.0-1.15","66f23f43364a3d1b7b018f27","6790928bebf0b969fc839b02","67982756161a841bba24367d","passed","","513","","","","","","","","","","","","","","f","yesOrNo","","","","1","","","mid","3000","","","16","390.27114317029975","300"
"","","","","","html-keyboard-response","111","1772164","0.0-16.0-0.16","66f23f43364a3d1b7b018f27","6790928bebf0b969fc839b02","67982756161a841bba24367d","passed","","","","","","","","","","","","","","","","","ballFalling","500","479.92114317029973","330.87","6","fallScene","false","","","","","17","",""
"","","","","","html-keyboard-response","112","1775170","0.0-16.0-1.16","66f23f43364a3d1b7b018f27","6790928bebf0b969fc839b02","67982756161a841bba24367d","passed","","971","","","","","","","","","","","","","","j","yesOrNo","","","","6","","","mid","3000","","","17","499","300"
"","","","","","html-keyboard-response","113","1776830","0.0-16.0-0.17","66f23f43364a3d1b7b018f27","6790928bebf0b969fc839b02","67982756161a841bba24367d","passed","","","","","","","","","","","","","","","","","ballFalling","500","479.92114317029973","330.87","6","fallScene","false","","","","","18","",""
"","","","","","html-keyboard-response","114","1779836","0.0-16.0-1.17","66f23f43364a3d1b7b018f27","6790928bebf0b969fc839b02","67982756161a841bba24367d","passed","","1163","","","","","","","","","","","","","","j","yesOrNo","","","","6","","","lp","3000","","","18","499","189.92909825697632"
"","","","","","html-keyboard-response","115","1781412","0.0-16.0-0.18","66f23f43364a3d1b7b018f27","6790928bebf0b969fc839b02","67982756161a841bba24367d","passed","","","","","","","","","","","","","","","","","ballFalling","500","553.4711431702997","282.51","7","fallScene","false","","","","","19","",""
"","","","","","html-keyboard-response","116","1784415","0.0-16.0-1.18","66f23f43364a3d1b7b018f27","6790928bebf0b969fc839b02","67982756161a841bba24367d","passed","","1924","","","","","","","","","","","","","","f","yesOrNo","","","","7","","","lp","3000","","","19","501","227.2843295913261"
"","","","","","html-keyboard-response","117","1785974","0.0-16.0-0.19","66f23f43364a3d1b7b018f27","6790928bebf0b969fc839b02","67982756161a841bba24367d","passed","","","","","","","","","","","","","","","","","ballFalling","322.3","356.42114317029973","357.87","4","fallScene","false","","","","","20","",""
"","","","","","html-keyboard-response","118","1788977","0.0-16.0-1.19","66f23f43364a3d1b7b018f27","6790928bebf0b969fc839b02","67982756161a841bba24367d","passed","","null","","","","","","","","","","","","","","null","yesOrNo","","","","4","","","mid","3000","","","20","390.27114317029975","300"
"","","","","","html-keyboard-response","119","1790556","0.0-16.0-0.20","66f23f43364a3d1b7b018f27","6790928bebf0b969fc839b02","67982756161a841bba24367d","passed","","","","","","","","","","","","","","","","","ballFalling","500","553.4711431702997","282.51","7","fallScene","false","","","","","21","",""
"","","","","","html-keyboard-response","120","1793563","0.0-16.0-1.20","66f23f43364a3d1b7b018f27","6790928bebf0b969fc839b02","67982756161a841bba24367d","passed","","480","","","","","","","","","","","","","","f","yesOrNo","","","","7","","","lp","3000","","","21","501","227.2843295913261"
"","","","","","html-keyboard-response","121","1795118","0.0-16.0-0.21","66f23f43364a3d1b7b018f27","6790928bebf0b969fc839b02","67982756161a841bba24367d","passed","","","","","","","","","","","","","","","","","ballFalling","322.3","296.07114317029976","371.46","3","fallScene","true","","","","","22","",""
"","","","","","html-keyboard-response","122","1798124","0.0-16.0-1.21","66f23f43364a3d1b7b018f27","6790928bebf0b969fc839b02","67982756161a841bba24367d","passed","","465","","","","","","","","","","","","","","f","yesOrNo","","","","3","","","mid","3000","","","22","321.3","300"
"","","","","","html-keyboard-response","123","1800131","0.0-16.0-0.22","66f23f43364a3d1b7b018f27","6790928bebf0b969fc839b02","67982756161a841bba24367d","passed","","","","","","","","","","","","","","","","","ballFalling","604.4000000000001","596.8711431702998","394.5","10","fallScene","false","","","","","23","",""
"","","","","","html-keyboard-response","124","1803137","0.0-16.0-1.22","66f23f43364a3d1b7b018f27","6790928bebf0b969fc839b02","67982756161a841bba24367d","passed","","965","","","","","","","","","","","","","","j","yesOrNo","","","","10","","","mid","3000","","","23","536.4288568297004","300"
"","","","","","html-keyboard-response","125","1805144","0.0-16.0-0.23","66f23f43364a3d1b7b018f27","6790928bebf0b969fc839b02","67982756161a841bba24367d","passed","","","","","","","","","","","","","","","","","ballFalling","604.4000000000001","596.8711431702998","394.5","10","fallScene","true","","","","","24","",""
"","","","","","html-keyboard-response","126","1808150","0.0-16.0-1.23","66f23f43364a3d1b7b018f27","6790928bebf0b969fc839b02","67982756161a841bba24367d","passed","","1980","","","","","","","","","","","","","","j","yesOrNo","","","","10","","","gt","3000","","","24","596.8711431702998","394.5"
"","","","","","html-keyboard-response","127","1810120","0.0-17.0","66f23f43364a3d1b7b018f27","6790928bebf0b969fc839b02","67982756161a841bba24367d","passed","","1969","","","","","","","","","","","","","<p><span style=""font-size:40px;"">BLOCK 2</span></p><p><span style=""font-size:25px;"">You have <b style=""color: #FF644F;""><strong>1 second(s)</strong></b> to respond to the following trials.</span><br></p><p></p> <!-- Blank line -->
                <p id=""blinking-text"" style=""font-weight; animation: blink 2s infinite;"">Press Space to continue</p>
                <style>
                    @keyframes blink {
                        50% {
                            opacity: 0;
                        }
                    }
                </style></p>"," ","","","","","","","","","","","","","",""
"","","","","","html-keyboard-response","128","1811780","0.0-18.0-0.0","66f23f43364a3d1b7b018f27","6790928bebf0b969fc839b02","67982756161a841bba24367d","passed","","","","","","","","","","","","","","","","","ballFalling","500","479.92114317029973","330.87","6","fallScene","false","","","","","25","",""
"","","","","","html-keyboard-response","129","1812782","0.0-18.0-1.0","66f23f43364a3d1b7b018f27","6790928bebf0b969fc839b02","67982756161a841bba24367d","passed","","503","","","","","","","","","","","","","","j","yesOrNo","","","","6","","","gt","1000","","","25","479.9211431702998","330.87"
"","","","","","html-keyboard-response","130","1814343","0.0-18.0-0.1","66f23f43364a3d1b7b018f27","6790928bebf0b969fc839b02","67982756161a841bba24367d","passed","","","","","","","","","","","","","","","","","ballFalling","500","453.67114317029973","210.33","5","fallScene","true","","","","","26","",""
"","","","","","html-keyboard-response","131","1815346","0.0-18.0-1.1","66f23f43364a3d1b7b018f27","6790928bebf0b969fc839b02","67982756161a841bba24367d","passed","","800","","","","","","","","","","","","","","f","yesOrNo","","","","5","","","gt","1000","","","26","453.6711431702998","210.33"
"","","","","","html-keyboard-response","132","1816904","0.0-18.0-0.2","66f23f43364a3d1b7b018f27","6790928bebf0b969fc839b02","67982756161a841bba24367d","passed","","","","","","","","","","","","","","","","","ballFalling","604.4000000000001","650.0211431702996","404.58000000000004","11","fallScene","false","","","","","27","",""
"","","","","","html-keyboard-response","133","1817905","0.0-18.0-1.2","66f23f43364a3d1b7b018f27","6790928bebf0b969fc839b02","67982756161a841bba24367d","passed","","498","","","","","","","","","","","","","","j","yesOrNo","","","","11","","","lp","1000","","","27","605.4000000000001","372.6340973215488"
"","","","","","html-keyboard-response","134","1819565","0.0-18.0-0.3","66f23f43364a3d1b7b018f27","6790928bebf0b969fc839b02","67982756161a841bba24367d","passed","","","","","","","","","","","","","","","","","ballFalling","500","479.92114317029973","330.87","6","fallScene","false","","","","","28","",""
"","","","","","html-keyboard-response","135","1820567","0.0-18.0-1.3","66f23f43364a3d1b7b018f27","6790928bebf0b969fc839b02","67982756161a841bba24367d","passed","","null","","","","","","","","","","","","","","null","yesOrNo","","","","6","","","lp","1000","","","28","499","189.92909825697632"
"","","","","","html-keyboard-response","136","1822064","0.0-18.0-0.4","66f23f43364a3d1b7b018f27","6790928bebf0b969fc839b02","67982756161a841bba24367d","passed","","","","","","","","","","","","","","","","","ballFalling","604.4000000000001","667.6211431702998","201.78","9","fallScene","false","","","","","29","",""
"","","","","","html-keyboard-response","137","1823071","0.0-18.0-1.4","66f23f43364a3d1b7b018f27","6790928bebf0b969fc839b02","67982756161a841bba24367d","passed","","603","","","","","","","","","","","","","","j","yesOrNo","","","","9","","","mid","1000","","","29","605.4000000000001","300"
"","","","","","html-keyboard-response","138","1824626","0.0-18.0-0.5","66f23f43364a3d1b7b018f27","6790928bebf0b969fc839b02","67982756161a841bba24367d","passed","","","","","","","","","","","","","","","","","ballFalling","322.3","379.3711431702997","245.25","1","fallScene","true","","","","","30","",""
"","","","","","html-keyboard-response","139","1825628","0.0-18.0-1.5","66f23f43364a3d1b7b018f27","6790928bebf0b969fc839b02","67982756161a841bba24367d","passed","","615","","","","","","","","","","","","","","j","yesOrNo","","","","1","","","lp","1000","","","30","323.3","217.74551669457017"
"","","","","","html-keyboard-response","140","1827188","0.0-18.0-0.6","66f23f43364a3d1b7b018f27","6790928bebf0b969fc839b02","67982756161a841bba24367d","passed","","","","","","","","","","","","","","","","","ballFalling","322.3","379.3711431702997","245.25","1","fallScene","false","","","","","31","",""
"","","","","","html-keyboard-response","141","1828191","0.0-18.0-1.6","66f23f43364a3d1b7b018f27","6790928bebf0b969fc839b02","67982756161a841bba24367d","passed","","356","","","","","","","","","","","","","","f","yesOrNo","","","","1","","","lp","1000","","","31","323.3","217.74551669457017"
"","","","","","html-keyboard-response","142","1829750","0.0-18.0-0.7","66f23f43364a3d1b7b018f27","6790928bebf0b969fc839b02","67982756161a841bba24367d","passed","","","","","","","","","","","","","","","","","ballFalling","322.3","356.42114317029973","357.87","4","fallScene","false","","","","","32","",""
"","","","","","html-keyboard-response","143","1830757","0.0-18.0-1.7","66f23f43364a3d1b7b018f27","6790928bebf0b969fc839b02","67982756161a841bba24367d","passed","","null","","","","","","","","","","","","","","null","yesOrNo","","","","4","","","lp","1000","","","32","323.3","297.4070551689986"
"","","","","","html-keyboard-response","144","1832763","0.0-18.0-0.8","66f23f43364a3d1b7b018f27","6790928bebf0b969fc839b02","67982756161a841bba24367d","passed","","","","","","","","","","","","","","","","","ballFalling","500","510.8711431702997","369.03","8","fallScene","true","","","","","33","",""
"","","","","","html-keyboard-response","145","1833764","0.0-18.0-1.8","66f23f43364a3d1b7b018f27","6790928bebf0b969fc839b02","67982756161a841bba24367d","passed","","271","","","","","","","","","","","","","","j","yesOrNo","","","","8","","","gt","1000","","","33","510.8711431702997","369.03"
"","","","","","html-keyboard-response","146","1835430","0.0-18.0-0.9","66f23f43364a3d1b7b018f27","6790928bebf0b969fc839b02","67982756161a841bba24367d","passed","","","","","","","","","","","","","","","","","ballFalling","500","479.92114317029973","330.87","6","fallScene","false","","","","","34","",""
"","","","","","html-keyboard-response","147","1836435","0.0-18.0-1.9","66f23f43364a3d1b7b018f27","6790928bebf0b969fc839b02","67982756161a841bba24367d","passed","","364","","","","","","","","","","","","","","j","yesOrNo","","","","6","","","gt","1000","","","34","479.9211431702998","330.87"
"","","","","","html-keyboard-response","148","1837992","0.0-18.0-0.10","66f23f43364a3d1b7b018f27","6790928bebf0b969fc839b02","67982756161a841bba24367d","passed","","","","","","","","","","","","","","","","","ballFalling","500","453.67114317029973","210.33","5","fallScene","true","","","","","35","",""
"","","","","","html-keyboard-response","149","1838998","0.0-18.0-1.10","66f23f43364a3d1b7b018f27","6790928bebf0b969fc839b02","67982756161a841bba24367d","passed","","500","","","","","","","","","","","","","","j","yesOrNo","","","","5","","","mid","1000","","","35","499","300"
"","","","","","html-keyboard-response","150","1840790","0.0-18.0-0.11","66f23f43364a3d1b7b018f27","6790928bebf0b969fc839b02","67982756161a841bba24367d","passed","","","","","","","","","","","","","","","","","ballFalling","322.3","308.07114317029976","253.89","2","fallScene","true","","","","","36","",""
"","","","","","html-keyboard-response","151","1841796","0.0-18.0-1.11","66f23f43364a3d1b7b018f27","6790928bebf0b969fc839b02","67982756161a841bba24367d","passed","","670","","","","","","","","","","","","","","j","yesOrNo","","","","2","","","lp","1000","","","36","321.3","151"
"","","","","","html-keyboard-response","152","1843289","0.0-18.0-0.12","66f23f43364a3d1b7b018f27","6790928bebf0b969fc839b02","67982756161a841bba24367d","passed","","","","","","","","","","","","","","","","","ballFalling","604.4000000000001","667.6211431702998","201.78","9","fallScene","false","","","","","37","",""
"","","","","","html-keyboard-response","153","1844296","0.0-18.0-1.12","66f23f43364a3d1b7b018f27","6790928bebf0b969fc839b02","67982756161a841bba24367d","passed","","540","","","","","","","","","","","","","","j","yesOrNo","","","","9","","","gt","1000","","","37","667.6211431702998","201.78"
"","","","","","html-keyboard-response","154","1845851","0.0-18.0-0.13","66f23f43364a3d1b7b018f27","6790928bebf0b969fc839b02","67982756161a841bba24367d","passed","","","","","","","","","","","","","","","","","ballFalling","604.4000000000001","575.4211431702997","266.76","12","fallScene","true","","","","","38","",""
"","","","","","html-keyboard-response","155","1846858","0.0-18.0-1.13","66f23f43364a3d1b7b018f27","6790928bebf0b969fc839b02","67982756161a841bba24367d","passed","","756","","","","","","","","","","","","","","f","yesOrNo","","","","12","","","mid","1000","","","38","536.4288568297004","300"
"","","","","","html-keyboard-response","156","1848413","0.0-18.0-0.14","66f23f43364a3d1b7b018f27","6790928bebf0b969fc839b02","67982756161a841bba24367d","passed","","","","","","","","","","","","","","","","","ballFalling","500","453.67114317029973","210.33","5","fallScene","true","","","","","39","",""
"","","","","","html-keyboard-response","157","1849420","0.0-18.0-1.14","66f23f43364a3d1b7b018f27","6790928bebf0b969fc839b02","67982756161a841bba24367d","passed","","895","","","","","","","","","","","","","","j","yesOrNo","","","","5","","","gt","1000","","","39","453.6711431702998","210.33"
"","","","","","html-keyboard-response","158","1851427","0.0-18.0-0.15","66f23f43364a3d1b7b018f27","6790928bebf0b969fc839b02","67982756161a841bba24367d","passed","","","","","","","","","","","","","","","","","ballFalling","500","510.8711431702997","369.03","8","fallScene","true","","","","","40","",""
"","","","","","html-keyboard-response","159","1852433","0.0-18.0-1.15","66f23f43364a3d1b7b018f27","6790928bebf0b969fc839b02","67982756161a841bba24367d","passed","","868","","","","","","","","","","","","","","j","yesOrNo","","","","8","","","mid","1000","","","40","501","300"
"","","","","","html-keyboard-response","160","1854093","0.0-18.0-0.16","66f23f43364a3d1b7b018f27","6790928bebf0b969fc839b02","67982756161a841bba24367d","passed","","","","","","","","","","","","","","","","","ballFalling","500","479.92114317029973","330.87","6","fallScene","false","","","","","41","",""
"","","","","","html-keyboard-response","161","1855096","0.0-18.0-1.16","66f23f43364a3d1b7b018f27","6790928bebf0b969fc839b02","67982756161a841bba24367d","passed","","null","","","","","","","","","","","","","","null","yesOrNo","","","","6","","","mid","1000","","","41","499","300"
"","","","","","html-keyboard-response","162","1856653","0.0-18.0-0.17","66f23f43364a3d1b7b018f27","6790928bebf0b969fc839b02","67982756161a841bba24367d","passed","","","","","","","","","","","","","","","","","ballFalling","322.3","296.07114317029976","371.46","3","fallScene","false","","","","","42","",""
"","","","","","html-keyboard-response","163","1857655","0.0-18.0-1.17","66f23f43364a3d1b7b018f27","6790928bebf0b969fc839b02","67982756161a841bba24367d","passed","","515","","","","","","","","","","","","","","j","yesOrNo","","","","3","","","mid","1000","","","42","321.3","300"
"","","","","","html-keyboard-response","164","1859446","0.0-18.0-0.18","66f23f43364a3d1b7b018f27","6790928bebf0b969fc839b02","67982756161a841bba24367d","passed","","","","","","","","","","","","","","","","","ballFalling","322.3","308.07114317029976","253.89","2","fallScene","true","","","","","43","",""
"","","","","","html-keyboard-response","165","1860452","0.0-18.0-1.18","66f23f43364a3d1b7b018f27","6790928bebf0b969fc839b02","67982756161a841bba24367d","passed","","381","","","","","","","","","","","","","","j","yesOrNo","","","","2","","","lp","1000","","","43","321.3","151"
"","","","","","html-keyboard-response","166","1862459","0.0-18.0-0.19","66f23f43364a3d1b7b018f27","6790928bebf0b969fc839b02","67982756161a841bba24367d","passed","","","","","","","","","","","","","","","","","ballFalling","604.4000000000001","596.8711431702998","394.5","10","fallScene","true","","","","","44","",""
"","","","","","html-keyboard-response","167","1863463","0.0-18.0-1.19","66f23f43364a3d1b7b018f27","6790928bebf0b969fc839b02","67982756161a841bba24367d","passed","","486","","","","","","","","","","","","","","f","yesOrNo","","","","10","","","lp","1000","","","44","603.4000000000001","215.50214355555383"
"","","","","","html-keyboard-response","168","1865473","0.0-18.0-0.20","66f23f43364a3d1b7b018f27","6790928bebf0b969fc839b02","67982756161a841bba24367d","passed","","","","","","","","","","","","","","","","","ballFalling","604.4000000000001","596.8711431702998","394.5","10","fallScene","true","","","","","45","",""
"","","","","","html-keyboard-response","169","1866475","0.0-18.0-1.20","66f23f43364a3d1b7b018f27","6790928bebf0b969fc839b02","67982756161a841bba24367d","passed","","304","","","","","","","","","","","","","","j","yesOrNo","","","","10","","","mid","1000","","","45","536.4288568297004","300"
"","","","","","html-keyboard-response","170","1868485","0.0-18.0-0.21","66f23f43364a3d1b7b018f27","6790928bebf0b969fc839b02","67982756161a841bba24367d","passed","","","","","","","","","","","","","","","","","ballFalling","500","510.8711431702997","369.03","8","fallScene","false","","","","","46","",""
"","","","","","html-keyboard-response","171","1869490","0.0-18.0-1.21","66f23f43364a3d1b7b018f27","6790928bebf0b969fc839b02","67982756161a841bba24367d","passed","","526","","","","","","","","","","","","","","j","yesOrNo","","","","8","","","lp","1000","","","46","501","151"
"","","","","","html-keyboard-response","172","1871048","0.0-18.0-0.22","66f23f43364a3d1b7b018f27","6790928bebf0b969fc839b02","67982756161a841bba24367d","passed","","","","","","","","","","","","","","","","","ballFalling","322.3","296.07114317029976","371.46","3","fallScene","false","","","","","47","",""
"","","","","","html-keyboard-response","173","1872053","0.0-18.0-1.22","66f23f43364a3d1b7b018f27","6790928bebf0b969fc839b02","67982756161a841bba24367d","passed","","463","","","","","","","","","","","","","","j","yesOrNo","","","","3","","","mid","1000","","","47","321.3","300"
"","","","","","html-keyboard-response","174","1873610","0.0-18.0-0.23","66f23f43364a3d1b7b018f27","6790928bebf0b969fc839b02","67982756161a841bba24367d","passed","","","","","","","","","","","","","","","","","ballFalling","500","453.67114317029973","210.33","5","fallScene","true","","","","","48","",""
"","","","","","html-keyboard-response","175","1874616","0.0-18.0-1.23","66f23f43364a3d1b7b018f27","6790928bebf0b969fc839b02","67982756161a841bba24367d","passed","","786","","","","","","","","","","","","","","j","yesOrNo","","","","5","","","lp","1000","","","48","499","151"
"","","","","","html-keyboard-response","176","1876055","0.0-19.0","66f23f43364a3d1b7b018f27","6790928bebf0b969fc839b02","67982756161a841bba24367d","passed","","1438","","","","","","","","","","","","","<p><span style=""font-size:40px;"">BLOCK 3</span></p><p><span style=""font-size:25px;"">You have <b style=""color: #FF644F;""><strong>1 second(s)</strong></b> to respond to the following trials.</span><br></p><p></p> <!-- Blank line -->
                <p id=""blinking-text"" style=""font-weight; animation: blink 2s infinite;"">Press Space to continue</p>
                <style>
                    @keyframes blink {
                        50% {
                            opacity: 0;
                        }
                    }
                </style></p>"," ","","","","","","","","","","","","","",""
"","","","","","html-keyboard-response","177","1877720","0.0-20.0-0.0","66f23f43364a3d1b7b018f27","6790928bebf0b969fc839b02","67982756161a841bba24367d","passed","","","","","","","","","","","","","","","","","ballFalling","500","479.92114317029973","330.87","6","fallScene","true","","","","","49","",""
"","","","","","html-keyboard-response","178","1878722","0.0-20.0-1.0","66f23f43364a3d1b7b018f27","6790928bebf0b969fc839b02","67982756161a841bba24367d","passed","","348","","","","","","","","","","","","","","f","yesOrNo","","","","6","","","lp","1000","","","49","499","189.92909825697632"
"","","","","","html-keyboard-response","179","1880282","0.0-20.0-0.1","66f23f43364a3d1b7b018f27","6790928bebf0b969fc839b02","67982756161a841bba24367d","passed","","","","","","","","","","","","","","","","","ballFalling","322.3","379.3711431702997","245.25","1","fallScene","true","","","","","50","",""
"","","","","","html-keyboard-response","180","1881285","0.0-20.0-1.1","66f23f43364a3d1b7b018f27","6790928bebf0b969fc839b02","67982756161a841bba24367d","passed","","510","","","","","","","","","","","","","","j","yesOrNo","","","","1","","","mid","1000","","","50","390.27114317029975","300"
"","","","","","html-keyboard-response","181","1882844","0.0-20.0-0.2","66f23f43364a3d1b7b018f27","6790928bebf0b969fc839b02","67982756161a841bba24367d","passed","","","","","","","","","","","","","","","","","ballFalling","500","453.67114317029973","210.33","5","fallScene","false","","","","","51","",""
"","","","","","html-keyboard-response","182","1883851","0.0-20.0-1.2","66f23f43364a3d1b7b018f27","6790928bebf0b969fc839b02","67982756161a841bba24367d","passed","","615","","","","","","","","","","","","","","j","yesOrNo","","","","5","","","lp","1000","","","51","499","151"
"","","","","","html-keyboard-response","183","1885406","0.0-20.0-0.3","66f23f43364a3d1b7b018f27","6790928bebf0b969fc839b02","67982756161a841bba24367d","passed","","","","","","","","","","","","","","","","","ballFalling","604.4000000000001","650.0211431702996","404.58000000000004","11","fallScene","true","","","","","52","",""
"","","","","","html-keyboard-response","184","1886413","0.0-20.0-1.3","66f23f43364a3d1b7b018f27","6790928bebf0b969fc839b02","67982756161a841bba24367d","passed","","616","","","","","","","","","","","","","","f","yesOrNo","","","","11","","","mid","1000","","","52","605.4000000000001","300"
"","","","","","html-keyboard-response","185","1887967","0.0-20.0-0.4","66f23f43364a3d1b7b018f27","6790928bebf0b969fc839b02","67982756161a841bba24367d","passed","","","","","","","","","","","","","","","","","ballFalling","604.4000000000001","575.4211431702997","266.76","12","fallScene","false","","","","","53","",""
"","","","","","html-keyboard-response","186","1888968","0.0-20.0-1.4","66f23f43364a3d1b7b018f27","6790928bebf0b969fc839b02","67982756161a841bba24367d","passed","","945","","","","","","","","","","","","","","f","yesOrNo","","","","12","","","mid","1000","","","53","536.4288568297004","300"
"","","","","","html-keyboard-response","187","1890551","0.0-20.0-0.5","66f23f43364a3d1b7b018f27","6790928bebf0b969fc839b02","67982756161a841bba24367d","passed","","","","","","","","","","","","","","","","","ballFalling","500","553.4711431702997","282.51","7","fallScene","true","","","","","54","",""
"","","","","","html-keyboard-response","188","1891558","0.0-20.0-1.5","66f23f43364a3d1b7b018f27","6790928bebf0b969fc839b02","67982756161a841bba24367d","passed","","477","","","","","","","","","","","","","","f","yesOrNo","","","","7","","","mid","1000","","","54","501","300"
"","","","","","html-keyboard-response","189","1893050","0.0-20.0-0.6","66f23f43364a3d1b7b018f27","6790928bebf0b969fc839b02","67982756161a841bba24367d","passed","","","","","","","","","","","","","","","","","ballFalling","604.4000000000001","667.6211431702998","201.78","9","fallScene","true","","","","","55","",""
"","","","","","html-keyboard-response","190","1894057","0.0-20.0-1.6","66f23f43364a3d1b7b018f27","6790928bebf0b969fc839b02","67982756161a841bba24367d","passed","","275","","","","","","","","","","","","","","j","yesOrNo","","","","9","","","gt","1000","","","55","667.6211431702998","201.78"
"","","","","","html-keyboard-response","191","1895612","0.0-20.0-0.7","66f23f43364a3d1b7b018f27","6790928bebf0b969fc839b02","67982756161a841bba24367d","passed","","","","","","","","","","","","","","","","","ballFalling","604.4000000000001","650.0211431702996","404.58000000000004","11","fallScene","false","","","","","56","",""
"","","","","","html-keyboard-response","192","1896615","0.0-20.0-1.7","66f23f43364a3d1b7b018f27","6790928bebf0b969fc839b02","67982756161a841bba24367d","passed","","739","","","","","","","","","","","","","","j","yesOrNo","","","","11","","","lp","1000","","","56","605.4000000000001","372.6340973215488"
"","","","","","html-keyboard-response","193","1898112","0.0-20.0-0.8","66f23f43364a3d1b7b018f27","6790928bebf0b969fc839b02","67982756161a841bba24367d","passed","","","","","","","","","","","","","","","","","ballFalling","604.4000000000001","667.6211431702998","201.78","9","fallScene","true","","","","","57","",""
"","","","","","html-keyboard-response","194","1899115","0.0-20.0-1.8","66f23f43364a3d1b7b018f27","6790928bebf0b969fc839b02","67982756161a841bba24367d","passed","","535","","","","","","","","","","","","","","f","yesOrNo","","","","9","","","mid","1000","","","57","605.4000000000001","300"
"","","","","","html-keyboard-response","195","1901124","0.0-20.0-0.9","66f23f43364a3d1b7b018f27","6790928bebf0b969fc839b02","67982756161a841bba24367d","passed","","","","","","","","","","","","","","","","","ballFalling","500","510.8711431702997","369.03","8","fallScene","true","","","","","58","",""
"","","","","","html-keyboard-response","196","1902126","0.0-20.0-1.9","66f23f43364a3d1b7b018f27","6790928bebf0b969fc839b02","67982756161a841bba24367d","passed","","776","","","","","","","","","","","","","","j","yesOrNo","","","","8","","","gt","1000","","","58","510.8711431702997","369.03"
"","","","","","html-keyboard-response","197","1904139","0.0-20.0-0.10","66f23f43364a3d1b7b018f27","6790928bebf0b969fc839b02","67982756161a841bba24367d","passed","","","","","","","","","","","","","","","","","ballFalling","604.4000000000001","596.8711431702998","394.5","10","fallScene","true","","","","","59","",""
"","","","","","html-keyboard-response","198","1905145","0.0-20.0-1.10","66f23f43364a3d1b7b018f27","6790928bebf0b969fc839b02","67982756161a841bba24367d","passed","","786","","","","","","","","","","","","","","j","yesOrNo","","","","10","","","lp","1000","","","59","603.4000000000001","215.50214355555383"
"","","","","","html-keyboard-response","199","1907152","0.0-20.0-0.11","66f23f43364a3d1b7b018f27","6790928bebf0b969fc839b02","67982756161a841bba24367d","passed","","","","","","","","","","","","","","","","","ballFalling","500","510.8711431702997","369.03","8","fallScene","false","","","","","60","",""
"","","","","","html-keyboard-response","200","1908159","0.0-20.0-1.11","66f23f43364a3d1b7b018f27","6790928bebf0b969fc839b02","67982756161a841bba24367d","passed","","606","","","","","","","","","","","","","","j","yesOrNo","","","","8","","","mid","1000","","","60","501","300"
"","","","","","html-keyboard-response","201","1909735","0.0-20.0-0.12","66f23f43364a3d1b7b018f27","6790928bebf0b969fc839b02","67982756161a841bba24367d","passed","","","","","","","","","","","","","","","","","ballFalling","500","553.4711431702997","282.51","7","fallScene","true","","","","","61","",""
"","","","","","html-keyboard-response","202","1910741","0.0-20.0-1.12","66f23f43364a3d1b7b018f27","6790928bebf0b969fc839b02","67982756161a841bba24367d","passed","","393","","","","","","","","","","","","","","j","yesOrNo","","","","7","","","lp","1000","","","61","501","227.2843295913261"
"","","","","","html-keyboard-response","203","1912297","0.0-20.0-0.13","66f23f43364a3d1b7b018f27","6790928bebf0b969fc839b02","67982756161a841bba24367d","passed","","","","","","","","","","","","","","","","","ballFalling","322.3","356.42114317029973","357.87","4","fallScene","false","","","","","62","",""
"","","","","","html-keyboard-response","204","1913303","0.0-20.0-1.13","66f23f43364a3d1b7b018f27","6790928bebf0b969fc839b02","67982756161a841bba24367d","passed","","296","","","","","","","","","","","","","","j","yesOrNo","","","","4","","","lp","1000","","","62","323.3","297.4070551689986"
"","","","","","html-keyboard-response","205","1914880","0.0-20.0-0.14","66f23f43364a3d1b7b018f27","6790928bebf0b969fc839b02","67982756161a841bba24367d","passed","","","","","","","","","","","","","","","","","ballFalling","500","553.4711431702997","282.51","7","fallScene","true","","","","","63","",""
"","","","","","html-keyboard-response","206","1915883","0.0-20.0-1.14","66f23f43364a3d1b7b018f27","6790928bebf0b969fc839b02","67982756161a841bba24367d","passed","","304","","","","","","","","","","","","","","j","yesOrNo","","","","7","","","gt","1000","","","63","553.4711431702997","282.51"
"","","","","","html-keyboard-response","207","1917892","0.0-20.0-0.15","66f23f43364a3d1b7b018f27","6790928bebf0b969fc839b02","67982756161a841bba24367d","passed","","","","","","","","","","","","","","","","","ballFalling","604.4000000000001","596.8711431702998","394.5","10","fallScene","false","","","","","64","",""
"","","","","","html-keyboard-response","208","1918893","0.0-20.0-1.15","66f23f43364a3d1b7b018f27","6790928bebf0b969fc839b02","67982756161a841bba24367d","passed","","575","","","","","","","","","","","","","","f","yesOrNo","","","","10","","","mid","1000","","","64","536.4288568297004","300"
"","","","","","html-keyboard-response","209","1920691","0.0-20.0-0.16","66f23f43364a3d1b7b018f27","6790928bebf0b969fc839b02","67982756161a841bba24367d","passed","","","","","","","","","","","","","","","","","ballFalling","322.3","308.07114317029976","253.89","2","fallScene","true","","","","","65","",""
"","","","","","html-keyboard-response","210","1921695","0.0-20.0-1.16","66f23f43364a3d1b7b018f27","6790928bebf0b969fc839b02","67982756161a841bba24367d","passed","","754","","","","","","","","","","","","","","j","yesOrNo","","","","2","","","gt","1000","","","65","308.07114317029976","253.89"
"","","","","","html-keyboard-response","211","1923253","0.0-20.0-0.17","66f23f43364a3d1b7b018f27","6790928bebf0b969fc839b02","67982756161a841bba24367d","passed","","","","","","","","","","","","","","","","","ballFalling","604.4000000000001","650.0211431702996","404.58000000000004","11","fallScene","true","","","","","66","",""
"","","","","","html-keyboard-response","212","1924255","0.0-20.0-1.17","66f23f43364a3d1b7b018f27","6790928bebf0b969fc839b02","67982756161a841bba24367d","passed","","537","","","","","","","","","","","","","","j","yesOrNo","","","","11","","","mid","1000","","","66","605.4000000000001","300"
"","","","","","html-keyboard-response","213","1925815","0.0-20.0-0.18","66f23f43364a3d1b7b018f27","6790928bebf0b969fc839b02","67982756161a841bba24367d","passed","","","","","","","","","","","","","","","","","ballFalling","322.3","356.42114317029973","357.87","4","fallScene","false","","","","","67","",""
"","","","","","html-keyboard-response","214","1926819","0.0-20.0-1.18","66f23f43364a3d1b7b018f27","6790928bebf0b969fc839b02","67982756161a841bba24367d","passed","","397","","","","","","","","","","","","","","j","yesOrNo","","","","4","","","mid","1000","","","67","390.27114317029975","300"
"","","","","","html-keyboard-response","215","1928613","0.0-20.0-0.19","66f23f43364a3d1b7b018f27","6790928bebf0b969fc839b02","67982756161a841bba24367d","passed","","","","","","","","","","","","","","","","","ballFalling","322.3","308.07114317029976","253.89","2","fallScene","true","","","","","68","",""
"","","","","","html-keyboard-response","216","1929620","0.0-20.0-1.19","66f23f43364a3d1b7b018f27","6790928bebf0b969fc839b02","67982756161a841bba24367d","passed","","529","","","","","","","","","","","","","","j","yesOrNo","","","","2","","","mid","1000","","","68","321.3","300"
"","","","","","html-keyboard-response","217","1931175","0.0-20.0-0.20","66f23f43364a3d1b7b018f27","6790928bebf0b969fc839b02","67982756161a841bba24367d","passed","","","","","","","","","","","","","","","","","ballFalling","322.3","296.07114317029976","371.46","3","fallScene","false","","","","","69","",""
"","","","","","html-keyboard-response","218","1932182","0.0-20.0-1.20","66f23f43364a3d1b7b018f27","6790928bebf0b969fc839b02","67982756161a841bba24367d","passed","","268","","","","","","","","","","","","","","j","yesOrNo","","","","3","","","gt","1000","","","69","296.07114317029976","371.46"
"","","","","","html-keyboard-response","219","1934188","0.0-20.0-0.21","66f23f43364a3d1b7b018f27","6790928bebf0b969fc839b02","67982756161a841bba24367d","passed","","","","","","","","","","","","","","","","","ballFalling","500","510.8711431702997","369.03","8","fallScene","true","","","","","70","",""
"","","","","","html-keyboard-response","220","1935190","0.0-20.0-1.21","66f23f43364a3d1b7b018f27","6790928bebf0b969fc839b02","67982756161a841bba24367d","passed","","257","","","","","","","","","","","","","","j","yesOrNo","","","","8","","","lp","1000","","","70","501","151"
"","","","","","html-keyboard-response","221","1936986","0.0-20.0-0.22","66f23f43364a3d1b7b018f27","6790928bebf0b969fc839b02","67982756161a841bba24367d","passed","","","","","","","","","","","","","","","","","ballFalling","322.3","308.07114317029976","253.89","2","fallScene","true","","","","","71","",""
"","","","","","html-keyboard-response","222","1937989","0.0-20.0-1.22","66f23f43364a3d1b7b018f27","6790928bebf0b969fc839b02","67982756161a841bba24367d","passed","","595","","","","","","","","","","","","","","j","yesOrNo","","","","2","","","mid","1000","","","71","321.3","300"
"","","","","","html-keyboard-response","223","1939486","0.0-20.0-0.23","66f23f43364a3d1b7b018f27","6790928bebf0b969fc839b02","67982756161a841bba24367d","passed","","","","","","","","","","","","","","","","","ballFalling","604.4000000000001","667.6211431702998","201.78","9","fallScene","false","","","","","72","",""
"","","","","","html-keyboard-response","224","1940493","0.0-20.0-1.23","66f23f43364a3d1b7b018f27","6790928bebf0b969fc839b02","67982756161a841bba24367d","passed","","565","","","","","","","","","","","","","","j","yesOrNo","","","","9","","","lp","1000","","","72","605.4000000000001","151"
"","","","","","html-keyboard-response","225","1941809","0.0-21.0","66f23f43364a3d1b7b018f27","6790928bebf0b969fc839b02","67982756161a841bba24367d","passed","","1316","","","","","","","","","","","","","<p><span style=""font-size:40px;"">BLOCK 4</span></p><p><span style=""font-size:25px;"">You have <b style=""color: #FF644F;""><strong>3 second(s)</strong></b> to respond to the following trials.</span><br></p><p></p> <!-- Blank line -->
                <p id=""blinking-text"" style=""font-weight; animation: blink 2s infinite;"">Press Space to continue</p>
                <style>
                    @keyframes blink {
                        50% {
                            opacity: 0;
                        }
                    }
                </style></p>"," ","","","","","","","","","","","","","",""
"","","","","","html-keyboard-response","226","1943367","0.0-22.0-0.0","66f23f43364a3d1b7b018f27","6790928bebf0b969fc839b02","67982756161a841bba24367d","passed","","","","","","","","","","","","","","","","","ballFalling","322.3","296.07114317029976","371.46","3","fallScene","false","","","","","73","",""
"","","","","","html-keyboard-response","227","1946373","0.0-22.0-1.0","66f23f43364a3d1b7b018f27","6790928bebf0b969fc839b02","67982756161a841bba24367d","passed","","889","","","","","","","","","","","","","","f","yesOrNo","","","","3","","","gt","3000","","","73","296.07114317029976","371.46"
"","","","","","html-keyboard-response","228","1948165","0.0-22.0-0.1","66f23f43364a3d1b7b018f27","6790928bebf0b969fc839b02","67982756161a841bba24367d","passed","","","","","","","","","","","","","","","","","ballFalling","322.3","308.07114317029976","253.89","2","fallScene","true","","","","","74","",""
"","","","","","html-keyboard-response","229","1951171","0.0-22.0-1.1","66f23f43364a3d1b7b018f27","6790928bebf0b969fc839b02","67982756161a841bba24367d","passed","","1209","","","","","","","","","","","","","","f","yesOrNo","","","","2","","","gt","3000","","","74","308.07114317029976","253.89"
"","","","","","html-keyboard-response","230","1952726","0.0-22.0-0.2","66f23f43364a3d1b7b018f27","6790928bebf0b969fc839b02","67982756161a841bba24367d","passed","","","","","","","","","","","","","","","","","ballFalling","322.3","356.42114317029973","357.87","4","fallScene","false","","","","","75","",""
"","","","","","html-keyboard-response","231","1955730","0.0-22.0-1.2","66f23f43364a3d1b7b018f27","6790928bebf0b969fc839b02","67982756161a841bba24367d","passed","","1108","","","","","","","","","","","","","","j","yesOrNo","","","","4","","","lp","3000","","","75","323.3","297.4070551689986"
"","","","","","html-keyboard-response","232","1957739","0.0-22.0-0.3","66f23f43364a3d1b7b018f27","6790928bebf0b969fc839b02","67982756161a841bba24367d","passed","","","","","","","","","","","","","","","","","ballFalling","604.4000000000001","596.8711431702998","394.5","10","fallScene","false","","","","","76","",""
"","","","","","html-keyboard-response","233","1960741","0.0-22.0-1.3","66f23f43364a3d1b7b018f27","6790928bebf0b969fc839b02","67982756161a841bba24367d","passed","","284","","","","","","","","","","","","","","j","yesOrNo","","","","10","","","lp","3000","","","76","603.4000000000001","215.50214355555383"
"","","","","","html-keyboard-response","234","1962537","0.0-22.0-0.4","66f23f43364a3d1b7b018f27","6790928bebf0b969fc839b02","67982756161a841bba24367d","passed","","","","","","","","","","","","","","","","","ballFalling","322.3","308.07114317029976","253.89","2","fallScene","false","","","","","77","",""
"","","","","","html-keyboard-response","235","1965543","0.0-22.0-1.4","66f23f43364a3d1b7b018f27","6790928bebf0b969fc839b02","67982756161a841bba24367d","passed","","255","","","","","","","","","","","","","","j","yesOrNo","","","","2","","","lp","3000","","","77","321.3","151"
"","","","","","html-keyboard-response","236","1967099","0.0-22.0-0.5","66f23f43364a3d1b7b018f27","6790928bebf0b969fc839b02","67982756161a841bba24367d","passed","","","","","","","","","","","","","","","","","ballFalling","500","453.67114317029973","210.33","5","fallScene","true","","","","","78","",""
"","","","","","html-keyboard-response","237","1970103","0.0-22.0-1.5","66f23f43364a3d1b7b018f27","6790928bebf0b969fc839b02","67982756161a841bba24367d","passed","","341","","","","","","","","","","","","","","j","yesOrNo","","","","5","","","lp","3000","","","78","499","151"
"","","","","","html-keyboard-response","238","1972111","0.0-22.0-0.6","66f23f43364a3d1b7b018f27","6790928bebf0b969fc839b02","67982756161a841bba24367d","passed","","","","","","","","","","","","","","","","","ballFalling","500","510.8711431702997","369.03","8","fallScene","true","","","","","79","",""
"","","","","","html-keyboard-response","239","1975116","0.0-22.0-1.6","66f23f43364a3d1b7b018f27","6790928bebf0b969fc839b02","67982756161a841bba24367d","passed","","395","","","","","","","","","","","","","","j","yesOrNo","","","","8","","","gt","3000","","","79","510.8711431702997","369.03"
"","","","","","html-keyboard-response","240","1976673","0.0-22.0-0.7","66f23f43364a3d1b7b018f27","6790928bebf0b969fc839b02","67982756161a841bba24367d","passed","","","","","","","","","","","","","","","","","ballFalling","604.4000000000001","575.4211431702997","266.76","12","fallScene","false","","","","","80","",""
"","","","","","html-keyboard-response","241","1979679","0.0-22.0-1.7","66f23f43364a3d1b7b018f27","6790928bebf0b969fc839b02","67982756161a841bba24367d","passed","","379","","","","","","","","","","","","","","j","yesOrNo","","","","12","","","mid","3000","","","80","536.4288568297004","300"
"","","","","","html-keyboard-response","242","1981235","0.0-22.0-0.8","66f23f43364a3d1b7b018f27","6790928bebf0b969fc839b02","67982756161a841bba24367d","passed","","","","","","","","","","","","","","","","","ballFalling","500","453.67114317029973","210.33","5","fallScene","false","","","","","81","",""
"","","","","","html-keyboard-response","243","1984241","0.0-22.0-1.8","66f23f43364a3d1b7b018f27","6790928bebf0b969fc839b02","67982756161a841bba24367d","passed","","788","","","","","","","","","","","","","","j","yesOrNo","","","","5","","","gt","3000","","","81","453.6711431702998","210.33"
"","","","","","html-keyboard-response","244","1986246","0.0-22.0-0.9","66f23f43364a3d1b7b018f27","6790928bebf0b969fc839b02","67982756161a841bba24367d","passed","","","","","","","","","","","","","","","","","ballFalling","500","510.8711431702997","369.03","8","fallScene","true","","","","","82","",""
"","","","","","html-keyboard-response","245","1989248","0.0-22.0-1.9","66f23f43364a3d1b7b018f27","6790928bebf0b969fc839b02","67982756161a841bba24367d","passed","","590","","","","","","","","","","","","","","j","yesOrNo","","","","8","","","lp","3000","","","82","501","151"
"","","","","","html-keyboard-response","246","1990809","0.0-22.0-0.10","66f23f43364a3d1b7b018f27","6790928bebf0b969fc839b02","67982756161a841bba24367d","passed","","","","","","","","","","","","","","","","","ballFalling","322.3","296.07114317029976","371.46","3","fallScene","false","","","","","83","",""
"","","","","","html-keyboard-response","247","1993811","0.0-22.0-1.10","66f23f43364a3d1b7b018f27","6790928bebf0b969fc839b02","67982756161a841bba24367d","passed","","673","","","","","","","","","","","","","","j","yesOrNo","","","","3","","","lp","3000","","","83","321.3","287.3327096511259"
"","","","","","html-keyboard-response","248","1995371","0.0-22.0-0.11","66f23f43364a3d1b7b018f27","6790928bebf0b969fc839b02","67982756161a841bba24367d","passed","","","","","","","","","","","","","","","","","ballFalling","500","453.67114317029973","210.33","5","fallScene","false","","","","","84","",""
"","","","","","html-keyboard-response","249","1998377","0.0-22.0-1.11","66f23f43364a3d1b7b018f27","6790928bebf0b969fc839b02","67982756161a841bba24367d","passed","","762","","","","","","","","","","","","","","j","yesOrNo","","","","5","","","mid","3000","","","84","499","300"
"","","","","","html-keyboard-response","250","2000384","0.0-22.0-0.12","66f23f43364a3d1b7b018f27","6790928bebf0b969fc839b02","67982756161a841bba24367d","passed","","","","","","","","","","","","","","","","","ballFalling","604.4000000000001","596.8711431702998","394.5","10","fallScene","true","","","","","85","",""
"","","","","","html-keyboard-response","251","2003390","0.0-22.0-1.12","66f23f43364a3d1b7b018f27","6790928bebf0b969fc839b02","67982756161a841bba24367d","passed","","653","","","","","","","","","","","","","","j","yesOrNo","","","","10","","","gt","3000","","","85","596.8711431702998","394.5"
"","","","","","html-keyboard-response","252","2004945","0.0-22.0-0.13","66f23f43364a3d1b7b018f27","6790928bebf0b969fc839b02","67982756161a841bba24367d","passed","","","","","","","","","","","","","","","","","ballFalling","322.3","356.42114317029973","357.87","4","fallScene","false","","","","","86","",""
"","","","","","html-keyboard-response","253","2007952","0.0-22.0-1.13","66f23f43364a3d1b7b018f27","6790928bebf0b969fc839b02","67982756161a841bba24367d","passed","","432","","","","","","","","","","","","","","j","yesOrNo","","","","4","","","lp","3000","","","86","323.3","297.4070551689986"
"","","","","","html-keyboard-response","254","2009514","0.0-22.0-0.14","66f23f43364a3d1b7b018f27","6790928bebf0b969fc839b02","67982756161a841bba24367d","passed","","","","","","","","","","","","","","","","","ballFalling","322.3","379.3711431702997","245.25","1","fallScene","false","","","","","87","",""
"","","","","","html-keyboard-response","255","2012520","0.0-22.0-1.14","66f23f43364a3d1b7b018f27","6790928bebf0b969fc839b02","67982756161a841bba24367d","passed","","364","","","","","","","","","","","","","","j","yesOrNo","","","","1","","","lp","3000","","","87","323.3","217.74551669457017"
"","","","","","html-keyboard-response","256","2014013","0.0-22.0-0.15","66f23f43364a3d1b7b018f27","6790928bebf0b969fc839b02","67982756161a841bba24367d","passed","","","","","","","","","","","","","","","","","ballFalling","604.4000000000001","667.6211431702998","201.78","9","fallScene","false","","","","","88","",""
"","","","","","html-keyboard-response","257","2017020","0.0-22.0-1.15","66f23f43364a3d1b7b018f27","6790928bebf0b969fc839b02","67982756161a841bba24367d","passed","","342","","","","","","","","","","","","","","j","yesOrNo","","","","9","","","gt","3000","","","88","667.6211431702998","201.78"
"","","","","","html-keyboard-response","258","2018575","0.0-22.0-0.16","66f23f43364a3d1b7b018f27","6790928bebf0b969fc839b02","67982756161a841bba24367d","passed","","","","","","","","","","","","","","","","","ballFalling","322.3","356.42114317029973","357.87","4","fallScene","false","","","","","89","",""
"","","","","","html-keyboard-response","259","2021581","0.0-22.0-1.16","66f23f43364a3d1b7b018f27","6790928bebf0b969fc839b02","67982756161a841bba24367d","passed","","518","","","","","","","","","","","","","","j","yesOrNo","","","","4","","","gt","3000","","","89","356.42114317029973","357.87"
"","","","","","html-keyboard-response","260","2023074","0.0-22.0-0.17","66f23f43364a3d1b7b018f27","6790928bebf0b969fc839b02","67982756161a841bba24367d","passed","","","","","","","","","","","","","","","","","ballFalling","604.4000000000001","667.6211431702998","201.78","9","fallScene","false","","","","","90","",""
"","","","","","html-keyboard-response","261","2026076","0.0-22.0-1.17","66f23f43364a3d1b7b018f27","6790928bebf0b969fc839b02","67982756161a841bba24367d","passed","","323","","","","","","","","","","","","","","j","yesOrNo","","","","9","","","lp","3000","","","90","605.4000000000001","151"
"","","","","","html-keyboard-response","262","2027872","0.0-22.0-0.18","66f23f43364a3d1b7b018f27","6790928bebf0b969fc839b02","67982756161a841bba24367d","passed","","","","","","","","","","","","","","","","","ballFalling","322.3","308.07114317029976","253.89","2","fallScene","true","","","","","91","",""
"","","","","","html-keyboard-response","263","2030877","0.0-22.0-1.18","66f23f43364a3d1b7b018f27","6790928bebf0b969fc839b02","67982756161a841bba24367d","passed","","580","","","","","","","","","","","","","","j","yesOrNo","","","","2","","","lp","3000","","","91","321.3","151"
"","","","","","html-keyboard-response","264","2032669","0.0-22.0-0.19","66f23f43364a3d1b7b018f27","6790928bebf0b969fc839b02","67982756161a841bba24367d","passed","","","","","","","","","","","","","","","","","ballFalling","322.3","308.07114317029976","253.89","2","fallScene","false","","","","","92","",""
"","","","","","html-keyboard-response","265","2035676","0.0-22.0-1.19","66f23f43364a3d1b7b018f27","6790928bebf0b969fc839b02","67982756161a841bba24367d","passed","","1059","","","","","","","","","","","","","","j","yesOrNo","","","","2","","","mid","3000","","","92","321.3","300"
"","","","","","html-keyboard-response","266","2037335","0.0-22.0-0.20","66f23f43364a3d1b7b018f27","6790928bebf0b969fc839b02","67982756161a841bba24367d","passed","","","","","","","","","","","","","","","","","ballFalling","500","479.92114317029973","330.87","6","fallScene","false","","","","","93","",""
"","","","","","html-keyboard-response","267","2040341","0.0-22.0-1.20","66f23f43364a3d1b7b018f27","6790928bebf0b969fc839b02","67982756161a841bba24367d","passed","","1131","","","","","","","","","","","","","","j","yesOrNo","","","","6","","","gt","3000","","","93","479.9211431702998","330.87"
"","","","","","html-keyboard-response","268","2041897","0.0-22.0-0.21","66f23f43364a3d1b7b018f27","6790928bebf0b969fc839b02","67982756161a841bba24367d","passed","","","","","","","","","","","","","","","","","ballFalling","322.3","296.07114317029976","371.46","3","fallScene","false","","","","","94","",""
"","","","","","html-keyboard-response","269","2044903","0.0-22.0-1.21","66f23f43364a3d1b7b018f27","6790928bebf0b969fc839b02","67982756161a841bba24367d","passed","","728","","","","","","","","","","","","","","j","yesOrNo","","","","3","","","gt","3000","","","94","296.07114317029976","371.46"
"","","","","","html-keyboard-response","270","2046457","0.0-22.0-0.22","66f23f43364a3d1b7b018f27","6790928bebf0b969fc839b02","67982756161a841bba24367d","passed","","","","","","","","","","","","","","","","","ballFalling","604.4000000000001","575.4211431702997","266.76","12","fallScene","true","","","","","95","",""
"","","","","","html-keyboard-response","271","2049465","0.0-22.0-1.22","66f23f43364a3d1b7b018f27","6790928bebf0b969fc839b02","67982756161a841bba24367d","passed","","867","","","","","","","","","","","","","","j","yesOrNo","","","","12","","","lp","3000","","","95","603.4000000000001","151"
"","","","","","html-keyboard-response","272","2051020","0.0-22.0-0.23","66f23f43364a3d1b7b018f27","6790928bebf0b969fc839b02","67982756161a841bba24367d","passed","","","","","","","","","","","","","","","","","ballFalling","322.3","379.3711431702997","245.25","1","fallScene","true","","","","","96","",""
"","","","","","html-keyboard-response","273","2054026","0.0-22.0-1.23","66f23f43364a3d1b7b018f27","6790928bebf0b969fc839b02","67982756161a841bba24367d","passed","","721","","","","","","","","","","","","","","j","yesOrNo","","","","1","","","gt","3000","","","96","379.3711431702997","245.25"
"","","","","","html-keyboard-response","274","2055928","0.0-23.0","66f23f43364a3d1b7b018f27","6790928bebf0b969fc839b02","67982756161a841bba24367d","passed","","1901","","","","","","","","","","","","","<p><span style=""font-size:40px;"">BLOCK 5</span></p><p><span style=""font-size:25px;"">You have <b style=""color: #FF644F;""><strong>3 second(s)</strong></b> to respond to the following trials.</span><br></p><p></p> <!-- Blank line -->
                <p id=""blinking-text"" style=""font-weight; animation: blink 2s infinite;"">Press Space to continue</p>
                <style>
                    @keyframes blink {
                        50% {
                            opacity: 0;
                        }
                    }
                </style></p>"," ","","","","","","","","","","","","","",""
"","","","","","html-keyboard-response","275","2057484","0.0-24.0-0.0","66f23f43364a3d1b7b018f27","6790928bebf0b969fc839b02","67982756161a841bba24367d","passed","","","","","","","","","","","","","","","","","ballFalling","322.3","296.07114317029976","371.46","3","fallScene","true","","","","","97","",""
"","","","","","html-keyboard-response","276","2060490","0.0-24.0-1.0","66f23f43364a3d1b7b018f27","6790928bebf0b969fc839b02","67982756161a841bba24367d","passed","","825","","","","","","","","","","","","","","j","yesOrNo","","","","3","","","mid","3000","","","97","321.3","300"
"","","","","","html-keyboard-response","277","2061983","0.0-24.0-0.1","66f23f43364a3d1b7b018f27","6790928bebf0b969fc839b02","67982756161a841bba24367d","passed","","","","","","","","","","","","","","","","","ballFalling","604.4000000000001","667.6211431702998","201.78","9","fallScene","true","","","","","98","",""
"","","","","","html-keyboard-response","278","2064988","0.0-24.0-1.1","66f23f43364a3d1b7b018f27","6790928bebf0b969fc839b02","67982756161a841bba24367d","passed","","557","","","","","","","","","","","","","","j","yesOrNo","","","","9","","","mid","3000","","","98","605.4000000000001","300"
"","","","","","html-keyboard-response","279","2066781","0.0-24.0-0.2","66f23f43364a3d1b7b018f27","6790928bebf0b969fc839b02","67982756161a841bba24367d","passed","","","","","","","","","","","","","","","","","ballFalling","322.3","308.07114317029976","253.89","2","fallScene","false","","","","","99","",""
"","","","","","html-keyboard-response","280","2069787","0.0-24.0-1.2","66f23f43364a3d1b7b018f27","6790928bebf0b969fc839b02","67982756161a841bba24367d","passed","","1074","","","","","","","","","","","","","","j","yesOrNo","","","","2","","","gt","3000","","","99","308.07114317029976","253.89"
"","","","","","html-keyboard-response","281","2071341","0.0-24.0-0.3","66f23f43364a3d1b7b018f27","6790928bebf0b969fc839b02","67982756161a841bba24367d","passed","","","","","","","","","","","","","","","","","ballFalling","604.4000000000001","575.4211431702997","266.76","12","fallScene","true","","","","","100","",""
"","","","","","html-keyboard-response","282","2074345","0.0-24.0-1.3","66f23f43364a3d1b7b018f27","6790928bebf0b969fc839b02","67982756161a841bba24367d","passed","","909","","","","","","","","","","","","","","j","yesOrNo","","","","12","","","mid","3000","","","100","536.4288568297004","300"
"","","","","","html-keyboard-response","283","2075904","0.0-24.0-0.4","66f23f43364a3d1b7b018f27","6790928bebf0b969fc839b02","67982756161a841bba24367d","passed","","","","","","","","","","","","","","","","","ballFalling","322.3","379.3711431702997","245.25","1","fallScene","false","","","","","101","",""
"","","","","","html-keyboard-response","284","2078910","0.0-24.0-1.4","66f23f43364a3d1b7b018f27","6790928bebf0b969fc839b02","67982756161a841bba24367d","passed","","359","","","","","","","","","","","","","","j","yesOrNo","","","","1","","","mid","3000","","","101","390.27114317029975","300"
"","","","","","html-keyboard-response","285","2080486","0.0-24.0-0.5","66f23f43364a3d1b7b018f27","6790928bebf0b969fc839b02","67982756161a841bba24367d","passed","","","","","","","","","","","","","","","","","ballFalling","500","553.4711431702997","282.51","7","fallScene","true","","","","","102","",""
"","","","","","html-keyboard-response","286","2083490","0.0-24.0-1.5","66f23f43364a3d1b7b018f27","6790928bebf0b969fc839b02","67982756161a841bba24367d","passed","","1137","","","","","","","","","","","","","","j","yesOrNo","","","","7","","","gt","3000","","","102","553.4711431702997","282.51"
"","","","","","html-keyboard-response","287","2085047","0.0-24.0-0.6","66f23f43364a3d1b7b018f27","6790928bebf0b969fc839b02","67982756161a841bba24367d","passed","","","","","","","","","","","","","","","","","ballFalling","322.3","356.42114317029973","357.87","4","fallScene","true","","","","","103","",""
"","","","","","html-keyboard-response","288","2088048","0.0-24.0-1.6","66f23f43364a3d1b7b018f27","6790928bebf0b969fc839b02","67982756161a841bba24367d","passed","","944","","","","","","","","","","","","","","j","yesOrNo","","","","4","","","gt","3000","","","103","356.42114317029973","357.87"
"","","","","","html-keyboard-response","289","2089610","0.0-24.0-0.7","66f23f43364a3d1b7b018f27","6790928bebf0b969fc839b02","67982756161a841bba24367d","passed","","","","","","","","","","","","","","","","","ballFalling","604.4000000000001","650.0211431702996","404.58000000000004","11","fallScene","true","","","","","104","",""
"","","","","","html-keyboard-response","290","2092615","0.0-24.0-1.7","66f23f43364a3d1b7b018f27","6790928bebf0b969fc839b02","67982756161a841bba24367d","passed","","763","","","","","","","","","","","","","","j","yesOrNo","","","","11","","","mid","3000","","","104","605.4000000000001","300"
"","","","","","html-keyboard-response","291","2094192","0.0-24.0-0.8","66f23f43364a3d1b7b018f27","6790928bebf0b969fc839b02","67982756161a841bba24367d","passed","","","","","","","","","","","","","","","","","ballFalling","500","553.4711431702997","282.51","7","fallScene","true","","","","","105","",""
"","","","","","html-keyboard-response","292","2097196","0.0-24.0-1.8","66f23f43364a3d1b7b018f27","6790928bebf0b969fc839b02","67982756161a841bba24367d","passed","","1333","","","","","","","","","","","","","","j","yesOrNo","","","","7","","","gt","3000","","","105","553.4711431702997","282.51"
"","","","","","html-keyboard-response","293","2098754","0.0-24.0-0.9","66f23f43364a3d1b7b018f27","6790928bebf0b969fc839b02","67982756161a841bba24367d","passed","","","","","","","","","","","","","","","","","ballFalling","500","453.67114317029973","210.33","5","fallScene","true","","","","","106","",""
"","","","","","html-keyboard-response","294","2101760","0.0-24.0-1.9","66f23f43364a3d1b7b018f27","6790928bebf0b969fc839b02","67982756161a841bba24367d","passed","","1389","","","","","","","","","","","","","","f","yesOrNo","","","","5","","","lp","3000","","","106","499","151"
"","","","","","html-keyboard-response","295","2103315","0.0-24.0-0.10","66f23f43364a3d1b7b018f27","6790928bebf0b969fc839b02","67982756161a841bba24367d","passed","","","","","","","","","","","","","","","","","ballFalling","604.4000000000001","650.0211431702996","404.58000000000004","11","fallScene","true","","","","","107","",""
"","","","","","html-keyboard-response","296","2106319","0.0-24.0-1.10","66f23f43364a3d1b7b018f27","6790928bebf0b969fc839b02","67982756161a841bba24367d","passed","","1742","","","","","","","","","","","","","","f","yesOrNo","","","","11","","","lp","3000","","","107","605.4000000000001","372.6340973215488"
"","","","","","html-keyboard-response","297","2108328","0.0-24.0-0.11","66f23f43364a3d1b7b018f27","6790928bebf0b969fc839b02","67982756161a841bba24367d","passed","","","","","","","","","","","","","","","","","ballFalling","500","510.8711431702997","369.03","8","fallScene","true","","","","","108","",""
"","","","","","html-keyboard-response","298","2111335","0.0-24.0-1.11","66f23f43364a3d1b7b018f27","6790928bebf0b969fc839b02","67982756161a841bba24367d","passed","","898","","","","","","","","","","","","","","j","yesOrNo","","","","8","","","mid","3000","","","108","501","300"
"","","","","","html-keyboard-response","299","2113341","0.0-24.0-0.12","66f23f43364a3d1b7b018f27","6790928bebf0b969fc839b02","67982756161a841bba24367d","passed","","","","","","","","","","","","","","","","","ballFalling","500","510.8711431702997","369.03","8","fallScene","true","","","","","109","",""
