"success","timeout","failed_images","failed_audio","failed_video","trial_type","trial_index","time_elapsed","internal_node_id","subject_id","study_id","session_id","practiceTestResult","view_history","rt","width","height","webaudio","browser","browser_version","mobile","os","fullscreen","vsync_rate","webcam","microphone","url","stimulus","response","task","ball_X","obstacle_groundTruth_x","obstacle_groundTruth_y","stimulus_idx","trial_name","flipped","choice","timeLimit","question_order","comprehensionCheck","currentTrial","obstacle_choice_x","obstacle_choice_y"
"true","false","[]","[]","[]","preload","0","45","0.0-0.0","673e759016f888e8212c0c1f","6790928bebf0b969fc839b02","6798266021232ef321643b68","passed","","","","","","","","","","","","","","","","","","","","","","","","","","","","","",""
"","","","","","instructions","1","67529","0.0-1.0","673e759016f888e8212c0c1f","6790928bebf0b969fc839b02","6798266021232ef321643b68","passed","[{""page_index"":0,""viewing_time"":67482}]","67482","","","","","","","","","","","","","","","","","","","","","","","","","","","",""
"","","","","","browser-check","2","68533","0.0-2.0","673e759016f888e8212c0c1f","6790928bebf0b969fc839b02","6798266021232ef321643b68","passed","","","1366","680","true","chrome","131.0.0","false","Mac OS","true","60.18","true","true","","","","","","","","","","","","","","","","",""
"","","","","","external-html","3","74413","0.0-3.0","673e759016f888e8212c0c1f","6790928bebf0b969fc839b02","6798266021232ef321643b68","passed","","5782","","","","","","","","","","","","consent.html","","","","","","","","","","","","","","","",""
"true","","","","","fullscreen","4","76648","0.0-4.0","673e759016f888e8212c0c1f","6790928bebf0b969fc839b02","6798266021232ef321643b68","passed","","1932","","","","","","","","","","","","","","","","","","","","","","","","","","","",""
"","","","","","browser-check","5","77649","0.0-5.0","673e759016f888e8212c0c1f","6790928bebf0b969fc839b02","6798266021232ef321643b68","passed","","","1366","768","true","chrome","131.0.0","false","Mac OS","true","60.01","true","true","","","","","","","","","","","","","","","","",""
"","","","","","html-keyboard-response","6","79593","0.0-6.0","673e759016f888e8212c0c1f","6790928bebf0b969fc839b02","6798266021232ef321643b68","passed","","1943","","","","","","","","","","","","","<p><b>This experiment requires keyboard input.</b></p> 
        <p><b>To ensure your response will be recorded successfully, please press 'Space' to continue.</b></p>
        <p>If you can't proceed, you won't be able to complete this study.</p>
        <p></p> <!-- Blank line -->
        <p id=""blinking-text"" style=""font-weight; animation: blink 2s infinite;"">Press Space to continue</p>
        <style>
            @keyframes blink {
                50% {
                    opacity: 0;
                }
            }
        </style>"," ","","","","","","","","","","","","","",""
"","","","","","html-keyboard-response","7","82769","0.0-7.0","673e759016f888e8212c0c1f","6790928bebf0b969fc839b02","6798266021232ef321643b68","passed","","3175","","","","","","","","","","","","","<p><b>This experiment requires keyboard input.</b></p> 
        <p><b>To ensure your response will be recorded successfully, please press the 'f' key to continue.</b></p>
        <p>If you can't proceed, you won't be able to complete this study.</p>
        <p></p> <!-- Blank line -->
        <p id=""blinking-text"" style=""font-weight; animation: blink 2s infinite;"">Press f to continue</p>
        <style>
            @keyframes blink {
                50% {
                    opacity: 0;
                }
            }
        </style>","f","","","","","","","","","","","","","",""
"","","","","","html-keyboard-response","8","87485","0.0-8.0","673e759016f888e8212c0c1f","6790928bebf0b969fc839b02","6798266021232ef321643b68","passed","","4715","","","","","","","","","","","","","<p><b>This experiment requires keyboard input.</b></p> 
        <p><b>To ensure your response will be recorded successfully, please press the 'j' key to continue.</b></p>
        <p>If you can't proceed, you won't be able to complete this study.</p>
        <p></p> <!-- Blank line -->
        <p id=""blinking-text"" style=""font-weight; animation: blink 2s infinite;"">Press j to continue</p>
        <style>
            @keyframes blink {
                50% {
                    opacity: 0;
                }
            }
        </style>","j","","","","","","","","","","","","","",""
"","","","","","browser-check","9","88499","0.0-9.0","673e759016f888e8212c0c1f","6790928bebf0b969fc839b02","6798266021232ef321643b68","passed","","","1366","768","true","chrome","131.0.0","false","Mac OS","true","60.01","true","true","","","","","","","","","","","","","","","","",""
"","","","","","survey-text","10","97653","0.0-10.0","673e759016f888e8212c0c1f","6790928bebf0b969fc839b02","6798266021232ef321643b68","passed","","9151","","","","","","","","","","","","","","{""prolificID"":""673e759016f888e8212c0c1f""}","","","","","","","","","","","","","",""
"","","","","","instructions","11","312202","0.0-11.0-0.0-0.0","673e759016f888e8212c0c1f","6790928bebf0b969fc839b02","6798266021232ef321643b68","passed","[{""page_index"":0,""viewing_time"":6074},{""page_index"":1,""viewing_time"":5117},{""page_index"":2,""viewing_time"":6301},{""page_index"":3,""viewing_time"":197051}]","214543","","","","","","","","","","","","","","","","","","","","","","","","","","","",""
"","","","","","html-keyboard-response","12","594612","0.0-11.0-0.0-1.0","673e759016f888e8212c0c1f","6790928bebf0b969fc839b02","6798266021232ef321643b68","passed","","281899","","","","","","","","","","","","","<br>Remember! After a ball falls, the screen will disappear, and you'll decide if the proposed position is where the hidden triangle was. <br>You will now practice this by watching a few videos and making decisions.<p>To respond:<br style=""margin-bottom: 5px; text-indent: -20px; padding-left: 20px;"">- Press <b style=""color: #12AD2B;"">J for Yes</b>, if you think the triangle is in the correct position.<br style=""margin-top: 0; text-indent: -20px; padding-left: 20px;"">- Press <b style=""color: orange;"">F for No</b>, if you think the triangle is not in the correct position.</p><p>In this practice round, there is no time limit. Focus on getting comfortable with the task first.<br>Press either J or F to begin your practice trials.</p><img src = ""YesOrNo_instruction.png"" style=""width: 65%;""></img>","j","","","","","","","","","","","","","",""
"","","","","","html-keyboard-response","13","596194","0.0-11.0-0.0-2.0-0.0","673e759016f888e8212c0c1f","6790928bebf0b969fc839b02","6798266021232ef321643b68","passed","","","","","","","","","","","","","","","","","ballFalling_prac","441","414","302","5","fallScene","true","","","","","","",""
"","","","","","html-keyboard-response","14","597452","0.0-11.0-0.0-2.0-1.0","673e759016f888e8212c0c1f","6790928bebf0b969fc839b02","6798266021232ef321643b68","passed","","1253","","","","","","","","","","","","","","j","yesOrNo_prac_noTimed","","","","5","","","close gt","NA","","","","",""
"","","","","","html-keyboard-response","15","599011","0.0-11.0-0.0-2.0-0.1","673e759016f888e8212c0c1f","6790928bebf0b969fc839b02","6798266021232ef321643b68","passed","","","","","","","","","","","","","","","","","ballFalling_prac","416","464","296","1","fallScene","false","","","","","","",""
"","","","","","html-keyboard-response","16","599996","0.0-11.0-0.0-2.0-1.1","673e759016f888e8212c0c1f","6790928bebf0b969fc839b02","6798266021232ef321643b68","passed","","981","","","","","","","","","","","","","","f","yesOrNo_prac_noTimed","","","","1","","","gt","NA","","","","",""
"","","","","","html-keyboard-response","17","602111","0.0-11.0-0.0-2.0-0.2","673e759016f888e8212c0c1f","6790928bebf0b969fc839b02","6798266021232ef321643b68","passed","","","","","","","","","","","","","","","","","ballFalling_prac","660","666","350","3","fallScene","false","","","","","","",""
"","","","","","html-keyboard-response","18","604185","0.0-11.0-0.0-2.0-1.2","673e759016f888e8212c0c1f","6790928bebf0b969fc839b02","6798266021232ef321643b68","passed","","2070","","","","","","","","","","","","","","f","yesOrNo_prac_noTimed","","","","3","","","wrong direction","NA","","","","",""
"","","","","","instructions","19","611558","0.0-11.0-0.0-3.0","673e759016f888e8212c0c1f","6790928bebf0b969fc839b02","6798266021232ef321643b68","passed","[{""page_index"":0,""viewing_time"":5104},{""page_index"":1,""viewing_time"":2266}]","7371","","","","","","","","","","","","","","","","","","","","","","","","","","","",""
"","","","","","html-button-response","20","617842","0.0-11.0-0.0-4.0","673e759016f888e8212c0c1f","6790928bebf0b969fc839b02","6798266021232ef321643b68","passed","","5782","","","","","","","","","","","","","<p>To make sure you understood the task, we just have a <b>brief quiz</b> here.</p><p>If you need to review the instructions, click 'Previous'.</p><p>It's important to understand the task to do the study, so you have to pass the quiz to move to the study.</p>","1","","","","","","","","","","","","","",""
"","","","","","survey-multi-choice","21","629126","0.0-11.0-1.0-0.0","673e759016f888e8212c0c1f","6790928bebf0b969fc839b02","6798266021232ef321643b68","passed","","11282","","","","","","","","","","","","","","{""generalProcedure"":""Watch a video of a ball falling, some of it behind a gray screen. After each video, decide if the triangle is at the spot where the ball hit the triangle behind the screen. There is time limit for the response.""}","","","","","","","","","","[0]","","","",""
"","","","","","survey-multi-choice","22","635660","0.0-11.0-1.0-1.0","673e759016f888e8212c0c1f","6790928bebf0b969fc839b02","6798266021232ef321643b68","passed","","6531","","","","","","","","","","","","","","{""checkBallHitObstacle"":""No.""}","","","","","","","","","","[0]","","","",""
"","","","","","survey-multi-choice","23","665410","0.0-11.0-1.0-2.0","673e759016f888e8212c0c1f","6790928bebf0b969fc839b02","6798266021232ef321643b68","passed","","29748","","","","","","","","","","","","","","{""checkTriangleVisibility"":""No, the triangle is hidden behind the gray screen.""}","","","","","","","","","","[0]","","","",""
"","","","","","survey-multi-choice","24","680561","0.0-11.0-1.0-3.0","673e759016f888e8212c0c1f","6790928bebf0b969fc839b02","6798266021232ef321643b68","passed","","15149","","","","","","","","","","","","","","{""checkTimedResponse"":""The trial will wait for your response.""}","","","","","","","","","","[0]","","","",""
"","","","","","survey-multi-choice","25","707645","0.0-11.0-1.0-4.0","673e759016f888e8212c0c1f","6790928bebf0b969fc839b02","6798266021232ef321643b68","passed","","27082","","","","","","","","","","","","","","{""checkTimeBlockNotice"":""Before every individual trial.""}","","","","","","","","","","[0]","","","",""
"","","","","","survey-multi-choice","26","713562","0.0-11.0-1.0-5.0","673e759016f888e8212c0c1f","6790928bebf0b969fc839b02","6798266021232ef321643b68","passed","","5915","","","","","","","","","","","","","","{""checkTimeBlockSameness"":""Yes, the time limit is the same for all trials within a block.""}","","","","","","","","","","[0]","","","",""
"","","","","","survey-multi-choice","27","750946","0.0-11.0-1.0-6.0","673e759016f888e8212c0c1f","6790928bebf0b969fc839b02","6798266021232ef321643b68","passed","","37382","","","","","","","","","","","","","","{""checkTrianglePrecision"":""No. The proposed purple triangle is not in the correct position because it doesn't match the location of the white triangle exactly.""}","","","","","","","","","","[0]","","","",""
"","","","","","html-button-response","28","754094","0.0-11.0-2.0-0.0","673e759016f888e8212c0c1f","6790928bebf0b969fc839b02","6798266021232ef321643b68","passed","","3146","","","","","","","","","","","","","<p>Oops! You did not pass the quiz.</p><p>You will now repeat the instructions and practice.</p>","0","","","","","","","","","","","failed","","",""
"","","","","","instructions","29","759845","0.0-11.1-0.1-0.1","673e759016f888e8212c0c1f","6790928bebf0b969fc839b02","6798266021232ef321643b68","passed","[{""page_index"":0,""viewing_time"":2251},{""page_index"":1,""viewing_time"":1183},{""page_index"":2,""viewing_time"":1467},{""page_index"":3,""viewing_time"":849}]","5750","","","","","","","","","","","","","","","","","","","","","","","","","","","",""
"","","","","","html-keyboard-response","30","771192","0.0-11.1-0.1-1.1","673e759016f888e8212c0c1f","6790928bebf0b969fc839b02","6798266021232ef321643b68","passed","","10843","","","","","","","","","","","","","<br>Remember! After a ball falls, the screen will disappear, and you'll decide if the proposed position is where the hidden triangle was. <br>You will now practice this by watching a few videos and making decisions.<p>To respond:<br style=""margin-bottom: 5px; text-indent: -20px; padding-left: 20px;"">- Press <b style=""color: #12AD2B;"">J for Yes</b>, if you think the triangle is in the correct position.<br style=""margin-top: 0; text-indent: -20px; padding-left: 20px;"">- Press <b style=""color: orange;"">F for No</b>, if you think the triangle is not in the correct position.</p><p>In this practice round, there is no time limit. Focus on getting comfortable with the task first.<br>Press either J or F to begin your practice trials.</p><img src = ""YesOrNo_instruction.png"" style=""width: 65%;""></img>","j","","","","","","","","","","","","","",""
"","","","","","html-keyboard-response","31","773516","0.0-11.1-0.1-2.1-0.3","673e759016f888e8212c0c1f","6790928bebf0b969fc839b02","6798266021232ef321643b68","passed","","","","","","","","","","","","","","","","","ballFalling_prac","441","414","302","5","fallScene","true","","","","","","",""
"","","","","","html-keyboard-response","32","774721","0.0-11.1-0.1-2.1-1.3","673e759016f888e8212c0c1f","6790928bebf0b969fc839b02","6798266021232ef321643b68","passed","","1201","","","","","","","","","","","","","","j","yesOrNo_prac_noTimed","","","","5","","","close gt","NA","","","","",""
"","","","","","html-keyboard-response","33","776283","0.0-11.1-0.1-2.1-0.4","673e759016f888e8212c0c1f","6790928bebf0b969fc839b02","6798266021232ef321643b68","passed","","","","","","","","","","","","","","","","","ballFalling_prac","416","464","296","1","fallScene","false","","","","","","",""
"","","","","","html-keyboard-response","34","777264","0.0-11.1-0.1-2.1-1.4","673e759016f888e8212c0c1f","6790928bebf0b969fc839b02","6798266021232ef321643b68","passed","","977","","","","","","","","","","","","","","j","yesOrNo_prac_noTimed","","","","1","","","gt","NA","","","","",""
"","","","","","html-keyboard-response","35","779382","0.0-11.1-0.1-2.1-0.5","673e759016f888e8212c0c1f","6790928bebf0b969fc839b02","6798266021232ef321643b68","passed","","","","","","","","","","","","","","","","","ballFalling_prac","660","666","350","3","fallScene","false","","","","","","",""
"","","","","","html-keyboard-response","36","781132","0.0-11.1-0.1-2.1-1.5","673e759016f888e8212c0c1f","6790928bebf0b969fc839b02","6798266021232ef321643b68","passed","","1747","","","","","","","","","","","","","","f","yesOrNo_prac_noTimed","","","","3","","","wrong direction","NA","","","","",""
"","","","","","instructions","37","865814","0.0-11.1-0.1-3.1","673e759016f888e8212c0c1f","6790928bebf0b969fc839b02","6798266021232ef321643b68","passed","[{""page_index"":0,""viewing_time"":80863},{""page_index"":1,""viewing_time"":3816}]","84679","","","","","","","","","","","","","","","","","","","","","","","","","","","",""
"","","","","","html-button-response","38","868032","0.0-11.1-0.1-4.1","673e759016f888e8212c0c1f","6790928bebf0b969fc839b02","6798266021232ef321643b68","passed","","1715","","","","","","","","","","","","","<p>To make sure you understood the task, we just have a <b>brief quiz</b> here.</p><p>If you need to review the instructions, click 'Previous'.</p><p>It's important to understand the task to do the study, so you have to pass the quiz to move to the study.</p>","1","","","","","","","","","","","","","",""
"","","","","","survey-multi-choice","39","872165","0.0-11.1-1.1-0.1","673e759016f888e8212c0c1f","6790928bebf0b969fc839b02","6798266021232ef321643b68","passed","","4132","","","","","","","","","","","","","","{""generalProcedure"":""Watch a video of a ball falling, some of it behind a gray screen. After each video, decide if the triangle is at the spot where the ball hit the triangle behind the screen. There is time limit for the response.""}","","","","","","","","","","[0]","","","",""
"","","","","","survey-multi-choice","40","877082","0.0-11.1-1.1-1.1","673e759016f888e8212c0c1f","6790928bebf0b969fc839b02","6798266021232ef321643b68","passed","","4916","","","","","","","","","","","","","","{""checkBallHitObstacle"":""I am not sure.""}","","","","","","","","","","[0]","","","",""
"","","","","","survey-multi-choice","41","881632","0.0-11.1-1.1-2.1","673e759016f888e8212c0c1f","6790928bebf0b969fc839b02","6798266021232ef321643b68","passed","","4549","","","","","","","","","","","","","","{""checkTriangleVisibility"":""No, the triangle is hidden behind the gray screen.""}","","","","","","","","","","[0]","","","",""
"","","","","","survey-multi-choice","42","886599","0.0-11.1-1.1-3.1","673e759016f888e8212c0c1f","6790928bebf0b969fc839b02","6798266021232ef321643b68","passed","","4965","","","","","","","","","","","","","","{""checkTimedResponse"":""The trial will wait for your response.""}","","","","","","","","","","[0]","","","",""
"","","","","","survey-multi-choice","43","890083","0.0-11.1-1.1-4.1","673e759016f888e8212c0c1f","6790928bebf0b969fc839b02","6798266021232ef321643b68","passed","","3482","","","","","","","","","","","","","","{""checkTimeBlockNotice"":""At the beginning of each block.""}","","","","","","","","","","[0]","","","",""
"","","","","","survey-multi-choice","44","901582","0.0-11.1-1.1-5.1","673e759016f888e8212c0c1f","6790928bebf0b969fc839b02","6798266021232ef321643b68","passed","","11498","","","","","","","","","","","","","","{""checkTimeBlockSameness"":""No, the time limit changes for each trial within a block.""}","","","","","","","","","","[0]","","","",""
"","","","","","survey-multi-choice","45","910416","0.0-11.1-1.1-6.1","673e759016f888e8212c0c1f","6790928bebf0b969fc839b02","6798266021232ef321643b68","passed","","8832","","","","","","","","","","","","","","{""checkTrianglePrecision"":""Yes. The proposed purple triangle is very close to the correct position, so I should choose 'Yes.'""}","","","","","","","","","","[0]","","","",""
"","","","","","html-button-response","46","913266","0.0-11.1-2.1-0.1","673e759016f888e8212c0c1f","6790928bebf0b969fc839b02","6798266021232ef321643b68","passed","","2848","","","","","","","","","","","","","<p>Oops! You did not pass the quiz.</p><p>You will now repeat the instructions and practice.</p>","0","","","","","","","","","","","failed","","",""
"","","","","","instructions","47","918316","0.0-11.2-0.2-0.2","673e759016f888e8212c0c1f","6790928bebf0b969fc839b02","6798266021232ef321643b68","passed","[{""page_index"":0,""viewing_time"":2016},{""page_index"":1,""viewing_time"":850},{""page_index"":2,""viewing_time"":900},{""page_index"":3,""viewing_time"":1283}]","5050","","","","","","","","","","","","","","","","","","","","","","","","","","","",""
"","","","","","html-keyboard-response","48","921066","0.0-11.2-0.2-1.2","673e759016f888e8212c0c1f","6790928bebf0b969fc839b02","6798266021232ef321643b68","passed","","2247","","","","","","","","","","","","","<br>Remember! After a ball falls, the screen will disappear, and you'll decide if the proposed position is where the hidden triangle was. <br>You will now practice this by watching a few videos and making decisions.<p>To respond:<br style=""margin-bottom: 5px; text-indent: -20px; padding-left: 20px;"">- Press <b style=""color: #12AD2B;"">J for Yes</b>, if you think the triangle is in the correct position.<br style=""margin-top: 0; text-indent: -20px; padding-left: 20px;"">- Press <b style=""color: orange;"">F for No</b>, if you think the triangle is not in the correct position.</p><p>In this practice round, there is no time limit. Focus on getting comfortable with the task first.<br>Press either J or F to begin your practice trials.</p><img src = ""YesOrNo_instruction.png"" style=""width: 65%;""></img>","j","","","","","","","","","","","","","",""
"","","","","","html-keyboard-response","49","922618","0.0-11.2-0.2-2.2-0.6","673e759016f888e8212c0c1f","6790928bebf0b969fc839b02","6798266021232ef321643b68","passed","","","","","","","","","","","","","","","","","ballFalling_prac","416","464","296","1","fallScene","false","","","","","","",""
"","","","","","html-keyboard-response","50","923221","0.0-11.2-0.2-2.2-1.6","673e759016f888e8212c0c1f","6790928bebf0b969fc839b02","6798266021232ef321643b68","passed","","331","","","","","","","","","","","","","","j","yesOrNo_prac_noTimed","","","","1","","","gt","NA","","","","",""
"","","","","","html-keyboard-response","51","924819","0.0-11.2-0.2-2.2-0.7","673e759016f888e8212c0c1f","6790928bebf0b969fc839b02","6798266021232ef321643b68","passed","","","","","","","","","","","","","","","","","ballFalling_prac","441","414","302","5","fallScene","true","","","","","","",""
"","","","","","html-keyboard-response","52","925712","0.0-11.2-0.2-2.2-1.7","673e759016f888e8212c0c1f","6790928bebf0b969fc839b02","6798266021232ef321643b68","passed","","890","","","","","","","","","","","","","","j","yesOrNo_prac_noTimed","","","","5","","","close gt","NA","","","","",""
"","","","","","html-keyboard-response","53","927819","0.0-11.2-0.2-2.2-0.8","673e759016f888e8212c0c1f","6790928bebf0b969fc839b02","6798266021232ef321643b68","passed","","","","","","","","","","","","","","","","","ballFalling_prac","660","666","350","3","fallScene","false","","","","","","",""
"","","","","","html-keyboard-response","54","927914","0.0-11.2-0.2-2.2-1.8","673e759016f888e8212c0c1f","6790928bebf0b969fc839b02","6798266021232ef321643b68","passed","","91","","","","","","","","","","","","","","j","yesOrNo_prac_noTimed","","","","3","","","wrong direction","NA","","","","",""
"","","","","","instructions","55","931432","0.0-11.2-0.2-3.2","673e759016f888e8212c0c1f","6790928bebf0b969fc839b02","6798266021232ef321643b68","passed","[{""page_index"":0,""viewing_time"":2018},{""page_index"":1,""viewing_time"":1500}]","3518","","","","","","","","","","","","","","","","","","","","","","","","","","","",""
"","","","","","html-button-response","56","933766","0.0-11.2-0.2-4.2","673e759016f888e8212c0c1f","6790928bebf0b969fc839b02","6798266021232ef321643b68","passed","","1832","","","","","","","","","","","","","<p>To make sure you understood the task, we just have a <b>brief quiz</b> here.</p><p>If you need to review the instructions, click 'Previous'.</p><p>It's important to understand the task to do the study, so you have to pass the quiz to move to the study.</p>","1","","","","","","","","","","","","","",""
"","","","","","survey-multi-choice","57","937050","0.0-11.2-1.2-0.2","673e759016f888e8212c0c1f","6790928bebf0b969fc839b02","6798266021232ef321643b68","passed","","3283","","","","","","","","","","","","","","{""generalProcedure"":""Watch a video of a ball falling, some of it behind a gray screen. After each video, decide if the triangle is at the spot where the ball hit the triangle behind the screen. There is time limit for the response.""}","","","","","","","","","","[0]","","","",""
"","","","","","survey-multi-choice","58","941066","0.0-11.2-1.2-1.2","673e759016f888e8212c0c1f","6790928bebf0b969fc839b02","6798266021232ef321643b68","passed","","4014","","","","","","","","","","","","","","{""checkBallHitObstacle"":""I am not sure.""}","","","","","","","","","","[0]","","","",""
"","","","","","survey-multi-choice","59","947750","0.0-11.2-1.2-2.2","673e759016f888e8212c0c1f","6790928bebf0b969fc839b02","6798266021232ef321643b68","passed","","6683","","","","","","","","","","","","","","{""checkTriangleVisibility"":""No, the triangle is hidden behind the gray screen.""}","","","","","","","","","","[0]","","","",""
"","","","","","survey-multi-choice","60","1015686","0.0-11.2-1.2-3.2","673e759016f888e8212c0c1f","6790928bebf0b969fc839b02","6798266021232ef321643b68","passed","","67933","","","","","","","","","","","","","","{""checkTimedResponse"":""The trial will wait for your response.""}","","","","","","","","","","[0]","","","",""
"","","","","","survey-multi-choice","61","1019802","0.0-11.2-1.2-4.2","673e759016f888e8212c0c1f","6790928bebf0b969fc839b02","6798266021232ef321643b68","passed","","4115","","","","","","","","","","","","","","{""checkTimeBlockNotice"":""At the beginning of each block.""}","","","","","","","","","","[0]","","","",""
"","","","","","survey-multi-choice","62","1024552","0.0-11.2-1.2-5.2","673e759016f888e8212c0c1f","6790928bebf0b969fc839b02","6798266021232ef321643b68","passed","","4749","","","","","","","","","","","","","","{""checkTimeBlockSameness"":""No, the time limit changes for each trial within a block.""}","","","","","","","","","","[0]","","","",""
"","","","","","survey-multi-choice","63","1035136","0.0-11.2-1.2-6.2","673e759016f888e8212c0c1f","6790928bebf0b969fc839b02","6798266021232ef321643b68","passed","","10582","","","","","","","","","","","","","","{""checkTrianglePrecision"":""No. The proposed purple triangle is not in the correct position because it doesn't match the location of the white triangle exactly.""}","","","","","","","","","","[0]","","","",""
"","","","","","html-button-response","64","1037069","0.0-11.2-2.2-0.2","673e759016f888e8212c0c1f","6790928bebf0b969fc839b02","6798266021232ef321643b68","passed","","1931","","","","","","","","","","","","","<p>Oops! You did not pass the quiz.</p><p>You will now repeat the instructions and practice.</p>","0","","","","","","","","","","","failed","","",""
"","","","","","instructions","65","1043152","0.0-11.3-0.3-0.3","673e759016f888e8212c0c1f","6790928bebf0b969fc839b02","6798266021232ef321643b68","passed","[{""page_index"":0,""viewing_time"":2916},{""page_index"":1,""viewing_time"":484},{""page_index"":2,""viewing_time"":483},{""page_index"":3,""viewing_time"":2199}]","6082","","","","","","","","","","","","","","","","","","","","","","","","","","","",""
"","","","","","html-keyboard-response","66","1045572","0.0-11.3-0.3-1.3","673e759016f888e8212c0c1f","6790928bebf0b969fc839b02","6798266021232ef321643b68","passed","","1917","","","","","","","","","","","","","<br>Remember! After a ball falls, the screen will disappear, and you'll decide if the proposed position is where the hidden triangle was. <br>You will now practice this by watching a few videos and making decisions.<p>To respond:<br style=""margin-bottom: 5px; text-indent: -20px; padding-left: 20px;"">- Press <b style=""color: #12AD2B;"">J for Yes</b>, if you think the triangle is in the correct position.<br style=""margin-top: 0; text-indent: -20px; padding-left: 20px;"">- Press <b style=""color: orange;"">F for No</b>, if you think the triangle is not in the correct position.</p><p>In this practice round, there is no time limit. Focus on getting comfortable with the task first.<br>Press either J or F to begin your practice trials.</p><img src = ""YesOrNo_instruction.png"" style=""width: 65%;""></img>","j","","","","","","","","","","","","","",""
"","","","","","html-keyboard-response","67","1047687","0.0-11.3-0.3-2.3-0.9","673e759016f888e8212c0c1f","6790928bebf0b969fc839b02","6798266021232ef321643b68","passed","","","","","","","","","","","","","","","","","ballFalling_prac","660","666","350","3","fallScene","false","","","","","","",""
"","","","","","html-keyboard-response","68","1048353","0.0-11.3-0.3-2.3-1.9","673e759016f888e8212c0c1f","6790928bebf0b969fc839b02","6798266021232ef321643b68","passed","","662","","","","","","","","","","","","","","j","yesOrNo_prac_noTimed","","","","3","","","wrong direction","NA","","","","",""
"","","","","","html-keyboard-response","69","1049889","0.0-11.3-0.3-2.3-0.10","673e759016f888e8212c0c1f","6790928bebf0b969fc839b02","6798266021232ef321643b68","passed","","","","","","","","","","","","","","","","","ballFalling_prac","416","464","296","1","fallScene","false","","","","","","",""
"","","","","","html-keyboard-response","70","1051682","0.0-11.3-0.3-2.3-1.10","673e759016f888e8212c0c1f","6790928bebf0b969fc839b02","6798266021232ef321643b68","passed","","1790","","","","","","","","","","","","","","j","yesOrNo_prac_noTimed","","","","1","","","gt","NA","","","","",""
"","","","","","html-keyboard-response","71","1053255","0.0-11.3-0.3-2.3-0.11","673e759016f888e8212c0c1f","6790928bebf0b969fc839b02","6798266021232ef321643b68","passed","","","","","","","","","","","","","","","","","ballFalling_prac","441","414","302","5","fallScene","true","","","","","","",""
"","","","","","html-keyboard-response","72","1053620","0.0-11.3-0.3-2.3-1.11","673e759016f888e8212c0c1f","6790928bebf0b969fc839b02","6798266021232ef321643b68","passed","","362","","","","","","","","","","","","","","j","yesOrNo_prac_noTimed","","","","5","","","close gt","NA","","","","",""
"","","","","","instructions","73","1073236","0.0-11.3-0.3-3.3","673e759016f888e8212c0c1f","6790928bebf0b969fc839b02","6798266021232ef321643b68","passed","[{""page_index"":0,""viewing_time"":2698},{""page_index"":1,""viewing_time"":16917}]","19615","","","","","","","","","","","","","","","","","","","","","","","","","","","",""
"","","","","","html-button-response","74","1076903","0.0-11.3-0.3-4.3","673e759016f888e8212c0c1f","6790928bebf0b969fc839b02","6798266021232ef321643b68","passed","","3165","","","","","","","","","","","","","<p>To make sure you understood the task, we just have a <b>brief quiz</b> here.</p><p>If you need to review the instructions, click 'Previous'.</p><p>It's important to understand the task to do the study, so you have to pass the quiz to move to the study.</p>","1","","","","","","","","","","","","","",""
"","","","","","survey-multi-choice","75","1080203","0.0-11.3-1.3-0.3","673e759016f888e8212c0c1f","6790928bebf0b969fc839b02","6798266021232ef321643b68","passed","","3299","","","","","","","","","","","","","","{""generalProcedure"":""Watch a video of a ball falling, some of it behind a gray screen. After each video, decide if the triangle is at the spot where the ball hit the triangle behind the screen. There is time limit for the response.""}","","","","","","","","","","[0]","","","",""
"","","","","","survey-multi-choice","76","1085070","0.0-11.3-1.3-1.3","673e759016f888e8212c0c1f","6790928bebf0b969fc839b02","6798266021232ef321643b68","passed","","4865","","","","","","","","","","","","","","{""checkBallHitObstacle"":""No.""}","","","","","","","","","","[0]","","","",""
"","","","","","survey-multi-choice","77","1088287","0.0-11.3-1.3-2.3","673e759016f888e8212c0c1f","6790928bebf0b969fc839b02","6798266021232ef321643b68","passed","","3216","","","","","","","","","","","","","","{""checkTriangleVisibility"":""No, the triangle is hidden behind the gray screen.""}","","","","","","","","","","[0]","","","",""
"","","","","","survey-multi-choice","78","1097503","0.0-11.3-1.3-3.3","673e759016f888e8212c0c1f","6790928bebf0b969fc839b02","6798266021232ef321643b68","passed","","9215","","","","","","","","","","","","","","{""checkTimedResponse"":""Your response will not be recorded, and the trial will move to the next one.""}","","","","","","","","","","[0]","","","",""
"","","","","","survey-multi-choice","79","1138155","0.0-11.3-1.3-4.3","673e759016f888e8212c0c1f","6790928bebf0b969fc839b02","6798266021232ef321643b68","passed","","40649","","","","","","","","","","","","","","{""checkTimeBlockNotice"":""At the beginning of each block.""}","","","","","","","","","","[0]","","","",""
"","","","","","survey-multi-choice","80","1146055","0.0-11.3-1.3-5.3","673e759016f888e8212c0c1f","6790928bebf0b969fc839b02","6798266021232ef321643b68","passed","","7899","","","","","","","","","","","","","","{""checkTimeBlockSameness"":""Yes, the time limit is the same for all trials within a block.""}","","","","","","","","","","[0]","","","",""
"","","","","","survey-multi-choice","81","1195423","0.0-11.3-1.3-6.3","673e759016f888e8212c0c1f","6790928bebf0b969fc839b02","6798266021232ef321643b68","passed","","49365","","","","","","","","","","","","","","{""checkTrianglePrecision"":""No. The proposed purple triangle is not in the correct position because it doesn't match the location of the white triangle exactly.""}","","","","","","","","","","[0]","","","",""
"","","","","","html-button-response","82","1199839","0.0-11.3-2.3-0.3","673e759016f888e8212c0c1f","6790928bebf0b969fc839b02","6798266021232ef321643b68","passed","","4415","","","","","","","","","","","","","<p>Oops! You did not pass the quiz.</p><p>You will now repeat the instructions and practice.</p>","0","","","","","","","","","","","failed","","",""
"","","","","","instructions","83","1211123","0.0-11.4-0.4-0.4","673e759016f888e8212c0c1f","6790928bebf0b969fc839b02","6798266021232ef321643b68","passed","[{""page_index"":0,""viewing_time"":5732},{""page_index"":1,""viewing_time"":2967},{""page_index"":2,""viewing_time"":1833},{""page_index"":3,""viewing_time"":750}]","11283","","","","","","","","","","","","","","","","","","","","","","","","","","","",""
"","","","","","html-keyboard-response","84","1218624","0.0-11.4-0.4-1.4","673e759016f888e8212c0c1f","6790928bebf0b969fc839b02","6798266021232ef321643b68","passed","","6997","","","","","","","","","","","","","<br>Remember! After a ball falls, the screen will disappear, and you'll decide if the proposed position is where the hidden triangle was. <br>You will now practice this by watching a few videos and making decisions.<p>To respond:<br style=""margin-bottom: 5px; text-indent: -20px; padding-left: 20px;"">- Press <b style=""color: #12AD2B;"">J for Yes</b>, if you think the triangle is in the correct position.<br style=""margin-top: 0; text-indent: -20px; padding-left: 20px;"">- Press <b style=""color: orange;"">F for No</b>, if you think the triangle is not in the correct position.</p><p>In this practice round, there is no time limit. Focus on getting comfortable with the task first.<br>Press either J or F to begin your practice trials.</p><img src = ""YesOrNo_instruction.png"" style=""width: 65%;""></img>","j","","","","","","","","","","","","","",""
"","","","","","html-keyboard-response","85","1220191","0.0-11.4-0.4-2.4-0.12","673e759016f888e8212c0c1f","6790928bebf0b969fc839b02","6798266021232ef321643b68","passed","","","","","","","","","","","","","","","","","ballFalling_prac","441","414","302","5","fallScene","true","","","","","","",""
"","","","","","html-keyboard-response","86","1222020","0.0-11.4-0.4-2.4-1.12","673e759016f888e8212c0c1f","6790928bebf0b969fc839b02","6798266021232ef321643b68","passed","","1827","","","","","","","","","","","","","","j","yesOrNo_prac_noTimed","","","","5","","","close gt","NA","","","","",""
"","","","","","html-keyboard-response","87","1224125","0.0-11.4-0.4-2.4-0.13","673e759016f888e8212c0c1f","6790928bebf0b969fc839b02","6798266021232ef321643b68","passed","","","","","","","","","","","","","","","","","ballFalling_prac","660","666","350","3","fallScene","false","","","","","","",""
"","","","","","html-keyboard-response","88","1228022","0.0-11.4-0.4-2.4-1.13","673e759016f888e8212c0c1f","6790928bebf0b969fc839b02","6798266021232ef321643b68","passed","","3893","","","","","","","","","","","","","","f","yesOrNo_prac_noTimed","","","","3","","","wrong direction","NA","","","","",""
"","","","","","html-keyboard-response","89","1229559","0.0-11.4-0.4-2.4-0.14","673e759016f888e8212c0c1f","6790928bebf0b969fc839b02","6798266021232ef321643b68","passed","","","","","","","","","","","","","","","","","ballFalling_prac","416","464","296","1","fallScene","false","","","","","","",""
"","","","","","html-keyboard-response","90","1231166","0.0-11.4-0.4-2.4-1.14","673e759016f888e8212c0c1f","6790928bebf0b969fc839b02","6798266021232ef321643b68","passed","","1604","","","","","","","","","","","","","","j","yesOrNo_prac_noTimed","","","","1","","","gt","NA","","","","",""
"","","","","","instructions","91","1235723","0.0-11.4-0.4-3.4","673e759016f888e8212c0c1f","6790928bebf0b969fc839b02","6798266021232ef321643b68","passed","[{""page_index"":0,""viewing_time"":3172},{""page_index"":1,""viewing_time"":1384}]","4556","","","","","","","","","","","","","","","","","","","","","","","","","","","",""
"","","","","","html-button-response","92","1240057","0.0-11.4-0.4-4.4","673e759016f888e8212c0c1f","6790928bebf0b969fc839b02","6798266021232ef321643b68","passed","","3831","","","","","","","","","","","","","<p>To make sure you understood the task, we just have a <b>brief quiz</b> here.</p><p>If you need to review the instructions, click 'Previous'.</p><p>It's important to understand the task to do the study, so you have to pass the quiz to move to the study.</p>","1","","","","","","","","","","","","","",""
"","","","","","survey-multi-choice","93","1244008","0.0-11.4-1.4-0.4","673e759016f888e8212c0c1f","6790928bebf0b969fc839b02","6798266021232ef321643b68","passed","","3949","","","","","","","","","","","","","","{""generalProcedure"":""Watch a video of a ball falling, some of it behind a gray screen. After each video, decide if the triangle is at the spot where the ball hit the triangle behind the screen. There is time limit for the response.""}","","","","","","","","","","[0]","","","",""
"","","","","","survey-multi-choice","94","1248207","0.0-11.4-1.4-1.4","673e759016f888e8212c0c1f","6790928bebf0b969fc839b02","6798266021232ef321643b68","passed","","4198","","","","","","","","","","","","","","{""checkBallHitObstacle"":""No.""}","","","","","","","","","","[0]","","","",""
"","","","","","survey-multi-choice","95","1253091","0.0-11.4-1.4-2.4","673e759016f888e8212c0c1f","6790928bebf0b969fc839b02","6798266021232ef321643b68","passed","","4882","","","","","","","","","","","","","","{""checkTriangleVisibility"":""No, the triangle is hidden behind the gray screen.""}","","","","","","","","","","[0]","","","",""
"","","","","","survey-multi-choice","96","1260324","0.0-11.4-1.4-3.4","673e759016f888e8212c0c1f","6790928bebf0b969fc839b02","6798266021232ef321643b68","passed","","7232","","","","","","","","","","","","","","{""checkTimedResponse"":""Your response will not be recorded, and the trial will move to the next one.""}","","","","","","","","","","[0]","","","",""
"","","","","","survey-multi-choice","97","1269508","0.0-11.4-1.4-4.4","673e759016f888e8212c0c1f","6790928bebf0b969fc839b02","6798266021232ef321643b68","passed","","9182","","","","","","","","","","","","","","{""checkTimeBlockNotice"":""At the beginning of each block.""}","","","","","","","","","","[0]","","","",""
"","","","","","survey-multi-choice","98","1307909","0.0-11.4-1.4-5.4","673e759016f888e8212c0c1f","6790928bebf0b969fc839b02","6798266021232ef321643b68","passed","","38399","","","","","","","","","","","","","","{""checkTimeBlockSameness"":""Yes, the time limit is the same for all trials within a block.""}","","","","","","","","","","[0]","","","",""
"","","","","","survey-multi-choice","99","1311225","0.0-11.4-1.4-6.4","673e759016f888e8212c0c1f","6790928bebf0b969fc839b02","6798266021232ef321643b68","passed","","3315","","","","","","","","","","","","","","{""checkTrianglePrecision"":""Yes. The proposed purple triangle is very close to the correct position, so I should choose 'Yes.'""}","","","","","","","","","","[0]","","","",""
"","","","","","html-button-response","100","1313275","0.0-11.4-2.4-0.4","673e759016f888e8212c0c1f","6790928bebf0b969fc839b02","6798266021232ef321643b68","passed","","2048","","","","","","","","","","","","","<p>Oops! You did not pass the quiz.</p><p>You will now repeat the instructions and practice.</p>","0","","","","","","","","","","","failed","","",""
"","","","","","instructions","101","1344614","0.0-11.5-0.5-0.5","673e759016f888e8212c0c1f","6790928bebf0b969fc839b02","6798266021232ef321643b68","passed","[{""page_index"":0,""viewing_time"":3333},{""page_index"":1,""viewing_time"":3266},{""page_index"":2,""viewing_time"":2084},{""page_index"":3,""viewing_time"":1751},{""page_index"":2,""viewing_time"":1283},{""page_index"":1,""viewing_time"":2483},{""page_index"":0,""viewing_time"":8500},{""page_index"":1,""viewing_time"":2134},{""page_index"":2,""viewing_time"":1533},{""page_index"":3,""viewing_time"":5000}]","31366","","","","","","","","","","","","","","","","","","","","","","","","","","","",""
"","","","","","html-keyboard-response","102","1349521","0.0-11.5-0.5-1.5","673e759016f888e8212c0c1f","6790928bebf0b969fc839b02","6798266021232ef321643b68","passed","","4407","","","","","","","","","","","","","<br>Remember! After a ball falls, the screen will disappear, and you'll decide if the proposed position is where the hidden triangle was. <br>You will now practice this by watching a few videos and making decisions.<p>To respond:<br style=""margin-bottom: 5px; text-indent: -20px; padding-left: 20px;"">- Press <b style=""color: #12AD2B;"">J for Yes</b>, if you think the triangle is in the correct position.<br style=""margin-top: 0; text-indent: -20px; padding-left: 20px;"">- Press <b style=""color: orange;"">F for No</b>, if you think the triangle is not in the correct position.</p><p>In this practice round, there is no time limit. Focus on getting comfortable with the task first.<br>Press either J or F to begin your practice trials.</p><img src = ""YesOrNo_instruction.png"" style=""width: 65%;""></img>","j","","","","","","","","","","","","","",""
"","","","","","html-keyboard-response","103","1351631","0.0-11.5-0.5-2.5-0.15","673e759016f888e8212c0c1f","6790928bebf0b969fc839b02","6798266021232ef321643b68","passed","","","","","","","","","","","","","","","","","ballFalling_prac","660","666","350","3","fallScene","false","","","","","","",""
"","","","","","html-keyboard-response","104","1358264","0.0-11.5-0.5-2.5-1.15","673e759016f888e8212c0c1f","6790928bebf0b969fc839b02","6798266021232ef321643b68","passed","","6629","","","","","","","","","","","","","","f","yesOrNo_prac_noTimed","","","","3","","","wrong direction","NA","","","","",""
"","","","","","html-keyboard-response","105","1359863","0.0-11.5-0.5-2.5-0.16","673e759016f888e8212c0c1f","6790928bebf0b969fc839b02","6798266021232ef321643b68","passed","","","","","","","","","","","","","","","","","ballFalling_prac","441","414","302","5","fallScene","true","","","","","","",""
"","","","","","html-keyboard-response","106","1360909","0.0-11.5-0.5-2.5-1.16","673e759016f888e8212c0c1f","6790928bebf0b969fc839b02","6798266021232ef321643b68","passed","","1042","","","","","","","","","","","","","","j","yesOrNo_prac_noTimed","","","","5","","","close gt","NA","","","","",""
"","","","","","html-keyboard-response","107","1362462","0.0-11.5-0.5-2.5-0.17","673e759016f888e8212c0c1f","6790928bebf0b969fc839b02","6798266021232ef321643b68","passed","","","","","","","","","","","","","","","","","ballFalling_prac","416","464","296","1","fallScene","false","","","","","","",""
"","","","","","html-keyboard-response","108","1367246","0.0-11.5-0.5-2.5-1.17","673e759016f888e8212c0c1f","6790928bebf0b969fc839b02","6798266021232ef321643b68","passed","","4782","","","","","","","","","","","","","","j","yesOrNo_prac_noTimed","","","","1","","","gt","NA","","","","",""
"","","","","","instructions","109","1403442","0.0-11.5-0.5-3.5","673e759016f888e8212c0c1f","6790928bebf0b969fc839b02","6798266021232ef321643b68","passed","[{""page_index"":0,""viewing_time"":20529},{""page_index"":1,""viewing_time"":15667}]","36196","","","","","","","","","","","","","","","","","","","","","","","","","","","",""
"","","","","","html-button-response","110","1406342","0.0-11.5-0.5-4.5","673e759016f888e8212c0c1f","6790928bebf0b969fc839b02","6798266021232ef321643b68","passed","","2397","","","","","","","","","","","","","<p>To make sure you understood the task, we just have a <b>brief quiz</b> here.</p><p>If you need to review the instructions, click 'Previous'.</p><p>It's important to understand the task to do the study, so you have to pass the quiz to move to the study.</p>","1","","","","","","","","","","","","","",""
"","","","","","survey-multi-choice","111","1430176","0.0-11.5-1.5-0.5","673e759016f888e8212c0c1f","6790928bebf0b969fc839b02","6798266021232ef321643b68","passed","","23832","","","","","","","","","","","","","","{""generalProcedure"":""Watch a video of a ball falling, some of it behind a gray screen. After each video, decide if the triangle is at the spot where the ball hit the triangle behind the screen. There is time limit for the response.""}","","","","","","","","","","[0]","","","",""
"","","","","","survey-multi-choice","112","1446726","0.0-11.5-1.5-1.5","673e759016f888e8212c0c1f","6790928bebf0b969fc839b02","6798266021232ef321643b68","passed","","16548","","","","","","","","","","","","","","{""checkBallHitObstacle"":""Yes.""}","","","","","","","","","","[0]","","","",""
"","","","","","survey-multi-choice","113","1451759","0.0-11.5-1.5-2.5","673e759016f888e8212c0c1f","6790928bebf0b969fc839b02","6798266021232ef321643b68","passed","","5031","","","","","","","","","","","","","","{""checkTriangleVisibility"":""No, the triangle is hidden behind the gray screen.""}","","","","","","","","","","[0]","","","",""
"","","","","","survey-multi-choice","114","1464576","0.0-11.5-1.5-3.5","673e759016f888e8212c0c1f","6790928bebf0b969fc839b02","6798266021232ef321643b68","passed","","12816","","","","","","","","","","","","","","{""checkTimedResponse"":""Your response will not be recorded, and the trial will move to the next one.""}","","","","","","","","","","[0]","","","",""
"","","","","","survey-multi-choice","115","1486193","0.0-11.5-1.5-4.5","673e759016f888e8212c0c1f","6790928bebf0b969fc839b02","6798266021232ef321643b68","passed","","21615","","","","","","","","","","","","","","{""checkTimeBlockNotice"":""At the beginning of each block.""}","","","","","","","","","","[0]","","","",""
"","","","","","survey-multi-choice","116","1499743","0.0-11.5-1.5-5.5","673e759016f888e8212c0c1f","6790928bebf0b969fc839b02","6798266021232ef321643b68","passed","","13549","","","","","","","","","","","","","","{""checkTimeBlockSameness"":""Yes, the time limit is the same for all trials within a block.""}","","","","","","","","","","[0]","","","",""
"","","","","","survey-multi-choice","117","1506760","0.0-11.5-1.5-6.5","673e759016f888e8212c0c1f","6790928bebf0b969fc839b02","6798266021232ef321643b68","passed","","7015","","","","","","","","","","","","","","{""checkTrianglePrecision"":""No. The proposed purple triangle is not in the correct position because it doesn't match the location of the white triangle exactly.""}","","","","","","","","","","[0]","","","",""
"","","","","","instructions","118","1899281","0.0-12.0","673e759016f888e8212c0c1f","6790928bebf0b969fc839b02","6798266021232ef321643b68","passed","[{""page_index"":0,""viewing_time"":361382},{""page_index"":1,""viewing_time"":11200},{""page_index"":2,""viewing_time"":10866},{""page_index"":3,""viewing_time"":9067}]","392515","","","","","","","","","","","","","","","","","","","","","","","","","","","",""
"","","","","","instructions","119","1910864","0.0-13.0-0.0","673e759016f888e8212c0c1f","6790928bebf0b969fc839b02","6798266021232ef321643b68","passed","[{""page_index"":0,""viewing_time"":11582}]","11582","","","","","","","","","","","","","","","","","","","","","","","","","","","",""
"","","","","","html-keyboard-response","120","1917017","0.0-13.0-1.0","673e759016f888e8212c0c1f","6790928bebf0b969fc839b02","6798266021232ef321643b68","passed","","6152","","","","","","","","","","","","","<p><span style=""font-size:40px;"">Practice BLOCK 1</span></p><p><span style=""font-size:25px;"">You have <b style=""color: #FF644F;""><strong>3 second(s)</strong></b> to respond to the following trials.</span><br></p><p id=""blinking-text"" style=""font-weight; animation: blink 2s infinite;"">Press Space to continue</p><style>
                    @keyframes blink {
                        50% {
                            opacity: 0;
                        }
                    }
                </style>"," ","","","","","","","","","","","","","",""
"","","","","","html-keyboard-response","121","1918598","0.0-13.0-2.0-0.0","673e759016f888e8212c0c1f","6790928bebf0b969fc839b02","6798266021232ef321643b68","passed","","","","","","","","","","","","","","","","","ballFalling_prac","660","610","263","4","fallScene","false","","","","","","",""
"","","","","","html-keyboard-response","122","1921605","0.0-13.0-2.0-1.0","673e759016f888e8212c0c1f","6790928bebf0b969fc839b02","6798266021232ef321643b68","passed","","4","","","","","","","","","","","","","","j","yesOrNo_prac","","","","4","","","gt","3000","","","","",""
"","","","","","html-keyboard-response","123","1923166","0.0-13.0-2.0-0.1","673e759016f888e8212c0c1f","6790928bebf0b969fc839b02","6798266021232ef321643b68","passed","","","","","","","","","","","","","","","","","ballFalling_prac","584","536","296","1","fallScene","true","","","","","","",""
"","","","","","html-keyboard-response","124","1926170","0.0-13.0-2.0-1.1","673e759016f888e8212c0c1f","6790928bebf0b969fc839b02","6798266021232ef321643b68","passed","","1135","","","","","","","","","","","","","","f","yesOrNo_prac","","","","1","","","close gt","3000","","","","",""
"","","","","","html-keyboard-response","125","1927733","0.0-13.0-2.0-0.2","673e759016f888e8212c0c1f","6790928bebf0b969fc839b02","6798266021232ef321643b68","passed","","","","","","","","","","","","","","","","","ballFalling_prac","416","464","296","1","fallScene","false","","","","","","",""
"","","","","","html-keyboard-response","126","1930737","0.0-13.0-2.0-1.2","673e759016f888e8212c0c1f","6790928bebf0b969fc839b02","6798266021232ef321643b68","passed","","1570","","","","","","","","","","","","","","j","yesOrNo_prac","","","","1","","","far gt","3000","","","","",""
"","","","","","html-keyboard-response","127","1932912","0.0-13.0-3.0","673e759016f888e8212c0c1f","6790928bebf0b969fc839b02","6798266021232ef321643b68","passed","","2174","","","","","","","","","","","","","<p><span style=""font-size:40px;"">Practice BLOCK 2</span></p><p><span style=""font-size:25px;"">You have <b style=""color: #FF644F;""><strong>1 second(s)</strong></b> to respond to the following trials.</span><br></p><p id=""blinking-text"" style=""font-weight; animation: blink 2s infinite;"">Press Space to continue</p><style>
                    @keyframes blink {
                        50% {
                            opacity: 0;
                        }
                    }
                </style>"," ","","","","","","","","","","","","","",""
"","","","","","html-keyboard-response","128","1934498","0.0-13.0-4.0-0.0","673e759016f888e8212c0c1f","6790928bebf0b969fc839b02","6798266021232ef321643b68","passed","","","","","","","","","","","","","","","","","ballFalling_prac","660","610","263","4","fallScene","false","","","","","","",""
"","","","","","html-keyboard-response","129","1935503","0.0-13.0-4.0-1.0","673e759016f888e8212c0c1f","6790928bebf0b969fc839b02","6798266021232ef321643b68","passed","","null","","","","","","","","","","","","","","null","yesOrNo_prac","","","","4","","","far gt","1000","","","","",""
"","","","","","html-keyboard-response","130","1937067","0.0-13.0-4.0-0.1","673e759016f888e8212c0c1f","6790928bebf0b969fc839b02","6798266021232ef321643b68","passed","","","","","","","","","","","","","","","","","ballFalling_prac","441","500","317","6","fallScene","true","","","","","","",""
"","","","","","html-keyboard-response","131","1938070","0.0-13.0-4.0-1.1","673e759016f888e8212c0c1f","6790928bebf0b969fc839b02","6798266021232ef321643b68","passed","","879","","","","","","","","","","","","","","j","yesOrNo_prac","","","","6","","","gt","1000","","","","",""
"","","","","","html-keyboard-response","132","1940198","0.0-13.0-4.0-0.2","673e759016f888e8212c0c1f","6790928bebf0b969fc839b02","6798266021232ef321643b68","passed","","","","","","","","","","","","","","","","","ballFalling_prac","340","334","350","3","fallScene","true","","","","","","",""
"","","","","","html-keyboard-response","133","1941202","0.0-13.0-4.0-1.2","673e759016f888e8212c0c1f","6790928bebf0b969fc839b02","6798266021232ef321643b68","passed","","null","","","","","","","","","","","","","","null","yesOrNo_prac","","","","3","","","close gt","1000","","","","",""
"","","","","","instructions","134","1957597","0.0-13.0-5.0","673e759016f888e8212c0c1f","6790928bebf0b969fc839b02","6798266021232ef321643b68","passed","[{""page_index"":0,""viewing_time"":16394}]","16395","","","","","","","","","","","","","","","","","","","","","","","","","","","",""
"","","","","","html-keyboard-response","135","1960337","0.0-13.0-6.0","673e759016f888e8212c0c1f","6790928bebf0b969fc839b02","6798266021232ef321643b68","passed","","2739","","","","","","","","","","","","","<p><span style=""font-size:40px;"">Practice Test BLOCK 1</span></p><p><span style=""font-size:25px;"">You have <b style=""color: #FF644F;""><strong>1 second(s)</strong></b> to respond to the following trials.</span><br></p><p id=""blinking-text"" style=""font-weight; animation: blink 2s infinite;"">Press Space to continue</p><style>
                    @keyframes blink {
                        50% {
                            opacity: 0;
                        }
                    }
                </style>"," ","","","","","","","","","","","","","",""
"","","","","","html-keyboard-response","136","1961933","0.0-13.0-7.0-0.0","673e759016f888e8212c0c1f","6790928bebf0b969fc839b02","6798266021232ef321643b68","passed","","","","","","","","","","","","","","","","","ballFalling_prac","340","390","263","4","fallScene","true","","","","","","",""
"","","","","","html-keyboard-response","137","1962938","0.0-13.0-7.0-1.0","673e759016f888e8212c0c1f","6790928bebf0b969fc839b02","6798266021232ef321643b68","passed","","818","","","","","","","","","","","","","","j","yesOrNo_prac","","","","4","","","far gt","1000","","","","",""
"","","","","","html-keyboard-response","138","1964499","0.0-13.0-7.0-0.1","673e759016f888e8212c0c1f","6790928bebf0b969fc839b02","6798266021232ef321643b68","passed","","","","","","","","","","","","","","","","","ballFalling_prac","441","500","317","6","fallScene","true","","","","","","",""
"","","","","","html-keyboard-response","139","1965503","0.0-13.0-7.0-1.1","673e759016f888e8212c0c1f","6790928bebf0b969fc839b02","6798266021232ef321643b68","passed","","729","","","","","","","","","","","","","","f","yesOrNo_prac","","","","6","","","close gt","1000","","","","",""
"","","","","","html-keyboard-response","140","1967109","0.0-13.0-7.0-0.2","673e759016f888e8212c0c1f","6790928bebf0b969fc839b02","6798266021232ef321643b68","passed","","","","","","","","","","","","","","","","","ballFalling_prac","559","586","302","5","fallScene","false","","","","","","",""
"","","","","","html-keyboard-response","141","1968114","0.0-13.0-7.0-1.2","673e759016f888e8212c0c1f","6790928bebf0b969fc839b02","6798266021232ef321643b68","passed","","780","","","","","","","","","","","","","","j","yesOrNo_prac","","","","5","","","gt","1000","","","","",""
"","","","","","html-keyboard-response","142","1969088","0.0-13.0-8.0","673e759016f888e8212c0c1f","6790928bebf0b969fc839b02","6798266021232ef321643b68","passed","","974","","","","","","","","","","","","","<p><span style=""font-size:40px;"">Practice Test BLOCK 2</span></p><p><span style=""font-size:25px;"">You have <b style=""color: #FF644F;""><strong>3 second(s)</strong></b> to respond to the following trials.</span><br></p><p id=""blinking-text"" style=""font-weight; animation: blink 2s infinite;"">Press Space to continue</p><style>
                    @keyframes blink {
                        50% {
                            opacity: 0;
                        }
                    }
                </style>"," ","","","","","","","","","","","","","",""
"","","","","","html-keyboard-response","143","1970666","0.0-13.0-9.0-0.0","673e759016f888e8212c0c1f","6790928bebf0b969fc839b02","6798266021232ef321643b68","passed","","","","","","","","","","","","","","","","","ballFalling_prac","559","586","302","5","fallScene","false","","","","","","",""
"","","","","","html-keyboard-response","144","1973670","0.0-13.0-9.0-1.0","673e759016f888e8212c0c1f","6790928bebf0b969fc839b02","6798266021232ef321643b68","passed","","893","","","","","","","","","","","","","","f","yesOrNo_prac","","","","5","","","far gt","3000","","","","",""
"","","","","","html-keyboard-response","145","1975266","0.0-13.0-9.0-0.1","673e759016f888e8212c0c1f","6790928bebf0b969fc839b02","6798266021232ef321643b68","passed","","","","","","","","","","","","","","","","","ballFalling_prac","416","365","249","2","fallScene","false","","","","","","",""
"","","","","","html-keyboard-response","146","1978270","0.0-13.0-9.0-1.1","673e759016f888e8212c0c1f","6790928bebf0b969fc839b02","6798266021232ef321643b68","passed","","1271","","","","","","","","","","","","","","j","yesOrNo_prac","","","","2","","","gt","3000","","","","",""
"","","","","","html-keyboard-response","147","1979866","0.0-13.0-9.0-0.2","673e759016f888e8212c0c1f","6790928bebf0b969fc839b02","6798266021232ef321643b68","passed","","","","","","","","","","","","","","","","","ballFalling_prac","340","390","263","4","fallScene","true","","","","","","",""
"","","","","","html-keyboard-response","148","1982870","0.0-13.0-9.0-1.2","673e759016f888e8212c0c1f","6790928bebf0b969fc839b02","6798266021232ef321643b68","passed","","1091","","","","","","","","","","","","","","j","yesOrNo_prac","","","","4","","","close gt","3000","","","","",""
"","","","","","instructions","149","2011065","0.0-14.0","673e759016f888e8212c0c1f","6790928bebf0b969fc839b02","6798266021232ef321643b68","passed","[{""page_index"":0,""viewing_time"":28193}]","28193","","","","","","","","","","","","","","","","","","","","","","","","","","","",""
"","","","","","html-keyboard-response","150","2013677","0.0-15.0","673e759016f888e8212c0c1f","6790928bebf0b969fc839b02","6798266021232ef321643b68","passed","","2611","","","","","","","","","","","","","<p><span style=""font-size:40px;"">BLOCK 1</span></p><p><span style=""font-size:25px;"">You have <b style=""color: #FF644F;""><strong>1 second(s)</strong></b> to respond to the following trials.</span><br></p><p></p> <!-- Blank line -->
                <p id=""blinking-text"" style=""font-weight; animation: blink 2s infinite;"">Press Space to continue</p>
                <style>
                    @keyframes blink {
                        50% {
                            opacity: 0;
                        }
                    }
                </style></p>"," ","","","","","","","","","","","","","",""
"","","","","","html-keyboard-response","151","2015168","0.0-16.0-0.0","673e759016f888e8212c0c1f","6790928bebf0b969fc839b02","6798266021232ef321643b68","passed","","","","","","","","","","","","","","","","","ballFalling","604.4000000000001","667.6211431702998","201.78","9","fallScene","false","","","","","1","",""
"","","","","","html-keyboard-response","152","2016176","0.0-16.0-1.0","673e759016f888e8212c0c1f","6790928bebf0b969fc839b02","6798266021232ef321643b68","passed","","null","","","","","","","","","","","","","","null","yesOrNo","","","","9","","","gt","1000","","","1","667.6211431702998","201.78"
"","","","","","html-keyboard-response","153","2017733","0.0-16.0-0.1","673e759016f888e8212c0c1f","6790928bebf0b969fc839b02","6798266021232ef321643b68","passed","","","","","","","","","","","","","","","","","ballFalling","500","453.67114317029973","210.33","5","fallScene","true","","","","","2","",""
"","","","","","html-keyboard-response","154","2018738","0.0-16.0-1.1","673e759016f888e8212c0c1f","6790928bebf0b969fc839b02","6798266021232ef321643b68","passed","","705","","","","","","","","","","","","","","j","yesOrNo","","","","5","","","lp","1000","","","2","499","151"
"","","","","","html-keyboard-response","155","2020533","0.0-16.0-0.2","673e759016f888e8212c0c1f","6790928bebf0b969fc839b02","6798266021232ef321643b68","passed","","","","","","","","","","","","","","","","","ballFalling","322.3","308.07114317029976","253.89","2","fallScene","false","","","","","3","",""
"","","","","","html-keyboard-response","156","2021538","0.0-16.0-1.2","673e759016f888e8212c0c1f","6790928bebf0b969fc839b02","6798266021232ef321643b68","passed","","778","","","","","","","","","","","","","","f","yesOrNo","","","","2","","","lp","1000","","","3","321.3","151"
"","","","","","html-keyboard-response","157","2023567","0.0-16.0-0.3","673e759016f888e8212c0c1f","6790928bebf0b969fc839b02","6798266021232ef321643b68","passed","","","","","","","","","","","","","","","","","ballFalling","604.4000000000001","596.8711431702998","394.5","10","fallScene","false","","","","","4","",""
"","","","","","html-keyboard-response","158","2024570","0.0-16.0-1.3","673e759016f888e8212c0c1f","6790928bebf0b969fc839b02","6798266021232ef321643b68","passed","","847","","","","","","","","","","","","","","j","yesOrNo","","","","10","","","gt","1000","","","4","596.8711431702998","394.5"
"","","","","","html-keyboard-response","159","2026134","0.0-16.0-0.4","673e759016f888e8212c0c1f","6790928bebf0b969fc839b02","6798266021232ef321643b68","passed","","","","","","","","","","","","","","","","","ballFalling","604.4000000000001","650.0211431702996","404.58000000000004","11","fallScene","true","","","","","5","",""
"","","","","","html-keyboard-response","160","2027137","0.0-16.0-1.4","673e759016f888e8212c0c1f","6790928bebf0b969fc839b02","6798266021232ef321643b68","passed","","null","","","","","","","","","","","","","","null","yesOrNo","","","","11","","","mid","1000","","","5","605.4000000000001","300"
"","","","","","html-keyboard-response","161","2028700","0.0-16.0-0.5","673e759016f888e8212c0c1f","6790928bebf0b969fc839b02","6798266021232ef321643b68","passed","","","","","","","","","","","","","","","","","ballFalling","604.4000000000001","650.0211431702996","404.58000000000004","11","fallScene","true","","","","","6","",""
"","","","","","html-keyboard-response","162","2029705","0.0-16.0-1.5","673e759016f888e8212c0c1f","6790928bebf0b969fc839b02","6798266021232ef321643b68","passed","","558","","","","","","","","","","","","","","j","yesOrNo","","","","11","","","gt","1000","","","6","650.0211431702996","404.58"
"","","","","","html-keyboard-response","163","2031200","0.0-16.0-0.6","673e759016f888e8212c0c1f","6790928bebf0b969fc839b02","6798266021232ef321643b68","passed","","","","","","","","","","","","","","","","","ballFalling","604.4000000000001","667.6211431702998","201.78","9","fallScene","true","","","","","7","",""
"","","","","","html-keyboard-response","164","2032204","0.0-16.0-1.6","673e759016f888e8212c0c1f","6790928bebf0b969fc839b02","6798266021232ef321643b68","passed","","845","","","","","","","","","","","","","","f","yesOrNo","","","","9","","","lp","1000","","","7","605.4000000000001","151"
"","","","","","html-keyboard-response","165","2034234","0.0-16.0-0.7","673e759016f888e8212c0c1f","6790928bebf0b969fc839b02","6798266021232ef321643b68","passed","","","","","","","","","","","","","","","","","ballFalling","500","510.8711431702997","369.03","8","fallScene","false","","","","","8","",""
"","","","","","html-keyboard-response","166","2035238","0.0-16.0-1.7","673e759016f888e8212c0c1f","6790928bebf0b969fc839b02","6798266021232ef321643b68","passed","","876","","","","","","","","","","","","","","j","yesOrNo","","","","8","","","mid","1000","","","8","501","300"
"","","","","","html-keyboard-response","167","2037267","0.0-16.0-0.8","673e759016f888e8212c0c1f","6790928bebf0b969fc839b02","6798266021232ef321643b68","passed","","","","","","","","","","","","","","","","","ballFalling","500","510.8711431702997","369.03","8","fallScene","false","","","","","9","",""
"","","","","","html-keyboard-response","168","2038271","0.0-16.0-1.8","673e759016f888e8212c0c1f","6790928bebf0b969fc839b02","6798266021232ef321643b68","passed","","872","","","","","","","","","","","","","","f","yesOrNo","","","","8","","","lp","1000","","","9","501","151"
"","","","","","html-keyboard-response","169","2039767","0.0-16.0-0.9","673e759016f888e8212c0c1f","6790928bebf0b969fc839b02","6798266021232ef321643b68","passed","","","","","","","","","","","","","","","","","ballFalling","604.4000000000001","667.6211431702998","201.78","9","fallScene","false","","","","","10","",""
"","","","","","html-keyboard-response","170","2040772","0.0-16.0-1.9","673e759016f888e8212c0c1f","6790928bebf0b969fc839b02","6798266021232ef321643b68","passed","","592","","","","","","","","","","","","","","j","yesOrNo","","","","9","","","mid","1000","","","10","605.4000000000001","300"
"","","","","","html-keyboard-response","171","2042334","0.0-16.0-0.10","673e759016f888e8212c0c1f","6790928bebf0b969fc839b02","6798266021232ef321643b68","passed","","","","","","","","","","","","","","","","","ballFalling","500","453.67114317029973","210.33","5","fallScene","true","","","","","11","",""
"","","","","","html-keyboard-response","172","2043338","0.0-16.0-1.10","673e759016f888e8212c0c1f","6790928bebf0b969fc839b02","6798266021232ef321643b68","passed","","848","","","","","","","","","","","","","","f","yesOrNo","","","","5","","","gt","1000","","","11","453.6711431702998","210.33"
"","","","","","html-keyboard-response","173","2044934","0.0-16.0-0.11","673e759016f888e8212c0c1f","6790928bebf0b969fc839b02","6798266021232ef321643b68","passed","","","","","","","","","","","","","","","","","ballFalling","500","553.4711431702997","282.51","7","fallScene","false","","","","","12","",""
"","","","","","html-keyboard-response","174","2045938","0.0-16.0-1.11","673e759016f888e8212c0c1f","6790928bebf0b969fc839b02","6798266021232ef321643b68","passed","","null","","","","","","","","","","","","","","null","yesOrNo","","","","7","","","mid","1000","","","12","501","300"
"","","","","","html-keyboard-response","175","2047600","0.0-16.0-0.12","673e759016f888e8212c0c1f","6790928bebf0b969fc839b02","6798266021232ef321643b68","passed","","","","","","","","","","","","","","","","","ballFalling","500","479.92114317029973","330.87","6","fallScene","true","","","","","13","",""
"","","","","","html-keyboard-response","176","2048605","0.0-16.0-1.12","673e759016f888e8212c0c1f","6790928bebf0b969fc839b02","6798266021232ef321643b68","passed","","null","","","","","","","","","","","","","","null","yesOrNo","","","","6","","","gt","1000","","","13","479.9211431702998","330.87"
"","","","","","html-keyboard-response","177","2050167","0.0-16.0-0.13","673e759016f888e8212c0c1f","6790928bebf0b969fc839b02","6798266021232ef321643b68","passed","","","","","","","","","","","","","","","","","ballFalling","322.3","296.07114317029976","371.46","3","fallScene","false","","","","","14","",""
"","","","","","html-keyboard-response","178","2051171","0.0-16.0-1.13","673e759016f888e8212c0c1f","6790928bebf0b969fc839b02","6798266021232ef321643b68","passed","","870","","","","","","","","","","","","","","j","yesOrNo","","","","3","","","gt","1000","","","14","296.07114317029976","371.46"
"","","","","","html-keyboard-response","179","2052733","0.0-16.0-0.14","673e759016f888e8212c0c1f","6790928bebf0b969fc839b02","6798266021232ef321643b68","passed","","","","","","","","","","","","","","","","","ballFalling","322.3","379.3711431702997","245.25","1","fallScene","true","","","","","15","",""
"","","","","","html-keyboard-response","180","2053737","0.0-16.0-1.14","673e759016f888e8212c0c1f","6790928bebf0b969fc839b02","6798266021232ef321643b68","passed","","null","","","","","","","","","","","","","","null","yesOrNo","","","","1","","","gt","1000","","","15","379.3711431702997","245.25"
"","","","","","html-keyboard-response","181","2055301","0.0-16.0-0.15","673e759016f888e8212c0c1f","6790928bebf0b969fc839b02","6798266021232ef321643b68","passed","","","","","","","","","","","","","","","","","ballFalling","322.3","356.42114317029973","357.87","4","fallScene","false","","","","","16","",""
"","","","","","html-keyboard-response","182","2056305","0.0-16.0-1.15","673e759016f888e8212c0c1f","6790928bebf0b969fc839b02","6798266021232ef321643b68","passed","","976","","","","","","","","","","","","","","f","yesOrNo","","","","4","","","mid","1000","","","16","390.27114317029975","300"
"","","","","","html-keyboard-response","183","2057867","0.0-16.0-0.16","673e759016f888e8212c0c1f","6790928bebf0b969fc839b02","6798266021232ef321643b68","passed","","","","","","","","","","","","","","","","","ballFalling","500","453.67114317029973","210.33","5","fallScene","true","","","","","17","",""
"","","","","","html-keyboard-response","184","2058871","0.0-16.0-1.16","673e759016f888e8212c0c1f","6790928bebf0b969fc839b02","6798266021232ef321643b68","passed","","null","","","","","","","","","","","","","","null","yesOrNo","","","","5","","","lp","1000","","","17","499","151"
"","","","","","html-keyboard-response","185","2060534","0.0-16.0-0.17","673e759016f888e8212c0c1f","6790928bebf0b969fc839b02","6798266021232ef321643b68","passed","","","","","","","","","","","","","","","","","ballFalling","500","479.92114317029973","330.87","6","fallScene","true","","","","","18","",""
"","","","","","html-keyboard-response","186","2061538","0.0-16.0-1.17","673e759016f888e8212c0c1f","6790928bebf0b969fc839b02","6798266021232ef321643b68","passed","","804","","","","","","","","","","","","","","j","yesOrNo","","","","6","","","gt","1000","","","18","479.9211431702998","330.87"
"","","","","","html-keyboard-response","187","2063567","0.0-16.0-0.18","673e759016f888e8212c0c1f","6790928bebf0b969fc839b02","6798266021232ef321643b68","passed","","","","","","","","","","","","","","","","","ballFalling","500","510.8711431702997","369.03","8","fallScene","true","","","","","19","",""
"","","","","","html-keyboard-response","188","2064572","0.0-16.0-1.18","673e759016f888e8212c0c1f","6790928bebf0b969fc839b02","6798266021232ef321643b68","passed","","697","","","","","","","","","","","","","","j","yesOrNo","","","","8","","","mid","1000","","","19","501","300"
"","","","","","html-keyboard-response","189","2066067","0.0-16.0-0.19","673e759016f888e8212c0c1f","6790928bebf0b969fc839b02","6798266021232ef321643b68","passed","","","","","","","","","","","","","","","","","ballFalling","604.4000000000001","667.6211431702998","201.78","9","fallScene","true","","","","","20","",""
"","","","","","html-keyboard-response","190","2067071","0.0-16.0-1.19","673e759016f888e8212c0c1f","6790928bebf0b969fc839b02","6798266021232ef321643b68","passed","","null","","","","","","","","","","","","","","null","yesOrNo","","","","9","","","gt","1000","","","20","667.6211431702998","201.78"
"","","","","","html-keyboard-response","191","2068667","0.0-16.0-0.20","673e759016f888e8212c0c1f","6790928bebf0b969fc839b02","6798266021232ef321643b68","passed","","","","","","","","","","","","","","","","","ballFalling","500","553.4711431702997","282.51","7","fallScene","false","","","","","21","",""
"","","","","","html-keyboard-response","192","2069672","0.0-16.0-1.20","673e759016f888e8212c0c1f","6790928bebf0b969fc839b02","6798266021232ef321643b68","passed","","685","","","","","","","","","","","","","","j","yesOrNo","","","","7","","","lp","1000","","","21","501","227.2843295913261"
"","","","","","html-keyboard-response","193","2071267","0.0-16.0-0.21","673e759016f888e8212c0c1f","6790928bebf0b969fc839b02","6798266021232ef321643b68","passed","","","","","","","","","","","","","","","","","ballFalling","500","553.4711431702997","282.51","7","fallScene","false","","","","","22","",""
"","","","","","html-keyboard-response","194","2072271","0.0-16.0-1.21","673e759016f888e8212c0c1f","6790928bebf0b969fc839b02","6798266021232ef321643b68","passed","","785","","","","","","","","","","","","","","j","yesOrNo","","","","7","","","mid","1000","","","22","501","300"
"","","","","","html-keyboard-response","195","2073834","0.0-16.0-0.22","673e759016f888e8212c0c1f","6790928bebf0b969fc839b02","6798266021232ef321643b68","passed","","","","","","","","","","","","","","","","","ballFalling","322.3","379.3711431702997","245.25","1","fallScene","true","","","","","23","",""
"","","","","","html-keyboard-response","196","2074838","0.0-16.0-1.22","673e759016f888e8212c0c1f","6790928bebf0b969fc839b02","6798266021232ef321643b68","passed","","511","","","","","","","","","","","","","","j","yesOrNo","","","","1","","","gt","1000","","","23","379.3711431702997","245.25"
"","","","","","html-keyboard-response","197","2076434","0.0-16.0-0.23","673e759016f888e8212c0c1f","6790928bebf0b969fc839b02","6798266021232ef321643b68","passed","","","","","","","","","","","","","","","","","ballFalling","500","553.4711431702997","282.51","7","fallScene","true","","","","","24","",""
"","","","","","html-keyboard-response","198","2077438","0.0-16.0-1.23","673e759016f888e8212c0c1f","6790928bebf0b969fc839b02","6798266021232ef321643b68","passed","","744","","","","","","","","","","","","","","j","yesOrNo","","","","7","","","gt","1000","","","24","553.4711431702997","282.51"
"","","","","","html-keyboard-response","199","2141741","0.0-17.0","673e759016f888e8212c0c1f","6790928bebf0b969fc839b02","6798266021232ef321643b68","passed","","64301","","","","","","","","","","","","","<p><span style=""font-size:40px;"">BLOCK 2</span></p><p><span style=""font-size:25px;"">You have <b style=""color: #FF644F;""><strong>1 second(s)</strong></b> to respond to the following trials.</span><br></p><p></p> <!-- Blank line -->
                <p id=""blinking-text"" style=""font-weight; animation: blink 2s infinite;"">Press Space to continue</p>
                <style>
                    @keyframes blink {
                        50% {
                            opacity: 0;
                        }
                    }
                </style></p>"," ","","","","","","","","","","","","","",""
"","","","","","html-keyboard-response","200","2143301","0.0-18.0-0.0","673e759016f888e8212c0c1f","6790928bebf0b969fc839b02","6798266021232ef321643b68","passed","","","","","","","","","","","","","","","","","ballFalling","604.4000000000001","575.4211431702997","266.76","12","fallScene","true","","","","","25","",""
"","","","","","html-keyboard-response","201","2144306","0.0-18.0-1.0","673e759016f888e8212c0c1f","6790928bebf0b969fc839b02","6798266021232ef321643b68","passed","","882","","","","","","","","","","","","","","f","yesOrNo","","","","12","","","mid","1000","","","25","536.4288568297004","300"
"","","","","","html-keyboard-response","202","2145968","0.0-18.0-0.1","673e759016f888e8212c0c1f","6790928bebf0b969fc839b02","6798266021232ef321643b68","passed","","","","","","","","","","","","","","","","","ballFalling","500","479.92114317029973","330.87","6","fallScene","false","","","","","26","",""
"","","","","","html-keyboard-response","203","2146972","0.0-18.0-1.1","673e759016f888e8212c0c1f","6790928bebf0b969fc839b02","6798266021232ef321643b68","passed","","799","","","","","","","","","","","","","","j","yesOrNo","","","","6","","","lp","1000","","","26","499","189.92909825697632"
"","","","","","html-keyboard-response","204","2149001","0.0-18.0-0.2","673e759016f888e8212c0c1f","6790928bebf0b969fc839b02","6798266021232ef321643b68","passed","","","","","","","","","","","","","","","","","ballFalling","500","510.8711431702997","369.03","8","fallScene","true","","","","","27","",""
"","","","","","html-keyboard-response","205","2150004","0.0-18.0-1.2","673e759016f888e8212c0c1f","6790928bebf0b969fc839b02","6798266021232ef321643b68","passed","","684","","","","","","","","","","","","","","j","yesOrNo","","","","8","","","gt","1000","","","27","510.8711431702997","369.03"
"","","","","","html-keyboard-response","206","2151569","0.0-18.0-0.3","673e759016f888e8212c0c1f","6790928bebf0b969fc839b02","6798266021232ef321643b68","passed","","","","","","","","","","","","","","","","","ballFalling","604.4000000000001","575.4211431702997","266.76","12","fallScene","false","","","","","28","",""
"","","","","","html-keyboard-response","207","2152573","0.0-18.0-1.3","673e759016f888e8212c0c1f","6790928bebf0b969fc839b02","6798266021232ef321643b68","passed","","967","","","","","","","","","","","","","","j","yesOrNo","","","","12","","","mid","1000","","","28","536.4288568297004","300"
"","","","","","html-keyboard-response","208","2154602","0.0-18.0-0.4","673e759016f888e8212c0c1f","6790928bebf0b969fc839b02","6798266021232ef321643b68","passed","","","","","","","","","","","","","","","","","ballFalling","604.4000000000001","596.8711431702998","394.5","10","fallScene","true","","","","","29","",""
"","","","","","html-keyboard-response","209","2155606","0.0-18.0-1.4","673e759016f888e8212c0c1f","6790928bebf0b969fc839b02","6798266021232ef321643b68","passed","","null","","","","","","","","","","","","","","null","yesOrNo","","","","10","","","gt","1000","","","29","596.8711431702998","394.5"
"","","","","","html-keyboard-response","210","2157635","0.0-18.0-0.5","673e759016f888e8212c0c1f","6790928bebf0b969fc839b02","6798266021232ef321643b68","passed","","","","","","","","","","","","","","","","","ballFalling","604.4000000000001","596.8711431702998","394.5","10","fallScene","false","","","","","30","",""
"","","","","","html-keyboard-response","211","2158639","0.0-18.0-1.5","673e759016f888e8212c0c1f","6790928bebf0b969fc839b02","6798266021232ef321643b68","passed","","628","","","","","","","","","","","","","","j","yesOrNo","","","","10","","","mid","1000","","","30","536.4288568297004","300"
"","","","","","html-keyboard-response","212","2160302","0.0-18.0-0.6","673e759016f888e8212c0c1f","6790928bebf0b969fc839b02","6798266021232ef321643b68","passed","","","","","","","","","","","","","","","","","ballFalling","500","479.92114317029973","330.87","6","fallScene","false","","","","","31","",""
"","","","","","html-keyboard-response","213","2161306","0.0-18.0-1.6","673e759016f888e8212c0c1f","6790928bebf0b969fc839b02","6798266021232ef321643b68","passed","","857","","","","","","","","","","","","","","j","yesOrNo","","","","6","","","mid","1000","","","31","499","300"
"","","","","","html-keyboard-response","214","2162868","0.0-18.0-0.7","673e759016f888e8212c0c1f","6790928bebf0b969fc839b02","6798266021232ef321643b68","passed","","","","","","","","","","","","","","","","","ballFalling","322.3","356.42114317029973","357.87","4","fallScene","true","","","","","32","",""
"","","","","","html-keyboard-response","215","2163872","0.0-18.0-1.7","673e759016f888e8212c0c1f","6790928bebf0b969fc839b02","6798266021232ef321643b68","passed","","null","","","","","","","","","","","","","","null","yesOrNo","","","","4","","","mid","1000","","","32","390.27114317029975","300"
"","","","","","html-keyboard-response","216","2165468","0.0-18.0-0.8","673e759016f888e8212c0c1f","6790928bebf0b969fc839b02","6798266021232ef321643b68","passed","","","","","","","","","","","","","","","","","ballFalling","500","553.4711431702997","282.51","7","fallScene","true","","","","","33","",""
"","","","","","html-keyboard-response","217","2166473","0.0-18.0-1.8","673e759016f888e8212c0c1f","6790928bebf0b969fc839b02","6798266021232ef321643b68","passed","","630","","","","","","","","","","","","","","j","yesOrNo","","","","7","","","gt","1000","","","33","553.4711431702997","282.51"
"","","","","","html-keyboard-response","218","2168035","0.0-18.0-0.9","673e759016f888e8212c0c1f","6790928bebf0b969fc839b02","6798266021232ef321643b68","passed","","","","","","","","","","","","","","","","","ballFalling","322.3","379.3711431702997","245.25","1","fallScene","false","","","","","34","",""
"","","","","","html-keyboard-response","219","2169039","0.0-18.0-1.9","673e759016f888e8212c0c1f","6790928bebf0b969fc839b02","6798266021232ef321643b68","passed","","798","","","","","","","","","","","","","","f","yesOrNo","","","","1","","","mid","1000","","","34","390.27114317029975","300"
"","","","","","html-keyboard-response","220","2170602","0.0-18.0-0.10","673e759016f888e8212c0c1f","6790928bebf0b969fc839b02","6798266021232ef321643b68","passed","","","","","","","","","","","","","","","","","ballFalling","604.4000000000001","575.4211431702997","266.76","12","fallScene","false","","","","","35","",""
"","","","","","html-keyboard-response","221","2171606","0.0-18.0-1.10","673e759016f888e8212c0c1f","6790928bebf0b969fc839b02","6798266021232ef321643b68","passed","","833","","","","","","","","","","","","","","j","yesOrNo","","","","12","","","gt","1000","","","35","575.4211431702997","266.76"
"","","","","","html-keyboard-response","222","2173168","0.0-18.0-0.11","673e759016f888e8212c0c1f","6790928bebf0b969fc839b02","6798266021232ef321643b68","passed","","","","","","","","","","","","","","","","","ballFalling","604.4000000000001","575.4211431702997","266.76","12","fallScene","true","","","","","36","",""
"","","","","","html-keyboard-response","223","2174172","0.0-18.0-1.11","673e759016f888e8212c0c1f","6790928bebf0b969fc839b02","6798266021232ef321643b68","passed","","861","","","","","","","","","","","","","","f","yesOrNo","","","","12","","","lp","1000","","","36","603.4000000000001","151"
"","","","","","html-keyboard-response","224","2175668","0.0-18.0-0.12","673e759016f888e8212c0c1f","6790928bebf0b969fc839b02","6798266021232ef321643b68","passed","","","","","","","","","","","","","","","","","ballFalling","604.4000000000001","667.6211431702998","201.78","9","fallScene","true","","","","","37","",""
"","","","","","html-keyboard-response","225","2176673","0.0-18.0-1.12","673e759016f888e8212c0c1f","6790928bebf0b969fc839b02","6798266021232ef321643b68","passed","","809","","","","","","","","","","","","","","j","yesOrNo","","","","9","","","mid","1000","","","37","605.4000000000001","300"
"","","","","","html-keyboard-response","226","2178235","0.0-18.0-0.13","673e759016f888e8212c0c1f","6790928bebf0b969fc839b02","6798266021232ef321643b68","passed","","","","","","","","","","","","","","","","","ballFalling","500","453.67114317029973","210.33","5","fallScene","true","","","","","38","",""
"","","","","","html-keyboard-response","227","2179239","0.0-18.0-1.13","673e759016f888e8212c0c1f","6790928bebf0b969fc839b02","6798266021232ef321643b68","passed","","805","","","","","","","","","","","","","","f","yesOrNo","","","","5","","","mid","1000","","","38","499","300"
"","","","","","html-keyboard-response","228","2180801","0.0-18.0-0.14","673e759016f888e8212c0c1f","6790928bebf0b969fc839b02","6798266021232ef321643b68","passed","","","","","","","","","","","","","","","","","ballFalling","322.3","296.07114317029976","371.46","3","fallScene","false","","","","","39","",""
"","","","","","html-keyboard-response","229","2181804","0.0-18.0-1.14","673e759016f888e8212c0c1f","6790928bebf0b969fc839b02","6798266021232ef321643b68","passed","","746","","","","","","","","","","","","","","f","yesOrNo","","","","3","","","lp","1000","","","39","321.3","287.3327096511259"
"","","","","","html-keyboard-response","230","2183369","0.0-18.0-0.15","673e759016f888e8212c0c1f","6790928bebf0b969fc839b02","6798266021232ef321643b68","passed","","","","","","","","","","","","","","","","","ballFalling","322.3","379.3711431702997","245.25","1","fallScene","true","","","","","40","",""
"","","","","","html-keyboard-response","231","2184372","0.0-18.0-1.15","673e759016f888e8212c0c1f","6790928bebf0b969fc839b02","6798266021232ef321643b68","passed","","null","","","","","","","","","","","","","","null","yesOrNo","","","","1","","","lp","1000","","","40","323.3","217.74551669457017"
"","","","","","html-keyboard-response","232","2185935","0.0-18.0-0.16","673e759016f888e8212c0c1f","6790928bebf0b969fc839b02","6798266021232ef321643b68","passed","","","","","","","","","","","","","","","","","ballFalling","322.3","379.3711431702997","245.25","1","fallScene","false","","","","","41","",""
"","","","","","html-keyboard-response","233","2186940","0.0-18.0-1.16","673e759016f888e8212c0c1f","6790928bebf0b969fc839b02","6798266021232ef321643b68","passed","","null","","","","","","","","","","","","","","null","yesOrNo","","","","1","","","mid","1000","","","41","390.27114317029975","300"
"","","","","","html-keyboard-response","234","2188510","0.0-18.0-0.17","673e759016f888e8212c0c1f","6790928bebf0b969fc839b02","6798266021232ef321643b68","passed","","","","","","","","","","","","","","","","","ballFalling","322.3","356.42114317029973","357.87","4","fallScene","false","","","","","42","",""
"","","","","","html-keyboard-response","235","2189515","0.0-18.0-1.17","673e759016f888e8212c0c1f","6790928bebf0b969fc839b02","6798266021232ef321643b68","passed","","609","","","","","","","","","","","","","","j","yesOrNo","","","","4","","","lp","1000","","","42","323.3","297.4070551689986"
"","","","","","html-keyboard-response","236","2191002","0.0-18.0-0.18","673e759016f888e8212c0c1f","6790928bebf0b969fc839b02","6798266021232ef321643b68","passed","","","","","","","","","","","","","","","","","ballFalling","604.4000000000001","667.6211431702998","201.78","9","fallScene","true","","","","","43","",""
"","","","","","html-keyboard-response","237","2192007","0.0-18.0-1.18","673e759016f888e8212c0c1f","6790928bebf0b969fc839b02","6798266021232ef321643b68","passed","","309","","","","","","","","","","","","","","j","yesOrNo","","","","9","","","lp","1000","","","43","605.4000000000001","151"
"","","","","","html-keyboard-response","238","2193568","0.0-18.0-0.19","673e759016f888e8212c0c1f","6790928bebf0b969fc839b02","6798266021232ef321643b68","passed","","","","","","","","","","","","","","","","","ballFalling","604.4000000000001","650.0211431702996","404.58000000000004","11","fallScene","true","","","","","44","",""
"","","","","","html-keyboard-response","239","2194573","0.0-18.0-1.19","673e759016f888e8212c0c1f","6790928bebf0b969fc839b02","6798266021232ef321643b68","passed","","819","","","","","","","","","","","","","","j","yesOrNo","","","","11","","","gt","1000","","","44","650.0211431702996","404.58"
"","","","","","html-keyboard-response","240","2196602","0.0-18.0-0.20","673e759016f888e8212c0c1f","6790928bebf0b969fc839b02","6798266021232ef321643b68","passed","","","","","","","","","","","","","","","","","ballFalling","604.4000000000001","596.8711431702998","394.5","10","fallScene","false","","","","","45","",""
"","","","","","html-keyboard-response","241","2197606","0.0-18.0-1.20","673e759016f888e8212c0c1f","6790928bebf0b969fc839b02","6798266021232ef321643b68","passed","","860","","","","","","","","","","","","","","f","yesOrNo","","","","10","","","lp","1000","","","45","603.4000000000001","215.50214355555383"
"","","","","","html-keyboard-response","242","2199168","0.0-18.0-0.21","673e759016f888e8212c0c1f","6790928bebf0b969fc839b02","6798266021232ef321643b68","passed","","","","","","","","","","","","","","","","","ballFalling","322.3","356.42114317029973","357.87","4","fallScene","false","","","","","46","",""
"","","","","","html-keyboard-response","243","2200173","0.0-18.0-1.21","673e759016f888e8212c0c1f","6790928bebf0b969fc839b02","6798266021232ef321643b68","passed","","877","","","","","","","","","","","","","","j","yesOrNo","","","","4","","","gt","1000","","","46","356.42114317029973","357.87"
"","","","","","html-keyboard-response","244","2201969","0.0-18.0-0.22","673e759016f888e8212c0c1f","6790928bebf0b969fc839b02","6798266021232ef321643b68","passed","","","","","","","","","","","","","","","","","ballFalling","322.3","308.07114317029976","253.89","2","fallScene","true","","","","","47","",""
"","","","","","html-keyboard-response","245","2202973","0.0-18.0-1.22","673e759016f888e8212c0c1f","6790928bebf0b969fc839b02","6798266021232ef321643b68","passed","","785","","","","","","","","","","","","","","j","yesOrNo","","","","2","","","gt","1000","","","47","308.07114317029976","253.89"
"","","","","","html-keyboard-response","246","2205002","0.0-18.0-0.23","673e759016f888e8212c0c1f","6790928bebf0b969fc839b02","6798266021232ef321643b68","passed","","","","","","","","","","","","","","","","","ballFalling","604.4000000000001","596.8711431702998","394.5","10","fallScene","true","","","","","48","",""
"","","","","","html-keyboard-response","247","2206006","0.0-18.0-1.23","673e759016f888e8212c0c1f","6790928bebf0b969fc839b02","6798266021232ef321643b68","passed","","933","","","","","","","","","","","","","","j","yesOrNo","","","","10","","","lp","1000","","","48","603.4000000000001","215.50214355555383"
"","","","","","html-keyboard-response","248","2208125","0.0-19.0","673e759016f888e8212c0c1f","6790928bebf0b969fc839b02","6798266021232ef321643b68","passed","","2118","","","","","","","","","","","","","<p><span style=""font-size:40px;"">BLOCK 3</span></p><p><span style=""font-size:25px;"">You have <b style=""color: #FF644F;""><strong>3 second(s)</strong></b> to respond to the following trials.</span><br></p><p></p> <!-- Blank line -->
                <p id=""blinking-text"" style=""font-weight; animation: blink 2s infinite;"">Press Space to continue</p>
                <style>
                    @keyframes blink {
                        50% {
                            opacity: 0;
                        }
                    }
                </style></p>"," ","","","","","","","","","","","","","",""
"","","","","","html-keyboard-response","249","2209669","0.0-20.0-0.0","673e759016f888e8212c0c1f","6790928bebf0b969fc839b02","6798266021232ef321643b68","passed","","","","","","","","","","","","","","","","","ballFalling","322.3","379.3711431702997","245.25","1","fallScene","true","","","","","49","",""
"","","","","","html-keyboard-response","250","2212673","0.0-20.0-1.0","673e759016f888e8212c0c1f","6790928bebf0b969fc839b02","6798266021232ef321643b68","passed","","516","","","","","","","","","","","","","","j","yesOrNo","","","","1","","","mid","3000","","","49","390.27114317029975","300"
"","","","","","html-keyboard-response","251","2214235","0.0-20.0-0.1","673e759016f888e8212c0c1f","6790928bebf0b969fc839b02","6798266021232ef321643b68","passed","","","","","","","","","","","","","","","","","ballFalling","322.3","356.42114317029973","357.87","4","fallScene","false","","","","","50","",""
"","","","","","html-keyboard-response","252","2217239","0.0-20.0-1.1","673e759016f888e8212c0c1f","6790928bebf0b969fc839b02","6798266021232ef321643b68","passed","","2523","","","","","","","","","","","","","","j","yesOrNo","","","","4","","","gt","3000","","","50","356.42114317029973","357.87"
"","","","","","html-keyboard-response","253","2218803","0.0-20.0-0.2","673e759016f888e8212c0c1f","6790928bebf0b969fc839b02","6798266021232ef321643b68","passed","","","","","","","","","","","","","","","","","ballFalling","604.4000000000001","650.0211431702996","404.58000000000004","11","fallScene","false","","","","","51","",""
"","","","","","html-keyboard-response","254","2221807","0.0-20.0-1.2","673e759016f888e8212c0c1f","6790928bebf0b969fc839b02","6798266021232ef321643b68","passed","","1228","","","","","","","","","","","","","","f","yesOrNo","","","","11","","","mid","3000","","","51","605.4000000000001","300"
"","","","","","html-keyboard-response","255","2223369","0.0-20.0-0.3","673e759016f888e8212c0c1f","6790928bebf0b969fc839b02","6798266021232ef321643b68","passed","","","","","","","","","","","","","","","","","ballFalling","322.3","379.3711431702997","245.25","1","fallScene","true","","","","","52","",""
"","","","","","html-keyboard-response","256","2226373","0.0-20.0-1.3","673e759016f888e8212c0c1f","6790928bebf0b969fc839b02","6798266021232ef321643b68","passed","","2485","","","","","","","","","","","","","","j","yesOrNo","","","","1","","","gt","3000","","","52","379.3711431702997","245.25"
"","","","","","html-keyboard-response","257","2227969","0.0-20.0-0.4","673e759016f888e8212c0c1f","6790928bebf0b969fc839b02","6798266021232ef321643b68","passed","","","","","","","","","","","","","","","","","ballFalling","500","553.4711431702997","282.51","7","fallScene","true","","","","","53","",""
"","","","","","html-keyboard-response","258","2230973","0.0-20.0-1.4","673e759016f888e8212c0c1f","6790928bebf0b969fc839b02","6798266021232ef321643b68","passed","","1571","","","","","","","","","","","","","","f","yesOrNo","","","","7","","","lp","3000","","","53","501","227.2843295913261"
"","","","","","html-keyboard-response","259","2232535","0.0-20.0-0.5","673e759016f888e8212c0c1f","6790928bebf0b969fc839b02","6798266021232ef321643b68","passed","","","","","","","","","","","","","","","","","ballFalling","500","453.67114317029973","210.33","5","fallScene","false","","","","","54","",""
"","","","","","html-keyboard-response","260","2235538","0.0-20.0-1.5","673e759016f888e8212c0c1f","6790928bebf0b969fc839b02","6798266021232ef321643b68","passed","","2173","","","","","","","","","","","","","","j","yesOrNo","","","","5","","","mid","3000","","","54","499","300"
"","","","","","html-keyboard-response","261","2237202","0.0-20.0-0.6","673e759016f888e8212c0c1f","6790928bebf0b969fc839b02","6798266021232ef321643b68","passed","","","","","","","","","","","","","","","","","ballFalling","500","479.92114317029973","330.87","6","fallScene","true","","","","","55","",""
"","","","","","html-keyboard-response","262","2240206","0.0-20.0-1.6","673e759016f888e8212c0c1f","6790928bebf0b969fc839b02","6798266021232ef321643b68","passed","","2968","","","","","","","","","","","","","","j","yesOrNo","","","","6","","","lp","3000","","","55","499","189.92909825697632"
"","","","","","html-keyboard-response","263","2241701","0.0-20.0-0.7","673e759016f888e8212c0c1f","6790928bebf0b969fc839b02","6798266021232ef321643b68","passed","","","","","","","","","","","","","","","","","ballFalling","604.4000000000001","667.6211431702998","201.78","9","fallScene","false","","","","","56","",""
"","","","","","html-keyboard-response","264","2244705","0.0-20.0-1.7","673e759016f888e8212c0c1f","6790928bebf0b969fc839b02","6798266021232ef321643b68","passed","","2233","","","","","","","","","","","","","","f","yesOrNo","","","","9","","","lp","3000","","","56","605.4000000000001","151"
"","","","","","html-keyboard-response","265","2246268","0.0-20.0-0.8","673e759016f888e8212c0c1f","6790928bebf0b969fc839b02","6798266021232ef321643b68","passed","","","","","","","","","","","","","","","","","ballFalling","500","453.67114317029973","210.33","5","fallScene","true","","","","","57","",""
"","","","","","html-keyboard-response","266","2249271","0.0-20.0-1.8","673e759016f888e8212c0c1f","6790928bebf0b969fc839b02","6798266021232ef321643b68","passed","","1200","","","","","","","","","","","","","","j","yesOrNo","","","","5","","","gt","3000","","","57","453.6711431702998","210.33"
"","","","","","html-keyboard-response","267","2251302","0.0-20.0-0.9","673e759016f888e8212c0c1f","6790928bebf0b969fc839b02","6798266021232ef321643b68","passed","","","","","","","","","","","","","","","","","ballFalling","500","510.8711431702997","369.03","8","fallScene","true","","","","","58","",""
"","","","","","html-keyboard-response","268","2254307","0.0-20.0-1.9","673e759016f888e8212c0c1f","6790928bebf0b969fc839b02","6798266021232ef321643b68","passed","","1410","","","","","","","","","","","","","","f","yesOrNo","","","","8","","","lp","3000","","","58","501","151"
"","","","","","html-keyboard-response","269","2255869","0.0-20.0-0.10","673e759016f888e8212c0c1f","6790928bebf0b969fc839b02","6798266021232ef321643b68","passed","","","","","","","","","","","","","","","","","ballFalling","322.3","379.3711431702997","245.25","1","fallScene","false","","","","","59","",""
"","","","","","html-keyboard-response","270","2258873","0.0-20.0-1.10","673e759016f888e8212c0c1f","6790928bebf0b969fc839b02","6798266021232ef321643b68","passed","","2066","","","","","","","","","","","","","","f","yesOrNo","","","","1","","","lp","3000","","","59","323.3","217.74551669457017"
"","","","","","html-keyboard-response","271","2260436","0.0-20.0-0.11","673e759016f888e8212c0c1f","6790928bebf0b969fc839b02","6798266021232ef321643b68","passed","","","","","","","","","","","","","","","","","ballFalling","604.4000000000001","575.4211431702997","266.76","12","fallScene","true","","","","","60","",""
"","","","","","html-keyboard-response","272","2263441","0.0-20.0-1.11","673e759016f888e8212c0c1f","6790928bebf0b969fc839b02","6798266021232ef321643b68","passed","","1443","","","","","","","","","","","","","","f","yesOrNo","","","","12","","","lp","3000","","","60","603.4000000000001","151"
"","","","","","html-keyboard-response","273","2265002","0.0-20.0-0.12","673e759016f888e8212c0c1f","6790928bebf0b969fc839b02","6798266021232ef321643b68","passed","","","","","","","","","","","","","","","","","ballFalling","322.3","296.07114317029976","371.46","3","fallScene","false","","","","","61","",""
"","","","","","html-keyboard-response","274","2268006","0.0-20.0-1.12","673e759016f888e8212c0c1f","6790928bebf0b969fc839b02","6798266021232ef321643b68","passed","","871","","","","","","","","","","","","","","j","yesOrNo","","","","3","","","gt","3000","","","61","296.07114317029976","371.46"
"","","","","","html-keyboard-response","275","2269569","0.0-20.0-0.13","673e759016f888e8212c0c1f","6790928bebf0b969fc839b02","6798266021232ef321643b68","passed","","","","","","","","","","","","","","","","","ballFalling","604.4000000000001","575.4211431702997","266.76","12","fallScene","false","","","","","62","",""
"","","","","","html-keyboard-response","276","2272574","0.0-20.0-1.13","673e759016f888e8212c0c1f","6790928bebf0b969fc839b02","6798266021232ef321643b68","passed","","1244","","","","","","","","","","","","","","j","yesOrNo","","","","12","","","mid","3000","","","62","536.4288568297004","300"
"","","","","","html-keyboard-response","277","2274137","0.0-20.0-0.14","673e759016f888e8212c0c1f","6790928bebf0b969fc839b02","6798266021232ef321643b68","passed","","","","","","","","","","","","","","","","","ballFalling","604.4000000000001","575.4211431702997","266.76","12","fallScene","true","","","","","63","",""
"","","","","","html-keyboard-response","278","2277144","0.0-20.0-1.14","673e759016f888e8212c0c1f","6790928bebf0b969fc839b02","6798266021232ef321643b68","passed","","1937","","","","","","","","","","","","","","f","yesOrNo","","","","12","","","lp","3000","","","63","603.4000000000001","151"
"","","","","","html-keyboard-response","279","2278735","0.0-20.0-0.15","673e759016f888e8212c0c1f","6790928bebf0b969fc839b02","6798266021232ef321643b68","passed","","","","","","","","","","","","","","","","","ballFalling","500","553.4711431702997","282.51","7","fallScene","true","","","","","64","",""
"","","","","","html-keyboard-response","280","2281737","0.0-20.0-1.15","673e759016f888e8212c0c1f","6790928bebf0b969fc839b02","6798266021232ef321643b68","passed","","1013","","","","","","","","","","","","","","j","yesOrNo","","","","7","","","gt","3000","","","64","553.4711431702997","282.51"
