"success","timeout","failed_images","failed_audio","failed_video","trial_type","trial_index","time_elapsed","internal_node_id","subject_id","study_id","session_id","practiceTestResult","view_history","rt","width","height","webaudio","browser","browser_version","mobile","os","fullscreen","vsync_rate","webcam","microphone","url","stimulus","response","task","ball_X","obstacle_groundTruth_x","obstacle_groundTruth_y","stimulus_idx","trial_name","flipped","choice","timeLimit","question_order","currentTrial","obstacle_choice_x","obstacle_choice_y"
"true","false","[]","[]","[]","preload","0","8301","0.0-0.0","67915f6f598c16696b97305d","6790928bebf0b969fc839b02","67929efec7adfe61a0d3fdf9","passed","","","","","","","","","","","","","","","","","","","","","","","","","","","","",""
"","","","","","instructions","1","26858","0.0-1.0","67915f6f598c16696b97305d","6790928bebf0b969fc839b02","67929efec7adfe61a0d3fdf9","passed","[{""page_index"":0,""viewing_time"":18555}]","18555","","","","","","","","","","","","","","","","","","","","","","","","","","",""
"","","","","","browser-check","2","27853","0.0-2.0","67915f6f598c16696b97305d","6790928bebf0b969fc839b02","67929efec7adfe61a0d3fdf9","passed","","","500","764","true","chrome","131.0.0","false","Windows 10","true","60.66","false","false","","","","","","","","","","","","","","","",""
"","","","","","external-html","3","36329","0.0-3.0","67915f6f598c16696b97305d","6790928bebf0b969fc839b02","67929efec7adfe61a0d3fdf9","passed","","6238","","","","","","","","","","","","consent.html","","","","","","","","","","","","","","",""
"true","","","","","fullscreen","4","54716","0.0-4.0","67915f6f598c16696b97305d","6790928bebf0b969fc839b02","67929efec7adfe61a0d3fdf9","passed","","17775","","","","","","","","","","","","","","","","","","","","","","","","","","",""
"","","","","","browser-check","5","55716","0.0-5.0","67915f6f598c16696b97305d","6790928bebf0b969fc839b02","67929efec7adfe61a0d3fdf9","passed","","","1600","900","true","chrome","131.0.0","false","Windows 10","true","60.23","false","false","","","","","","","","","","","","","","","",""
"","","","","","html-keyboard-response","6","60625","0.0-6.0","67915f6f598c16696b97305d","6790928bebf0b969fc839b02","67929efec7adfe61a0d3fdf9","passed","","4907","","","","","","","","","","","","","<p><b>This experiment requires keyboard input.</b></p> 
        <p><b>To ensure your response will be recorded successfully, please press 'Space' to continue.</b></p>
        <p>If you can't proceed, you won't be able to complete this study.</p>
        <p></p> <!-- Blank line -->
        <p id=""blinking-text"" style=""font-weight; animation: blink 2s infinite;"">Press Space to continue</p>
        <style>
            @keyframes blink {
                50% {
                    opacity: 0;
                }
            }
        </style>"," ","","","","","","","","","","","","",""
"","","","","","html-keyboard-response","7","63601","0.0-7.0","67915f6f598c16696b97305d","6790928bebf0b969fc839b02","67929efec7adfe61a0d3fdf9","passed","","2975","","","","","","","","","","","","","<p><b>This experiment requires keyboard input.</b></p> 
        <p><b>To ensure your response will be recorded successfully, please press the 'f' key to continue.</b></p>
        <p>If you can't proceed, you won't be able to complete this study.</p>
        <p></p> <!-- Blank line -->
        <p id=""blinking-text"" style=""font-weight; animation: blink 2s infinite;"">Press f to continue</p>
        <style>
            @keyframes blink {
                50% {
                    opacity: 0;
                }
            }
        </style>","f","","","","","","","","","","","","",""
"","","","","","html-keyboard-response","8","65191","0.0-8.0","67915f6f598c16696b97305d","6790928bebf0b969fc839b02","67929efec7adfe61a0d3fdf9","passed","","1590","","","","","","","","","","","","","<p><b>This experiment requires keyboard input.</b></p> 
        <p><b>To ensure your response will be recorded successfully, please press the 'j' key to continue.</b></p>
        <p>If you can't proceed, you won't be able to complete this study.</p>
        <p></p> <!-- Blank line -->
        <p id=""blinking-text"" style=""font-weight; animation: blink 2s infinite;"">Press j to continue</p>
        <style>
            @keyframes blink {
                50% {
                    opacity: 0;
                }
            }
        </style>","j","","","","","","","","","","","","",""
"","","","","","browser-check","9","66198","0.0-9.0","67915f6f598c16696b97305d","6790928bebf0b969fc839b02","67929efec7adfe61a0d3fdf9","passed","","","1600","900","true","chrome","131.0.0","false","Windows 10","true","60.07","false","false","","","","","","","","","","","","","","","",""
"","","","","","survey-text","10","80293","0.0-10.0","67915f6f598c16696b97305d","6790928bebf0b969fc839b02","67929efec7adfe61a0d3fdf9","passed","","14082","","","","","","","","","","","","","","{""prolificID"":""67915f6f598c16696b97305d""}","","","","","","","","","","","","",""
"","","","","","instructions","11","206960","0.0-11.0-0.0-0.0","67915f6f598c16696b97305d","6790928bebf0b969fc839b02","67929efec7adfe61a0d3fdf9","passed","[{""page_index"":0,""viewing_time"":49731},{""page_index"":1,""viewing_time"":48424},{""page_index"":2,""viewing_time"":11376},{""page_index"":3,""viewing_time"":17136}]","126666","","","","","","","","","","","","","","","","","","","","","","","","","","",""
"","","","","","html-keyboard-response","12","234134","0.0-11.0-0.0-1.0","67915f6f598c16696b97305d","6790928bebf0b969fc839b02","67929efec7adfe61a0d3fdf9","passed","","26654","","","","","","","","","","","","","<br>Remember! After a ball falls, the screen will disappear, and you'll decide if the proposed position is where the hidden triangle was. <br>You will now practice this by watching a few videos and making decisions.<p>To respond:<br style=""margin-bottom: 5px; text-indent: -20px; padding-left: 20px;"">- Press <b style=""color: #12AD2B;"">J for Yes</b>, if you think the triangle is in the correct position.<br style=""margin-top: 0; text-indent: -20px; padding-left: 20px;"">- Press <b style=""color: orange;"">F for No</b>, if you think the triangle is not in the correct position.</p><p>In this practice round, there is no time limit. Focus on getting comfortable with the task first.<br>Press either J or F to begin your practice trials.</p><img src = ""YesOrNo_instruction.png"" style=""width: 65%;""></img>","j","","","","","","","","","","","","",""
"","","","","","html-keyboard-response","13","235697","0.0-11.0-0.0-2.0-0.0","67915f6f598c16696b97305d","6790928bebf0b969fc839b02","67929efec7adfe61a0d3fdf9","passed","","","","","","","","","","","","","","","","","ballFalling_prac","416","464","296","1","fallScene","false","","","","","",""
"","","","","","html-keyboard-response","14","238995","0.0-11.0-0.0-2.0-1.0","67915f6f598c16696b97305d","6790928bebf0b969fc839b02","67929efec7adfe61a0d3fdf9","passed","","3285","","","","","","","","","","","","","","f","yesOrNo_prac_noTimed","","","","1","","","gt","NA","","","",""
"","","","","","html-keyboard-response","15","240565","0.0-11.0-0.0-2.0-0.1","67915f6f598c16696b97305d","6790928bebf0b969fc839b02","67929efec7adfe61a0d3fdf9","passed","","","","","","","","","","","","","","","","","ballFalling_prac","441","414","302","5","fallScene","true","","","","","",""
"","","","","","html-keyboard-response","16","241736","0.0-11.0-0.0-2.0-1.1","67915f6f598c16696b97305d","6790928bebf0b969fc839b02","67929efec7adfe61a0d3fdf9","passed","","1163","","","","","","","","","","","","","","j","yesOrNo_prac_noTimed","","","","5","","","close gt","NA","","","",""
"","","","","","html-keyboard-response","17","243846","0.0-11.0-0.0-2.0-0.2","67915f6f598c16696b97305d","6790928bebf0b969fc839b02","67929efec7adfe61a0d3fdf9","passed","","","","","","","","","","","","","","","","","ballFalling_prac","660","666","350","3","fallScene","false","","","","","",""
"","","","","","html-keyboard-response","18","244869","0.0-11.0-0.0-2.0-1.2","67915f6f598c16696b97305d","6790928bebf0b969fc839b02","67929efec7adfe61a0d3fdf9","passed","","1018","","","","","","","","","","","","","","j","yesOrNo_prac_noTimed","","","","3","","","wrong direction","NA","","","",""
"","","","","","instructions","19","285191","0.0-11.0-0.0-3.0","67915f6f598c16696b97305d","6790928bebf0b969fc839b02","67929efec7adfe61a0d3fdf9","passed","[{""page_index"":0,""viewing_time"":25082},{""page_index"":1,""viewing_time"":15240}]","40322","","","","","","","","","","","","","","","","","","","","","","","","","","",""
"","","","","","html-button-response","20","290088","0.0-11.0-0.0-4.0","67915f6f598c16696b97305d","6790928bebf0b969fc839b02","67929efec7adfe61a0d3fdf9","passed","","4389","","","","","","","","","","","","","<p>To make sure you understood the task, we just have a <b>brief quiz</b> here.</p><p>If you need to review the instructions, click 'Previous'.</p><p>It's important to understand the task to do the study, so you have to pass the quiz to move to the study.</p>","1","","","","","","","","","","","","",""
"","","","","","survey-multi-choice","21","309712","0.0-11.0-1.0-0.0","67915f6f598c16696b97305d","6790928bebf0b969fc839b02","67929efec7adfe61a0d3fdf9","passed","","19622","","","","","","","","","","","","","","{""generalProcedure"":""Watch a video of a ball falling, some of it behind a gray screen. After each video, decide if the triangle is at the spot where the ball hit the triangle behind the screen. There is time limit for the response.""}","","","","","","","","","","[0]","","",""
"","","","","","survey-multi-choice","22","314240","0.0-11.0-1.0-1.0","67915f6f598c16696b97305d","6790928bebf0b969fc839b02","67929efec7adfe61a0d3fdf9","passed","","4527","","","","","","","","","","","","","","{""checkBallHitObstacle"":""Yes.""}","","","","","","","","","","[0]","","",""
"","","","","","survey-multi-choice","23","319368","0.0-11.0-1.0-2.0","67915f6f598c16696b97305d","6790928bebf0b969fc839b02","67929efec7adfe61a0d3fdf9","passed","","5126","","","","","","","","","","","","","","{""checkTriangleVisibility"":""No, the triangle is hidden behind the gray screen.""}","","","","","","","","","","[0]","","",""
"","","","","","survey-multi-choice","24","323304","0.0-11.0-1.0-3.0","67915f6f598c16696b97305d","6790928bebf0b969fc839b02","67929efec7adfe61a0d3fdf9","passed","","3932","","","","","","","","","","","","","","{""checkTimedResponse"":""Your response will not be recorded, and the trial will move to the next one.""}","","","","","","","","","","[0]","","",""
"","","","","","survey-multi-choice","25","329088","0.0-11.0-1.0-4.0","67915f6f598c16696b97305d","6790928bebf0b969fc839b02","67929efec7adfe61a0d3fdf9","passed","","5782","","","","","","","","","","","","","","{""checkTimeBlockNotice"":""At the beginning of each block.""}","","","","","","","","","","[0]","","",""
"","","","","","survey-multi-choice","26","334994","0.0-11.0-1.0-5.0","67915f6f598c16696b97305d","6790928bebf0b969fc839b02","67929efec7adfe61a0d3fdf9","passed","","5904","","","","","","","","","","","","","","{""checkTimeBlockSameness"":""Yes, the time limit is the same for all trials within a block.""}","","","","","","","","","","[0]","","",""
"","","","","","survey-multi-choice","27","354472","0.0-11.0-1.0-6.0","67915f6f598c16696b97305d","6790928bebf0b969fc839b02","67929efec7adfe61a0d3fdf9","passed","","19472","","","","","","","","","","","","","","{""checkTrianglePrecision"":""No. The proposed purple triangle is not in the correct position because it doesn't match the location of the white triangle exactly.""}","","","","","","","","","","[0]","","",""
"","","","","","instructions","28","379383","0.0-12.0","67915f6f598c16696b97305d","6790928bebf0b969fc839b02","67929efec7adfe61a0d3fdf9","passed","[{""page_index"":0,""viewing_time"":7670},{""page_index"":1,""viewing_time"":7416},{""page_index"":2,""viewing_time"":5440},{""page_index"":3,""viewing_time"":4384}]","24910","","","","","","","","","","","","","","","","","","","","","","","","","","",""
"","","","","","instructions","29","389223","0.0-13.0-0.0","67915f6f598c16696b97305d","6790928bebf0b969fc839b02","67929efec7adfe61a0d3fdf9","passed","[{""page_index"":0,""viewing_time"":9840}]","9840","","","","","","","","","","","","","","","","","","","","","","","","","","",""
"","","","","","html-keyboard-response","30","394371","0.0-13.0-1.0","67915f6f598c16696b97305d","6790928bebf0b969fc839b02","67929efec7adfe61a0d3fdf9","passed","","5146","","","","","","","","","","","","","<p><span style=""font-size:40px;"">Practice BLOCK 1</span></p><p><span style=""font-size:25px;"">You have <b style=""color: #FF644F;""><strong>3 second(s)</strong></b> to respond to the following trials.</span><br></p><p id=""blinking-text"" style=""font-weight; animation: blink 2s infinite;"">Press Space to continue</p><style>
                    @keyframes blink {
                        50% {
                            opacity: 0;
                        }
                    }
                </style>"," ","","","","","","","","","","","","",""
"","","","","","html-keyboard-response","31","395928","0.0-13.0-2.0-0.0","67915f6f598c16696b97305d","6790928bebf0b969fc839b02","67929efec7adfe61a0d3fdf9","passed","","","","","","","","","","","","","","","","","ballFalling_prac","416","464","296","1","fallScene","false","","","","","",""
"","","","","","html-keyboard-response","32","398942","0.0-13.0-2.0-1.0","67915f6f598c16696b97305d","6790928bebf0b969fc839b02","67929efec7adfe61a0d3fdf9","passed","","1633","","","","","","","","","","","","","","j","yesOrNo_prac","","","","1","","","far gt","3000","","","",""
"","","","","","html-keyboard-response","33","400501","0.0-13.0-2.0-0.1","67915f6f598c16696b97305d","6790928bebf0b969fc839b02","67929efec7adfe61a0d3fdf9","passed","","","","","","","","","","","","","","","","","ballFalling_prac","584","536","296","1","fallScene","true","","","","","",""
"","","","","","html-keyboard-response","34","403508","0.0-13.0-2.0-1.1","67915f6f598c16696b97305d","6790928bebf0b969fc839b02","67929efec7adfe61a0d3fdf9","passed","","1017","","","","","","","","","","","","","","j","yesOrNo_prac","","","","1","","","close gt","3000","","","",""
"","","","","","html-keyboard-response","35","405078","0.0-13.0-2.0-0.2","67915f6f598c16696b97305d","6790928bebf0b969fc839b02","67929efec7adfe61a0d3fdf9","passed","","","","","","","","","","","","","","","","","ballFalling_prac","660","610","263","4","fallScene","false","","","","","",""
"","","","","","html-keyboard-response","36","408091","0.0-13.0-2.0-1.2","67915f6f598c16696b97305d","6790928bebf0b969fc839b02","67929efec7adfe61a0d3fdf9","passed","","1888","","","","","","","","","","","","","","j","yesOrNo_prac","","","","4","","","gt","3000","","","",""
"","","","","","html-keyboard-response","37","412984","0.0-13.0-3.0","67915f6f598c16696b97305d","6790928bebf0b969fc839b02","67929efec7adfe61a0d3fdf9","passed","","4888","","","","","","","","","","","","","<p><span style=""font-size:40px;"">Practice BLOCK 2</span></p><p><span style=""font-size:25px;"">You have <b style=""color: #FF644F;""><strong>1 second(s)</strong></b> to respond to the following trials.</span><br></p><p id=""blinking-text"" style=""font-weight; animation: blink 2s infinite;"">Press Space to continue</p><style>
                    @keyframes blink {
                        50% {
                            opacity: 0;
                        }
                    }
                </style>"," ","","","","","","","","","","","","",""
"","","","","","html-keyboard-response","38","414543","0.0-13.0-4.0-0.0","67915f6f598c16696b97305d","6790928bebf0b969fc839b02","67929efec7adfe61a0d3fdf9","passed","","","","","","","","","","","","","","","","","ballFalling_prac","441","500","317","6","fallScene","true","","","","","",""
"","","","","","html-keyboard-response","39","415553","0.0-13.0-4.0-1.0","67915f6f598c16696b97305d","6790928bebf0b969fc839b02","67929efec7adfe61a0d3fdf9","passed","","null","","","","","","","","","","","","","","null","yesOrNo_prac","","","","6","","","gt","1000","","","",""
"","","","","","html-keyboard-response","40","417124","0.0-13.0-4.0-0.1","67915f6f598c16696b97305d","6790928bebf0b969fc839b02","67929efec7adfe61a0d3fdf9","passed","","","","","","","","","","","","","","","","","ballFalling_prac","660","610","263","4","fallScene","false","","","","","",""
"","","","","","html-keyboard-response","41","418133","0.0-13.0-4.0-1.1","67915f6f598c16696b97305d","6790928bebf0b969fc839b02","67929efec7adfe61a0d3fdf9","passed","","725","","","","","","","","","","","","","","j","yesOrNo_prac","","","","4","","","far gt","1000","","","",""
"","","","","","html-keyboard-response","42","420242","0.0-13.0-4.0-0.2","67915f6f598c16696b97305d","6790928bebf0b969fc839b02","67929efec7adfe61a0d3fdf9","passed","","","","","","","","","","","","","","","","","ballFalling_prac","340","334","350","3","fallScene","true","","","","","",""
"","","","","","html-keyboard-response","43","421249","0.0-13.0-4.0-1.2","67915f6f598c16696b97305d","6790928bebf0b969fc839b02","67929efec7adfe61a0d3fdf9","passed","","1001","","","","","","","","","","","","","","f","yesOrNo_prac","","","","3","","","close gt","1000","","","",""
"","","","","","instructions","44","431094","0.0-13.0-5.0","67915f6f598c16696b97305d","6790928bebf0b969fc839b02","67929efec7adfe61a0d3fdf9","passed","[{""page_index"":0,""viewing_time"":9845}]","9845","","","","","","","","","","","","","","","","","","","","","","","","","","",""
"","","","","","html-keyboard-response","45","433675","0.0-13.0-6.0","67915f6f598c16696b97305d","6790928bebf0b969fc839b02","67929efec7adfe61a0d3fdf9","passed","","2579","","","","","","","","","","","","","<p><span style=""font-size:40px;"">Practice Test BLOCK 1</span></p><p><span style=""font-size:25px;"">You have <b style=""color: #FF644F;""><strong>1 second(s)</strong></b> to respond to the following trials.</span><br></p><p id=""blinking-text"" style=""font-weight; animation: blink 2s infinite;"">Press Space to continue</p><style>
                    @keyframes blink {
                        50% {
                            opacity: 0;
                        }
                    }
                </style>"," ","","","","","","","","","","","","",""
"","","","","","html-keyboard-response","46","435255","0.0-13.0-7.0-0.0","67915f6f598c16696b97305d","6790928bebf0b969fc839b02","67929efec7adfe61a0d3fdf9","passed","","","","","","","","","","","","","","","","","ballFalling_prac","559","586","302","5","fallScene","false","","","","","",""
"","","","","","html-keyboard-response","47","436268","0.0-13.0-7.0-1.0","67915f6f598c16696b97305d","6790928bebf0b969fc839b02","67929efec7adfe61a0d3fdf9","passed","","607","","","","","","","","","","","","","","f","yesOrNo_prac","","","","5","","","gt","1000","","","",""
"","","","","","html-keyboard-response","48","437823","0.0-13.0-7.0-0.1","67915f6f598c16696b97305d","6790928bebf0b969fc839b02","67929efec7adfe61a0d3fdf9","passed","","","","","","","","","","","","","","","","","ballFalling_prac","441","500","317","6","fallScene","true","","","","","",""
"","","","","","html-keyboard-response","49","438842","0.0-13.0-7.0-1.1","67915f6f598c16696b97305d","6790928bebf0b969fc839b02","67929efec7adfe61a0d3fdf9","passed","","503","","","","","","","","","","","","","","f","yesOrNo_prac","","","","6","","","close gt","1000","","","",""
"","","","","","html-keyboard-response","50","440424","0.0-13.0-7.0-0.2","67915f6f598c16696b97305d","6790928bebf0b969fc839b02","67929efec7adfe61a0d3fdf9","passed","","","","","","","","","","","","","","","","","ballFalling_prac","340","390","263","4","fallScene","true","","","","","",""
"","","","","","html-keyboard-response","51","441443","0.0-13.0-7.0-1.2","67915f6f598c16696b97305d","6790928bebf0b969fc839b02","67929efec7adfe61a0d3fdf9","passed","","614","","","","","","","","","","","","","","f","yesOrNo_prac","","","","4","","","far gt","1000","","","",""
"","","","","","html-keyboard-response","52","444528","0.0-13.0-8.0","67915f6f598c16696b97305d","6790928bebf0b969fc839b02","67929efec7adfe61a0d3fdf9","passed","","3083","","","","","","","","","","","","","<p><span style=""font-size:40px;"">Practice Test BLOCK 2</span></p><p><span style=""font-size:25px;"">You have <b style=""color: #FF644F;""><strong>3 second(s)</strong></b> to respond to the following trials.</span><br></p><p id=""blinking-text"" style=""font-weight; animation: blink 2s infinite;"">Press Space to continue</p><style>
                    @keyframes blink {
                        50% {
                            opacity: 0;
                        }
                    }
                </style>"," ","","","","","","","","","","","","",""
"","","","","","html-keyboard-response","53","446110","0.0-13.0-9.0-0.0","67915f6f598c16696b97305d","6790928bebf0b969fc839b02","67929efec7adfe61a0d3fdf9","passed","","","","","","","","","","","","","","","","","ballFalling_prac","416","365","249","2","fallScene","false","","","","","",""
"","","","","","html-keyboard-response","54","449119","0.0-13.0-9.0-1.0","67915f6f598c16696b97305d","6790928bebf0b969fc839b02","67929efec7adfe61a0d3fdf9","passed","","895","","","","","","","","","","","","","","f","yesOrNo_prac","","","","2","","","gt","3000","","","",""
"","","","","","html-keyboard-response","55","450687","0.0-13.0-9.0-0.1","67915f6f598c16696b97305d","6790928bebf0b969fc839b02","67929efec7adfe61a0d3fdf9","passed","","","","","","","","","","","","","","","","","ballFalling_prac","559","586","302","5","fallScene","false","","","","","",""
"","","","","","html-keyboard-response","56","453705","0.0-13.0-9.0-1.1","67915f6f598c16696b97305d","6790928bebf0b969fc839b02","67929efec7adfe61a0d3fdf9","passed","","1057","","","","","","","","","","","","","","f","yesOrNo_prac","","","","5","","","far gt","3000","","","",""
"","","","","","html-keyboard-response","57","455288","0.0-13.0-9.0-0.2","67915f6f598c16696b97305d","6790928bebf0b969fc839b02","67929efec7adfe61a0d3fdf9","passed","","","","","","","","","","","","","","","","","ballFalling_prac","340","390","263","4","fallScene","true","","","","","",""
"","","","","","html-keyboard-response","58","458293","0.0-13.0-9.0-1.2","67915f6f598c16696b97305d","6790928bebf0b969fc839b02","67929efec7adfe61a0d3fdf9","passed","","899","","","","","","","","","","","","","","j","yesOrNo_prac","","","","4","","","close gt","3000","","","",""
"","","","","","instructions","59","475446","0.0-14.0","67915f6f598c16696b97305d","6790928bebf0b969fc839b02","67929efec7adfe61a0d3fdf9","passed","[{""page_index"":0,""viewing_time"":17149}]","17150","","","","","","","","","","","","","","","","","","","","","","","","","","",""
"","","","","","html-keyboard-response","60","479095","0.0-15.0","67915f6f598c16696b97305d","6790928bebf0b969fc839b02","67929efec7adfe61a0d3fdf9","passed","","3647","","","","","","","","","","","","","<p><span style=""font-size:40px;"">BLOCK 1</span></p><p><span style=""font-size:25px;"">You have <b style=""color: #FF644F;""><strong>1 second(s)</strong></b> to respond to the following trials.</span><br></p><p></p> <!-- Blank line -->
                <p id=""blinking-text"" style=""font-weight; animation: blink 2s infinite;"">Press Space to continue</p>
                <style>
                    @keyframes blink {
                        50% {
                            opacity: 0;
                        }
                    }
                </style></p>"," ","","","","","","","","","","","","",""
"","","","","","html-keyboard-response","61","480650","0.0-16.0-0.0","67915f6f598c16696b97305d","6790928bebf0b969fc839b02","67929efec7adfe61a0d3fdf9","passed","","","","","","","","","","","","","","","","","ballFalling","500","453.67114317029973","210.33","5","fallScene","true","","","","1","",""
"","","","","","html-keyboard-response","62","481661","0.0-16.0-1.0","67915f6f598c16696b97305d","6790928bebf0b969fc839b02","67929efec7adfe61a0d3fdf9","passed","","892","","","","","","","","","","","","","","j","yesOrNo","","","","5","","","lp","1000","","1","499","151"
"","","","","","html-keyboard-response","63","483218","0.0-16.0-0.1","67915f6f598c16696b97305d","6790928bebf0b969fc839b02","67929efec7adfe61a0d3fdf9","passed","","","","","","","","","","","","","","","","","ballFalling","500","453.67114317029973","210.33","5","fallScene","true","","","","2","",""
"","","","","","html-keyboard-response","64","484239","0.0-16.0-1.1","67915f6f598c16696b97305d","6790928bebf0b969fc839b02","67929efec7adfe61a0d3fdf9","passed","","930","","","","","","","","","","","","","","f","yesOrNo","","","","5","","","mid","1000","","2","499","300"
"","","","","","html-keyboard-response","65","485801","0.0-16.0-0.2","67915f6f598c16696b97305d","6790928bebf0b969fc839b02","67929efec7adfe61a0d3fdf9","passed","","","","","","","","","","","","","","","","","ballFalling","322.3","379.3711431702997","245.25","1","fallScene","true","","","","3","",""
"","","","","","html-keyboard-response","66","486821","0.0-16.0-1.2","67915f6f598c16696b97305d","6790928bebf0b969fc839b02","67929efec7adfe61a0d3fdf9","passed","","799","","","","","","","","","","","","","","j","yesOrNo","","","","1","","","mid","1000","","3","390.27114317029975","300"
"","","","","","html-keyboard-response","67","488385","0.0-16.0-0.3","67915f6f598c16696b97305d","6790928bebf0b969fc839b02","67929efec7adfe61a0d3fdf9","passed","","","","","","","","","","","","","","","","","ballFalling","322.3","356.42114317029973","357.87","4","fallScene","true","","","","4","",""
"","","","","","html-keyboard-response","68","489390","0.0-16.0-1.3","67915f6f598c16696b97305d","6790928bebf0b969fc839b02","67929efec7adfe61a0d3fdf9","passed","","709","","","","","","","","","","","","","","j","yesOrNo","","","","4","","","mid","1000","","4","390.27114317029975","300"
"","","","","","html-keyboard-response","69","490950","0.0-16.0-0.4","67915f6f598c16696b97305d","6790928bebf0b969fc839b02","67929efec7adfe61a0d3fdf9","passed","","","","","","","","","","","","","","","","","ballFalling","322.3","379.3711431702997","245.25","1","fallScene","true","","","","5","",""
"","","","","","html-keyboard-response","70","491955","0.0-16.0-1.4","67915f6f598c16696b97305d","6790928bebf0b969fc839b02","67929efec7adfe61a0d3fdf9","passed","","953","","","","","","","","","","","","","","f","yesOrNo","","","","1","","","gt","1000","","5","379.3711431702997","245.25"
"","","","","","html-keyboard-response","71","493967","0.0-16.0-0.5","67915f6f598c16696b97305d","6790928bebf0b969fc839b02","67929efec7adfe61a0d3fdf9","passed","","","","","","","","","","","","","","","","","ballFalling","604.4000000000001","596.8711431702998","394.5","10","fallScene","false","","","","6","",""
"","","","","","html-keyboard-response","72","494973","0.0-16.0-1.5","67915f6f598c16696b97305d","6790928bebf0b969fc839b02","67929efec7adfe61a0d3fdf9","passed","","null","","","","","","","","","","","","","","null","yesOrNo","","","","10","","","lp","1000","","6","603.4000000000001","215.50214355555383"
"","","","","","html-keyboard-response","73","496768","0.0-16.0-0.6","67915f6f598c16696b97305d","6790928bebf0b969fc839b02","67929efec7adfe61a0d3fdf9","passed","","","","","","","","","","","","","","","","","ballFalling","322.3","308.07114317029976","253.89","2","fallScene","false","","","","7","",""
"","","","","","html-keyboard-response","74","497785","0.0-16.0-1.6","67915f6f598c16696b97305d","6790928bebf0b969fc839b02","67929efec7adfe61a0d3fdf9","passed","","700","","","","","","","","","","","","","","f","yesOrNo","","","","2","","","mid","1000","","7","321.3","300"
"","","","","","html-keyboard-response","75","499800","0.0-16.0-0.7","67915f6f598c16696b97305d","6790928bebf0b969fc839b02","67929efec7adfe61a0d3fdf9","passed","","","","","","","","","","","","","","","","","ballFalling","500","510.8711431702997","369.03","8","fallScene","true","","","","8","",""
"","","","","","html-keyboard-response","76","500812","0.0-16.0-1.7","67915f6f598c16696b97305d","6790928bebf0b969fc839b02","67929efec7adfe61a0d3fdf9","passed","","551","","","","","","","","","","","","","","j","yesOrNo","","","","8","","","mid","1000","","8","501","300"
"","","","","","html-keyboard-response","77","502365","0.0-16.0-0.8","67915f6f598c16696b97305d","6790928bebf0b969fc839b02","67929efec7adfe61a0d3fdf9","passed","","","","","","","","","","","","","","","","","ballFalling","604.4000000000001","650.0211431702996","404.58000000000004","11","fallScene","false","","","","9","",""
"","","","","","html-keyboard-response","78","503375","0.0-16.0-1.8","67915f6f598c16696b97305d","6790928bebf0b969fc839b02","67929efec7adfe61a0d3fdf9","passed","","null","","","","","","","","","","","","","","null","yesOrNo","","","","11","","","mid","1000","","9","605.4000000000001","300"
"","","","","","html-keyboard-response","79","504931","0.0-16.0-0.9","67915f6f598c16696b97305d","6790928bebf0b969fc839b02","67929efec7adfe61a0d3fdf9","passed","","","","","","","","","","","","","","","","","ballFalling","322.3","379.3711431702997","245.25","1","fallScene","true","","","","10","",""
"","","","","","html-keyboard-response","80","505940","0.0-16.0-1.9","67915f6f598c16696b97305d","6790928bebf0b969fc839b02","67929efec7adfe61a0d3fdf9","passed","","551","","","","","","","","","","","","","","j","yesOrNo","","","","1","","","lp","1000","","10","323.3","217.74551669457017"
"","","","","","html-keyboard-response","81","507948","0.0-16.0-0.10","67915f6f598c16696b97305d","6790928bebf0b969fc839b02","67929efec7adfe61a0d3fdf9","passed","","","","","","","","","","","","","","","","","ballFalling","500","510.8711431702997","369.03","8","fallScene","false","","","","11","",""
"","","","","","html-keyboard-response","82","508954","0.0-16.0-1.10","67915f6f598c16696b97305d","6790928bebf0b969fc839b02","67929efec7adfe61a0d3fdf9","passed","","757","","","","","","","","","","","","","","f","yesOrNo","","","","8","","","lp","1000","","11","501","151"
"","","","","","html-keyboard-response","83","510514","0.0-16.0-0.11","67915f6f598c16696b97305d","6790928bebf0b969fc839b02","67929efec7adfe61a0d3fdf9","passed","","","","","","","","","","","","","","","","","ballFalling","604.4000000000001","650.0211431702996","404.58000000000004","11","fallScene","false","","","","12","",""
"","","","","","html-keyboard-response","84","511520","0.0-16.0-1.11","67915f6f598c16696b97305d","6790928bebf0b969fc839b02","67929efec7adfe61a0d3fdf9","passed","","827","","","","","","","","","","","","","","f","yesOrNo","","","","11","","","gt","1000","","12","650.0211431702996","404.58"
"","","","","","html-keyboard-response","85","513097","0.0-16.0-0.12","67915f6f598c16696b97305d","6790928bebf0b969fc839b02","67929efec7adfe61a0d3fdf9","passed","","","","","","","","","","","","","","","","","ballFalling","500","553.4711431702997","282.51","7","fallScene","false","","","","13","",""
"","","","","","html-keyboard-response","86","514121","0.0-16.0-1.12","67915f6f598c16696b97305d","6790928bebf0b969fc839b02","67929efec7adfe61a0d3fdf9","passed","","817","","","","","","","","","","","","","","f","yesOrNo","","","","7","","","gt","1000","","13","553.4711431702997","282.51"
"","","","","","html-keyboard-response","87","515679","0.0-16.0-0.13","67915f6f598c16696b97305d","6790928bebf0b969fc839b02","67929efec7adfe61a0d3fdf9","passed","","","","","","","","","","","","","","","","","ballFalling","322.3","356.42114317029973","357.87","4","fallScene","true","","","","14","",""
"","","","","","html-keyboard-response","88","516687","0.0-16.0-1.13","67915f6f598c16696b97305d","6790928bebf0b969fc839b02","67929efec7adfe61a0d3fdf9","passed","","587","","","","","","","","","","","","","","j","yesOrNo","","","","4","","","lp","1000","","14","323.3","297.4070551689986"
"","","","","","html-keyboard-response","89","518263","0.0-16.0-0.14","67915f6f598c16696b97305d","6790928bebf0b969fc839b02","67929efec7adfe61a0d3fdf9","passed","","","","","","","","","","","","","","","","","ballFalling","500","553.4711431702997","282.51","7","fallScene","true","","","","15","",""
"","","","","","html-keyboard-response","90","519271","0.0-16.0-1.14","67915f6f598c16696b97305d","6790928bebf0b969fc839b02","67929efec7adfe61a0d3fdf9","passed","","866","","","","","","","","","","","","","","j","yesOrNo","","","","7","","","mid","1000","","15","501","300"
"","","","","","html-keyboard-response","91","520846","0.0-16.0-0.15","67915f6f598c16696b97305d","6790928bebf0b969fc839b02","67929efec7adfe61a0d3fdf9","passed","","","","","","","","","","","","","","","","","ballFalling","500","553.4711431702997","282.51","7","fallScene","true","","","","16","",""
"","","","","","html-keyboard-response","92","521855","0.0-16.0-1.15","67915f6f598c16696b97305d","6790928bebf0b969fc839b02","67929efec7adfe61a0d3fdf9","passed","","719","","","","","","","","","","","","","","f","yesOrNo","","","","7","","","gt","1000","","16","553.4711431702997","282.51"
"","","","","","html-keyboard-response","93","523345","0.0-16.0-0.16","67915f6f598c16696b97305d","6790928bebf0b969fc839b02","67929efec7adfe61a0d3fdf9","passed","","","","","","","","","","","","","","","","","ballFalling","604.4000000000001","667.6211431702998","201.78","9","fallScene","true","","","","17","",""
"","","","","","html-keyboard-response","94","524360","0.0-16.0-1.16","67915f6f598c16696b97305d","6790928bebf0b969fc839b02","67929efec7adfe61a0d3fdf9","passed","","734","","","","","","","","","","","","","","j","yesOrNo","","","","9","","","gt","1000","","17","667.6211431702998","201.78"
"","","","","","html-keyboard-response","95","526146","0.0-16.0-0.17","67915f6f598c16696b97305d","6790928bebf0b969fc839b02","67929efec7adfe61a0d3fdf9","passed","","","","","","","","","","","","","","","","","ballFalling","322.3","308.07114317029976","253.89","2","fallScene","true","","","","18","",""
"","","","","","html-keyboard-response","96","527162","0.0-16.0-1.17","67915f6f598c16696b97305d","6790928bebf0b969fc839b02","67929efec7adfe61a0d3fdf9","passed","","940","","","","","","","","","","","","","","f","yesOrNo","","","","2","","","lp","1000","","18","321.3","151"
"","","","","","html-keyboard-response","97","528713","0.0-16.0-0.18","67915f6f598c16696b97305d","6790928bebf0b969fc839b02","67929efec7adfe61a0d3fdf9","passed","","","","","","","","","","","","","","","","","ballFalling","604.4000000000001","575.4211431702997","266.76","12","fallScene","false","","","","19","",""
"","","","","","html-keyboard-response","98","529722","0.0-16.0-1.18","67915f6f598c16696b97305d","6790928bebf0b969fc839b02","67929efec7adfe61a0d3fdf9","passed","","null","","","","","","","","","","","","","","null","yesOrNo","","","","12","","","mid","1000","","19","536.4288568297004","300"
"","","","","","html-keyboard-response","99","531279","0.0-16.0-0.19","67915f6f598c16696b97305d","6790928bebf0b969fc839b02","67929efec7adfe61a0d3fdf9","passed","","","","","","","","","","","","","","","","","ballFalling","322.3","379.3711431702997","245.25","1","fallScene","false","","","","20","",""
"","","","","","html-keyboard-response","100","532283","0.0-16.0-1.19","67915f6f598c16696b97305d","6790928bebf0b969fc839b02","67929efec7adfe61a0d3fdf9","passed","","421","","","","","","","","","","","","","","f","yesOrNo","","","","1","","","lp","1000","","20","323.3","217.74551669457017"
"","","","","","html-keyboard-response","101","533845","0.0-16.0-0.20","67915f6f598c16696b97305d","6790928bebf0b969fc839b02","67929efec7adfe61a0d3fdf9","passed","","","","","","","","","","","","","","","","","ballFalling","604.4000000000001","650.0211431702996","404.58000000000004","11","fallScene","false","","","","21","",""
"","","","","","html-keyboard-response","102","534852","0.0-16.0-1.20","67915f6f598c16696b97305d","6790928bebf0b969fc839b02","67929efec7adfe61a0d3fdf9","passed","","733","","","","","","","","","","","","","","j","yesOrNo","","","","11","","","mid","1000","","21","605.4000000000001","300"
"","","","","","html-keyboard-response","103","536512","0.0-16.0-0.21","67915f6f598c16696b97305d","6790928bebf0b969fc839b02","67929efec7adfe61a0d3fdf9","passed","","","","","","","","","","","","","","","","","ballFalling","500","479.92114317029973","330.87","6","fallScene","false","","","","22","",""
"","","","","","html-keyboard-response","104","537519","0.0-16.0-1.21","67915f6f598c16696b97305d","6790928bebf0b969fc839b02","67929efec7adfe61a0d3fdf9","passed","","526","","","","","","","","","","","","","","j","yesOrNo","","","","6","","","mid","1000","","22","499","300"
"","","","","","html-keyboard-response","105","539077","0.0-16.0-0.22","67915f6f598c16696b97305d","6790928bebf0b969fc839b02","67929efec7adfe61a0d3fdf9","passed","","","","","","","","","","","","","","","","","ballFalling","322.3","356.42114317029973","357.87","4","fallScene","true","","","","23","",""
"","","","","","html-keyboard-response","106","540090","0.0-16.0-1.22","67915f6f598c16696b97305d","6790928bebf0b969fc839b02","67929efec7adfe61a0d3fdf9","passed","","891","","","","","","","","","","","","","","f","yesOrNo","","","","4","","","gt","1000","","23","356.42114317029973","357.87"
"","","","","","html-keyboard-response","107","541644","0.0-16.0-0.23","67915f6f598c16696b97305d","6790928bebf0b969fc839b02","67929efec7adfe61a0d3fdf9","passed","","","","","","","","","","","","","","","","","ballFalling","500","453.67114317029973","210.33","5","fallScene","true","","","","24","",""
"","","","","","html-keyboard-response","108","542650","0.0-16.0-1.23","67915f6f598c16696b97305d","6790928bebf0b969fc839b02","67929efec7adfe61a0d3fdf9","passed","","830","","","","","","","","","","","","","","f","yesOrNo","","","","5","","","gt","1000","","24","453.6711431702998","210.33"
"","","","","","html-keyboard-response","109","543713","0.0-17.0","67915f6f598c16696b97305d","6790928bebf0b969fc839b02","67929efec7adfe61a0d3fdf9","passed","","1062","","","","","","","","","","","","","<p><span style=""font-size:40px;"">BLOCK 2</span></p><p><span style=""font-size:25px;"">You have <b style=""color: #FF644F;""><strong>3 second(s)</strong></b> to respond to the following trials.</span><br></p><p></p> <!-- Blank line -->
                <p id=""blinking-text"" style=""font-weight; animation: blink 2s infinite;"">Press Space to continue</p>
                <style>
                    @keyframes blink {
                        50% {
                            opacity: 0;
                        }
                    }
                </style></p>"," ","","","","","","","","","","","","",""
"","","","","","html-keyboard-response","110","545509","0.0-18.0-0.0","67915f6f598c16696b97305d","6790928bebf0b969fc839b02","67929efec7adfe61a0d3fdf9","passed","","","","","","","","","","","","","","","","","ballFalling","322.3","308.07114317029976","253.89","2","fallScene","true","","","","25","",""
"","","","","","html-keyboard-response","111","548523","0.0-18.0-1.0","67915f6f598c16696b97305d","6790928bebf0b969fc839b02","67929efec7adfe61a0d3fdf9","passed","","915","","","","","","","","","","","","","","f","yesOrNo","","","","2","","","gt","3000","","25","308.07114317029976","253.89"
"","","","","","html-keyboard-response","112","550076","0.0-18.0-0.1","67915f6f598c16696b97305d","6790928bebf0b969fc839b02","67929efec7adfe61a0d3fdf9","passed","","","","","","","","","","","","","","","","","ballFalling","322.3","379.3711431702997","245.25","1","fallScene","false","","","","26","",""
"","","","","","html-keyboard-response","113","553090","0.0-18.0-1.1","67915f6f598c16696b97305d","6790928bebf0b969fc839b02","67929efec7adfe61a0d3fdf9","passed","","747","","","","","","","","","","","","","","f","yesOrNo","","","","1","","","gt","3000","","26","379.3711431702997","245.25"
"","","","","","html-keyboard-response","114","554577","0.0-18.0-0.2","67915f6f598c16696b97305d","6790928bebf0b969fc839b02","67929efec7adfe61a0d3fdf9","passed","","","","","","","","","","","","","","","","","ballFalling","604.4000000000001","667.6211431702998","201.78","9","fallScene","false","","","","27","",""
"","","","","","html-keyboard-response","115","557587","0.0-18.0-1.2","67915f6f598c16696b97305d","6790928bebf0b969fc839b02","67929efec7adfe61a0d3fdf9","passed","","515","","","","","","","","","","","","","","j","yesOrNo","","","","9","","","lp","3000","","27","605.4000000000001","151"
"","","","","","html-keyboard-response","116","559143","0.0-18.0-0.3","67915f6f598c16696b97305d","6790928bebf0b969fc839b02","67929efec7adfe61a0d3fdf9","passed","","","","","","","","","","","","","","","","","ballFalling","604.4000000000001","575.4211431702997","266.76","12","fallScene","false","","","","28","",""
"","","","","","html-keyboard-response","117","562148","0.0-18.0-1.3","67915f6f598c16696b97305d","6790928bebf0b969fc839b02","67929efec7adfe61a0d3fdf9","passed","","655","","","","","","","","","","","","","","f","yesOrNo","","","","12","","","lp","3000","","28","603.4000000000001","151"
"","","","","","html-keyboard-response","118","564160","0.0-18.0-0.4","67915f6f598c16696b97305d","6790928bebf0b969fc839b02","67929efec7adfe61a0d3fdf9","passed","","","","","","","","","","","","","","","","","ballFalling","500","510.8711431702997","369.03","8","fallScene","true","","","","29","",""
"","","","","","html-keyboard-response","119","567172","0.0-18.0-1.4","67915f6f598c16696b97305d","6790928bebf0b969fc839b02","67929efec7adfe61a0d3fdf9","passed","","598","","","","","","","","","","","","","","f","yesOrNo","","","","8","","","mid","3000","","29","501","300"
"","","","","","html-keyboard-response","120","568724","0.0-18.0-0.5","67915f6f598c16696b97305d","6790928bebf0b969fc839b02","67929efec7adfe61a0d3fdf9","passed","","","","","","","","","","","","","","","","","ballFalling","604.4000000000001","575.4211431702997","266.76","12","fallScene","true","","","","30","",""
"","","","","","html-keyboard-response","121","571734","0.0-18.0-1.5","67915f6f598c16696b97305d","6790928bebf0b969fc839b02","67929efec7adfe61a0d3fdf9","passed","","732","","","","","","","","","","","","","","f","yesOrNo","","","","12","","","mid","3000","","30","536.4288568297004","300"
"","","","","","html-keyboard-response","122","573290","0.0-18.0-0.6","67915f6f598c16696b97305d","6790928bebf0b969fc839b02","67929efec7adfe61a0d3fdf9","passed","","","","","","","","","","","","","","","","","ballFalling","322.3","356.42114317029973","357.87","4","fallScene","true","","","","31","",""
"","","","","","html-keyboard-response","123","576304","0.0-18.0-1.6","67915f6f598c16696b97305d","6790928bebf0b969fc839b02","67929efec7adfe61a0d3fdf9","passed","","775","","","","","","","","","","","","","","j","yesOrNo","","","","4","","","mid","3000","","31","390.27114317029975","300"
"","","","","","html-keyboard-response","124","578306","0.0-18.0-0.7","67915f6f598c16696b97305d","6790928bebf0b969fc839b02","67929efec7adfe61a0d3fdf9","passed","","","","","","","","","","","","","","","","","ballFalling","500","510.8711431702997","369.03","8","fallScene","true","","","","32","",""
"","","","","","html-keyboard-response","125","581324","0.0-18.0-1.7","67915f6f598c16696b97305d","6790928bebf0b969fc839b02","67929efec7adfe61a0d3fdf9","passed","","1682","","","","","","","","","","","","","","f","yesOrNo","","","","8","","","mid","3000","","32","501","300"
"","","","","","html-keyboard-response","126","582906","0.0-18.0-0.8","67915f6f598c16696b97305d","6790928bebf0b969fc839b02","67929efec7adfe61a0d3fdf9","passed","","","","","","","","","","","","","","","","","ballFalling","500","553.4711431702997","282.51","7","fallScene","false","","","","33","",""
"","","","","","html-keyboard-response","127","585915","0.0-18.0-1.8","67915f6f598c16696b97305d","6790928bebf0b969fc839b02","67929efec7adfe61a0d3fdf9","passed","","884","","","","","","","","","","","","","","f","yesOrNo","","","","7","","","lp","3000","","33","501","227.2843295913261"
"","","","","","html-keyboard-response","128","587473","0.0-18.0-0.9","67915f6f598c16696b97305d","6790928bebf0b969fc839b02","67929efec7adfe61a0d3fdf9","passed","","","","","","","","","","","","","","","","","ballFalling","500","453.67114317029973","210.33","5","fallScene","true","","","","34","",""
"","","","","","html-keyboard-response","129","590487","0.0-18.0-1.9","67915f6f598c16696b97305d","6790928bebf0b969fc839b02","67929efec7adfe61a0d3fdf9","passed","","683","","","","","","","","","","","","","","f","yesOrNo","","","","5","","","lp","3000","","34","499","151"
"","","","","","html-keyboard-response","130","592055","0.0-18.0-0.10","67915f6f598c16696b97305d","6790928bebf0b969fc839b02","67929efec7adfe61a0d3fdf9","passed","","","","","","","","","","","","","","","","","ballFalling","500","553.4711431702997","282.51","7","fallScene","false","","","","35","",""
"","","","","","html-keyboard-response","131","595070","0.0-18.0-1.10","67915f6f598c16696b97305d","6790928bebf0b969fc839b02","67929efec7adfe61a0d3fdf9","passed","","582","","","","","","","","","","","","","","f","yesOrNo","","","","7","","","lp","3000","","35","501","227.2843295913261"
"","","","","","html-keyboard-response","132","597070","0.0-18.0-0.11","67915f6f598c16696b97305d","6790928bebf0b969fc839b02","67929efec7adfe61a0d3fdf9","passed","","","","","","","","","","","","","","","","","ballFalling","500","510.8711431702997","369.03","8","fallScene","true","","","","36","",""
"","","","","","html-keyboard-response","133","600085","0.0-18.0-1.11","67915f6f598c16696b97305d","6790928bebf0b969fc839b02","67929efec7adfe61a0d3fdf9","passed","","668","","","","","","","","","","","","","","f","yesOrNo","","","","8","","","lp","3000","","36","501","151"
"","","","","","html-keyboard-response","134","601637","0.0-18.0-0.12","67915f6f598c16696b97305d","6790928bebf0b969fc839b02","67929efec7adfe61a0d3fdf9","passed","","","","","","","","","","","","","","","","","ballFalling","322.3","296.07114317029976","371.46","3","fallScene","false","","","","37","",""
"","","","","","html-keyboard-response","135","604647","0.0-18.0-1.12","67915f6f598c16696b97305d","6790928bebf0b969fc839b02","67929efec7adfe61a0d3fdf9","passed","","687","","","","","","","","","","","","","","j","yesOrNo","","","","3","","","lp","3000","","37","321.3","287.3327096511259"
"","","","","","html-keyboard-response","136","606220","0.0-18.0-0.13","67915f6f598c16696b97305d","6790928bebf0b969fc839b02","67929efec7adfe61a0d3fdf9","passed","","","","","","","","","","","","","","","","","ballFalling","500","553.4711431702997","282.51","7","fallScene","false","","","","38","",""
"","","","","","html-keyboard-response","137","609231","0.0-18.0-1.13","67915f6f598c16696b97305d","6790928bebf0b969fc839b02","67929efec7adfe61a0d3fdf9","passed","","486","","","","","","","","","","","","","","f","yesOrNo","","","","7","","","gt","3000","","38","553.4711431702997","282.51"
"","","","","","html-keyboard-response","138","610719","0.0-18.0-0.14","67915f6f598c16696b97305d","6790928bebf0b969fc839b02","67929efec7adfe61a0d3fdf9","passed","","","","","","","","","","","","","","","","","ballFalling","604.4000000000001","667.6211431702998","201.78","9","fallScene","false","","","","39","",""
"","","","","","html-keyboard-response","139","613729","0.0-18.0-1.14","67915f6f598c16696b97305d","6790928bebf0b969fc839b02","67929efec7adfe61a0d3fdf9","passed","","501","","","","","","","","","","","","","","j","yesOrNo","","","","9","","","mid","3000","","39","605.4000000000001","300"
"","","","","","html-keyboard-response","140","615385","0.0-18.0-0.15","67915f6f598c16696b97305d","6790928bebf0b969fc839b02","67929efec7adfe61a0d3fdf9","passed","","","","","","","","","","","","","","","","","ballFalling","500","479.92114317029973","330.87","6","fallScene","false","","","","40","",""
"","","","","","html-keyboard-response","141","618392","0.0-18.0-1.15","67915f6f598c16696b97305d","6790928bebf0b969fc839b02","67929efec7adfe61a0d3fdf9","passed","","701","","","","","","","","","","","","","","j","yesOrNo","","","","6","","","mid","3000","","40","499","300"
"","","","","","html-keyboard-response","142","620401","0.0-18.0-0.16","67915f6f598c16696b97305d","6790928bebf0b969fc839b02","67929efec7adfe61a0d3fdf9","passed","","","","","","","","","","","","","","","","","ballFalling","500","510.8711431702997","369.03","8","fallScene","false","","","","41","",""
"","","","","","html-keyboard-response","143","623413","0.0-18.0-1.16","67915f6f598c16696b97305d","6790928bebf0b969fc839b02","67929efec7adfe61a0d3fdf9","passed","","904","","","","","","","","","","","","","","f","yesOrNo","","","","8","","","gt","3000","","41","510.8711431702997","369.03"
"","","","","","html-keyboard-response","144","625067","0.0-18.0-0.17","67915f6f598c16696b97305d","6790928bebf0b969fc839b02","67929efec7adfe61a0d3fdf9","passed","","","","","","","","","","","","","","","","","ballFalling","500","479.92114317029973","330.87","6","fallScene","true","","","","42","",""
"","","","","","html-keyboard-response","145","628082","0.0-18.0-1.17","67915f6f598c16696b97305d","6790928bebf0b969fc839b02","67929efec7adfe61a0d3fdf9","passed","","1126","","","","","","","","","","","","","","f","yesOrNo","","","","6","","","lp","3000","","42","499","189.92909825697632"
"","","","","","html-keyboard-response","146","629633","0.0-18.0-0.18","67915f6f598c16696b97305d","6790928bebf0b969fc839b02","67929efec7adfe61a0d3fdf9","passed","","","","","","","","","","","","","","","","","ballFalling","322.3","379.3711431702997","245.25","1","fallScene","true","","","","43","",""
"","","","","","html-keyboard-response","147","632649","0.0-18.0-1.18","67915f6f598c16696b97305d","6790928bebf0b969fc839b02","67929efec7adfe61a0d3fdf9","passed","","802","","","","","","","","","","","","","","j","yesOrNo","","","","1","","","mid","3000","","43","390.27114317029975","300"
"","","","","","html-keyboard-response","148","634201","0.0-18.0-0.19","67915f6f598c16696b97305d","6790928bebf0b969fc839b02","67929efec7adfe61a0d3fdf9","passed","","","","","","","","","","","","","","","","","ballFalling","500","453.67114317029973","210.33","5","fallScene","true","","","","44","",""
"","","","","","html-keyboard-response","149","637214","0.0-18.0-1.19","67915f6f598c16696b97305d","6790928bebf0b969fc839b02","67929efec7adfe61a0d3fdf9","passed","","888","","","","","","","","","","","","","","f","yesOrNo","","","","5","","","gt","3000","","44","453.6711431702998","210.33"
"","","","","","html-keyboard-response","150","638767","0.0-18.0-0.20","67915f6f598c16696b97305d","6790928bebf0b969fc839b02","67929efec7adfe61a0d3fdf9","passed","","","","","","","","","","","","","","","","","ballFalling","322.3","296.07114317029976","371.46","3","fallScene","false","","","","45","",""
"","","","","","html-keyboard-response","151","641780","0.0-18.0-1.20","67915f6f598c16696b97305d","6790928bebf0b969fc839b02","67929efec7adfe61a0d3fdf9","passed","","1051","","","","","","","","","","","","","","j","yesOrNo","","","","3","","","mid","3000","","45","321.3","300"
"","","","","","html-keyboard-response","152","643333","0.0-18.0-0.21","67915f6f598c16696b97305d","6790928bebf0b969fc839b02","67929efec7adfe61a0d3fdf9","passed","","","","","","","","","","","","","","","","","ballFalling","322.3","356.42114317029973","357.87","4","fallScene","false","","","","46","",""
"","","","","","html-keyboard-response","153","646347","0.0-18.0-1.21","67915f6f598c16696b97305d","6790928bebf0b969fc839b02","67929efec7adfe61a0d3fdf9","passed","","540","","","","","","","","","","","","","","f","yesOrNo","","","","4","","","lp","3000","","46","323.3","297.4070551689986"
"","","","","","html-keyboard-response","154","647899","0.0-18.0-0.22","67915f6f598c16696b97305d","6790928bebf0b969fc839b02","67929efec7adfe61a0d3fdf9","passed","","","","","","","","","","","","","","","","","ballFalling","500","453.67114317029973","210.33","5","fallScene","true","","","","47","",""
"","","","","","html-keyboard-response","155","650912","0.0-18.0-1.22","67915f6f598c16696b97305d","6790928bebf0b969fc839b02","67929efec7adfe61a0d3fdf9","passed","","721","","","","","","","","","","","","","","f","yesOrNo","","","","5","","","gt","3000","","47","453.6711431702998","210.33"
"","","","","","html-keyboard-response","156","652465","0.0-18.0-0.23","67915f6f598c16696b97305d","6790928bebf0b969fc839b02","67929efec7adfe61a0d3fdf9","passed","","","","","","","","","","","","","","","","","ballFalling","322.3","379.3711431702997","245.25","1","fallScene","true","","","","48","",""
"","","","","","html-keyboard-response","157","655471","0.0-18.0-1.23","67915f6f598c16696b97305d","6790928bebf0b969fc839b02","67929efec7adfe61a0d3fdf9","passed","","1370","","","","","","","","","","","","","","f","yesOrNo","","","","1","","","gt","3000","","48","379.3711431702997","245.25"
"","","","","","html-keyboard-response","158","656872","0.0-19.0","67915f6f598c16696b97305d","6790928bebf0b969fc839b02","67929efec7adfe61a0d3fdf9","passed","","1399","","","","","","","","","","","","","<p><span style=""font-size:40px;"">BLOCK 3</span></p><p><span style=""font-size:25px;"">You have <b style=""color: #FF644F;""><strong>3 second(s)</strong></b> to respond to the following trials.</span><br></p><p></p> <!-- Blank line -->
                <p id=""blinking-text"" style=""font-weight; animation: blink 2s infinite;"">Press Space to continue</p>
                <style>
                    @keyframes blink {
                        50% {
                            opacity: 0;
                        }
                    }
                </style></p>"," ","","","","","","","","","","","","",""
"","","","","","html-keyboard-response","159","658663","0.0-20.0-0.0","67915f6f598c16696b97305d","6790928bebf0b969fc839b02","67929efec7adfe61a0d3fdf9","passed","","","","","","","","","","","","","","","","","ballFalling","322.3","308.07114317029976","253.89","2","fallScene","true","","","","49","",""
"","","","","","html-keyboard-response","160","661676","0.0-20.0-1.0","67915f6f598c16696b97305d","6790928bebf0b969fc839b02","67929efec7adfe61a0d3fdf9","passed","","973","","","","","","","","","","","","","","j","yesOrNo","","","","2","","","mid","3000","","49","321.3","300"
"","","","","","html-keyboard-response","161","663231","0.0-20.0-0.1","67915f6f598c16696b97305d","6790928bebf0b969fc839b02","67929efec7adfe61a0d3fdf9","passed","","","","","","","","","","","","","","","","","ballFalling","604.4000000000001","575.4211431702997","266.76","12","fallScene","true","","","","50","",""
"","","","","","html-keyboard-response","162","666244","0.0-20.0-1.1","67915f6f598c16696b97305d","6790928bebf0b969fc839b02","67929efec7adfe61a0d3fdf9","passed","","812","","","","","","","","","","","","","","f","yesOrNo","","","","12","","","lp","3000","","50","603.4000000000001","151"
"","","","","","html-keyboard-response","163","667730","0.0-20.0-0.2","67915f6f598c16696b97305d","6790928bebf0b969fc839b02","67929efec7adfe61a0d3fdf9","passed","","","","","","","","","","","","","","","","","ballFalling","604.4000000000001","667.6211431702998","201.78","9","fallScene","true","","","","51","",""
"","","","","","html-keyboard-response","164","670744","0.0-20.0-1.2","67915f6f598c16696b97305d","6790928bebf0b969fc839b02","67929efec7adfe61a0d3fdf9","passed","","696","","","","","","","","","","","","","","f","yesOrNo","","","","9","","","gt","3000","","51","667.6211431702998","201.78"
"","","","","","html-keyboard-response","165","672295","0.0-20.0-0.3","67915f6f598c16696b97305d","6790928bebf0b969fc839b02","67929efec7adfe61a0d3fdf9","passed","","","","","","","","","","","","","","","","","ballFalling","322.3","379.3711431702997","245.25","1","fallScene","true","","","","52","",""
"","","","","","html-keyboard-response","166","675301","0.0-20.0-1.3","67915f6f598c16696b97305d","6790928bebf0b969fc839b02","67929efec7adfe61a0d3fdf9","passed","","787","","","","","","","","","","","","","","f","yesOrNo","","","","1","","","lp","3000","","52","323.3","217.74551669457017"
"","","","","","html-keyboard-response","167","676963","0.0-20.0-0.4","67915f6f598c16696b97305d","6790928bebf0b969fc839b02","67929efec7adfe61a0d3fdf9","passed","","","","","","","","","","","","","","","","","ballFalling","500","479.92114317029973","330.87","6","fallScene","true","","","","53","",""
"","","","","","html-keyboard-response","168","679968","0.0-20.0-1.4","67915f6f598c16696b97305d","6790928bebf0b969fc839b02","67929efec7adfe61a0d3fdf9","passed","","767","","","","","","","","","","","","","","f","yesOrNo","","","","6","","","gt","3000","","53","479.9211431702998","330.87"
"","","","","","html-keyboard-response","169","681530","0.0-20.0-0.5","67915f6f598c16696b97305d","6790928bebf0b969fc839b02","67929efec7adfe61a0d3fdf9","passed","","","","","","","","","","","","","","","","","ballFalling","322.3","296.07114317029976","371.46","3","fallScene","true","","","","54","",""
"","","","","","html-keyboard-response","170","684535","0.0-20.0-1.5","67915f6f598c16696b97305d","6790928bebf0b969fc839b02","67929efec7adfe61a0d3fdf9","passed","","787","","","","","","","","","","","","","","j","yesOrNo","","","","3","","","gt","3000","","54","296.07114317029976","371.46"
"","","","","","html-keyboard-response","171","686103","0.0-20.0-0.6","67915f6f598c16696b97305d","6790928bebf0b969fc839b02","67929efec7adfe61a0d3fdf9","passed","","","","","","","","","","","","","","","","","ballFalling","604.4000000000001","650.0211431702996","404.58000000000004","11","fallScene","false","","","","55","",""
"","","","","","html-keyboard-response","172","689114","0.0-20.0-1.6","67915f6f598c16696b97305d","6790928bebf0b969fc839b02","67929efec7adfe61a0d3fdf9","passed","","598","","","","","","","","","","","","","","j","yesOrNo","","","","11","","","lp","3000","","55","605.4000000000001","372.6340973215488"
"","","","","","html-keyboard-response","173","690678","0.0-20.0-0.7","67915f6f598c16696b97305d","6790928bebf0b969fc839b02","67929efec7adfe61a0d3fdf9","passed","","","","","","","","","","","","","","","","","ballFalling","322.3","356.42114317029973","357.87","4","fallScene","false","","","","56","",""
"","","","","","html-keyboard-response","174","693683","0.0-20.0-1.7","67915f6f598c16696b97305d","6790928bebf0b969fc839b02","67929efec7adfe61a0d3fdf9","passed","","791","","","","","","","","","","","","","","j","yesOrNo","","","","4","","","gt","3000","","56","356.42114317029973","357.87"
"","","","","","html-keyboard-response","175","695477","0.0-20.0-0.8","67915f6f598c16696b97305d","6790928bebf0b969fc839b02","67929efec7adfe61a0d3fdf9","passed","","","","","","","","","","","","","","","","","ballFalling","322.3","308.07114317029976","253.89","2","fallScene","false","","","","57","",""
"","","","","","html-keyboard-response","176","698496","0.0-20.0-1.8","67915f6f598c16696b97305d","6790928bebf0b969fc839b02","67929efec7adfe61a0d3fdf9","passed","","934","","","","","","","","","","","","","","f","yesOrNo","","","","2","","","lp","3000","","57","321.3","151"
"","","","","","html-keyboard-response","177","700060","0.0-20.0-0.9","67915f6f598c16696b97305d","6790928bebf0b969fc839b02","67929efec7adfe61a0d3fdf9","passed","","","","","","","","","","","","","","","","","ballFalling","500","453.67114317029973","210.33","5","fallScene","true","","","","58","",""
"","","","","","html-keyboard-response","178","703064","0.0-20.0-1.9","67915f6f598c16696b97305d","6790928bebf0b969fc839b02","67929efec7adfe61a0d3fdf9","passed","","667","","","","","","","","","","","","","","j","yesOrNo","","","","5","","","mid","3000","","58","499","300"
"","","","","","html-keyboard-response","179","705076","0.0-20.0-0.10","67915f6f598c16696b97305d","6790928bebf0b969fc839b02","67929efec7adfe61a0d3fdf9","passed","","","","","","","","","","","","","","","","","ballFalling","604.4000000000001","596.8711431702998","394.5","10","fallScene","false","","","","59","",""
"","","","","","html-keyboard-response","180","708083","0.0-20.0-1.10","67915f6f598c16696b97305d","6790928bebf0b969fc839b02","67929efec7adfe61a0d3fdf9","passed","","746","","","","","","","","","","","","","","j","yesOrNo","","","","10","","","mid","3000","","59","536.4288568297004","300"
"","","","","","html-keyboard-response","181","709659","0.0-20.0-0.11","67915f6f598c16696b97305d","6790928bebf0b969fc839b02","67929efec7adfe61a0d3fdf9","passed","","","","","","","","","","","","","","","","","ballFalling","500","553.4711431702997","282.51","7","fallScene","false","","","","60","",""
"","","","","","html-keyboard-response","182","712671","0.0-20.0-1.11","67915f6f598c16696b97305d","6790928bebf0b969fc839b02","67929efec7adfe61a0d3fdf9","passed","","151","","","","","","","","","","","","","","f","yesOrNo","","","","7","","","mid","3000","","60","501","300"
"","","","","","html-keyboard-response","183","714225","0.0-20.0-0.12","67915f6f598c16696b97305d","6790928bebf0b969fc839b02","67929efec7adfe61a0d3fdf9","passed","","","","","","","","","","","","","","","","","ballFalling","604.4000000000001","650.0211431702996","404.58000000000004","11","fallScene","false","","","","61","",""
"","","","","","html-keyboard-response","184","717238","0.0-20.0-1.12","67915f6f598c16696b97305d","6790928bebf0b969fc839b02","67929efec7adfe61a0d3fdf9","passed","","132","","","","","","","","","","","","","","f","yesOrNo","","","","11","","","gt","3000","","61","650.0211431702996","404.58"
"","","","","","html-keyboard-response","185","718792","0.0-20.0-0.13","67915f6f598c16696b97305d","6790928bebf0b969fc839b02","67929efec7adfe61a0d3fdf9","passed","","","","","","","","","","","","","","","","","ballFalling","322.3","356.42114317029973","357.87","4","fallScene","true","","","","62","",""
"","","","","","html-keyboard-response","186","721797","0.0-20.0-1.13","67915f6f598c16696b97305d","6790928bebf0b969fc839b02","67929efec7adfe61a0d3fdf9","passed","","484","","","","","","","","","","","","","","j","yesOrNo","","","","4","","","lp","3000","","62","323.3","297.4070551689986"
"","","","","","html-keyboard-response","187","723592","0.0-20.0-0.14","67915f6f598c16696b97305d","6790928bebf0b969fc839b02","67929efec7adfe61a0d3fdf9","passed","","","","","","","","","","","","","","","","","ballFalling","322.3","308.07114317029976","253.89","2","fallScene","false","","","","63","",""
"","","","","","html-keyboard-response","188","726604","0.0-20.0-1.14","67915f6f598c16696b97305d","6790928bebf0b969fc839b02","67929efec7adfe61a0d3fdf9","passed","","942","","","","","","","","","","","","","","f","yesOrNo","","","","2","","","lp","3000","","63","321.3","151"
"","","","","","html-keyboard-response","189","728258","0.0-20.0-0.15","67915f6f598c16696b97305d","6790928bebf0b969fc839b02","67929efec7adfe61a0d3fdf9","passed","","","","","","","","","","","","","","","","","ballFalling","500","479.92114317029973","330.87","6","fallScene","false","","","","64","",""
"","","","","","html-keyboard-response","190","731276","0.0-20.0-1.15","67915f6f598c16696b97305d","6790928bebf0b969fc839b02","67929efec7adfe61a0d3fdf9","passed","","733","","","","","","","","","","","","","","f","yesOrNo","","","","6","","","lp","3000","","64","499","189.92909825697632"
"","","","","","html-keyboard-response","191","733290","0.0-20.0-0.16","67915f6f598c16696b97305d","6790928bebf0b969fc839b02","67929efec7adfe61a0d3fdf9","passed","","","","","","","","","","","","","","","","","ballFalling","604.4000000000001","596.8711431702998","394.5","10","fallScene","false","","","","65","",""
"","","","","","html-keyboard-response","192","736298","0.0-20.0-1.16","67915f6f598c16696b97305d","6790928bebf0b969fc839b02","67929efec7adfe61a0d3fdf9","passed","","981","","","","","","","","","","","","","","f","yesOrNo","","","","10","","","lp","3000","","65","603.4000000000001","215.50214355555383"
"","","","","","html-keyboard-response","193","737856","0.0-20.0-0.17","67915f6f598c16696b97305d","6790928bebf0b969fc839b02","67929efec7adfe61a0d3fdf9","passed","","","","","","","","","","","","","","","","","ballFalling","604.4000000000001","650.0211431702996","404.58000000000004","11","fallScene","true","","","","66","",""
"","","","","","html-keyboard-response","194","740869","0.0-20.0-1.17","67915f6f598c16696b97305d","6790928bebf0b969fc839b02","67929efec7adfe61a0d3fdf9","passed","","1204","","","","","","","","","","","","","","j","yesOrNo","","","","11","","","mid","3000","","66","605.4000000000001","300"
"","","","","","html-keyboard-response","195","742422","0.0-20.0-0.18","67915f6f598c16696b97305d","6790928bebf0b969fc839b02","67929efec7adfe61a0d3fdf9","passed","","","","","","","","","","","","","","","","","ballFalling","604.4000000000001","575.4211431702997","266.76","12","fallScene","false","","","","67","",""
"","","","","","html-keyboard-response","196","745426","0.0-20.0-1.18","67915f6f598c16696b97305d","6790928bebf0b969fc839b02","67929efec7adfe61a0d3fdf9","passed","","485","","","","","","","","","","","","","","f","yesOrNo","","","","12","","","gt","3000","","67","575.4211431702997","266.76"
"","","","","","html-keyboard-response","197","746988","0.0-20.0-0.19","67915f6f598c16696b97305d","6790928bebf0b969fc839b02","67929efec7adfe61a0d3fdf9","passed","","","","","","","","","","","","","","","","","ballFalling","604.4000000000001","650.0211431702996","404.58000000000004","11","fallScene","true","","","","68","",""
"","","","","","html-keyboard-response","198","749993","0.0-20.0-1.19","67915f6f598c16696b97305d","6790928bebf0b969fc839b02","67929efec7adfe61a0d3fdf9","passed","","404","","","","","","","","","","","","","","j","yesOrNo","","","","11","","","lp","3000","","68","605.4000000000001","372.6340973215488"
"","","","","","html-keyboard-response","199","751554","0.0-20.0-0.20","67915f6f598c16696b97305d","6790928bebf0b969fc839b02","67929efec7adfe61a0d3fdf9","passed","","","","","","","","","","","","","","","","","ballFalling","322.3","296.07114317029976","371.46","3","fallScene","false","","","","69","",""
"","","","","","html-keyboard-response","200","754560","0.0-20.0-1.20","67915f6f598c16696b97305d","6790928bebf0b969fc839b02","67929efec7adfe61a0d3fdf9","passed","","869","","","","","","","","","","","","","","j","yesOrNo","","","","3","","","mid","3000","","69","321.3","300"
"","","","","","html-keyboard-response","201","756121","0.0-20.0-0.21","67915f6f598c16696b97305d","6790928bebf0b969fc839b02","67929efec7adfe61a0d3fdf9","passed","","","","","","","","","","","","","","","","","ballFalling","500","453.67114317029973","210.33","5","fallScene","false","","","","70","",""
"","","","","","html-keyboard-response","202","759129","0.0-20.0-1.21","67915f6f598c16696b97305d","6790928bebf0b969fc839b02","67929efec7adfe61a0d3fdf9","passed","","1000","","","","","","","","","","","","","","f","yesOrNo","","","","5","","","mid","3000","","70","499","300"
"","","","","","html-keyboard-response","203","761136","0.0-20.0-0.22","67915f6f598c16696b97305d","6790928bebf0b969fc839b02","67929efec7adfe61a0d3fdf9","passed","","","","","","","","","","","","","","","","","ballFalling","604.4000000000001","596.8711431702998","394.5","10","fallScene","true","","","","71","",""
"","","","","","html-keyboard-response","204","764142","0.0-20.0-1.22","67915f6f598c16696b97305d","6790928bebf0b969fc839b02","67929efec7adfe61a0d3fdf9","passed","","1483","","","","","","","","","","","","","","f","yesOrNo","","","","10","","","gt","3000","","71","596.8711431702998","394.5"
"","","","","","html-keyboard-response","205","765703","0.0-20.0-0.23","67915f6f598c16696b97305d","6790928bebf0b969fc839b02","67929efec7adfe61a0d3fdf9","passed","","","","","","","","","","","","","","","","","ballFalling","322.3","356.42114317029973","357.87","4","fallScene","false","","","","72","",""
"","","","","","html-keyboard-response","206","768710","0.0-20.0-1.23","67915f6f598c16696b97305d","6790928bebf0b969fc839b02","67929efec7adfe61a0d3fdf9","passed","","824","","","","","","","","","","","","","","j","yesOrNo","","","","4","","","mid","3000","","72","390.27114317029975","300"
"","","","","","html-keyboard-response","207","770551","0.0-21.0","67915f6f598c16696b97305d","6790928bebf0b969fc839b02","67929efec7adfe61a0d3fdf9","passed","","1840","","","","","","","","","","","","","<p><span style=""font-size:40px;"">BLOCK 4</span></p><p><span style=""font-size:25px;"">You have <b style=""color: #FF644F;""><strong>3 second(s)</strong></b> to respond to the following trials.</span><br></p><p></p> <!-- Blank line -->
                <p id=""blinking-text"" style=""font-weight; animation: blink 2s infinite;"">Press Space to continue</p>
                <style>
                    @keyframes blink {
                        50% {
                            opacity: 0;
                        }
                    }
                </style></p>"," ","","","","","","","","","","","","",""
"","","","","","html-keyboard-response","208","772126","0.0-22.0-0.0","67915f6f598c16696b97305d","6790928bebf0b969fc839b02","67929efec7adfe61a0d3fdf9","passed","","","","","","","","","","","","","","","","","ballFalling","604.4000000000001","650.0211431702996","404.58000000000004","11","fallScene","true","","","","73","",""
"","","","","","html-keyboard-response","209","775136","0.0-22.0-1.0","67915f6f598c16696b97305d","6790928bebf0b969fc839b02","67929efec7adfe61a0d3fdf9","passed","","794","","","","","","","","","","","","","","f","yesOrNo","","","","11","","","gt","3000","","73","650.0211431702996","404.58"
"","","","","","html-keyboard-response","210","776702","0.0-22.0-0.1","67915f6f598c16696b97305d","6790928bebf0b969fc839b02","67929efec7adfe61a0d3fdf9","passed","","","","","","","","","","","","","","","","","ballFalling","322.3","379.3711431702997","245.25","1","fallScene","true","","","","74","",""
"","","","","","html-keyboard-response","211","779720","0.0-22.0-1.1","67915f6f598c16696b97305d","6790928bebf0b969fc839b02","67929efec7adfe61a0d3fdf9","passed","","733","","","","","","","","","","","","","","j","yesOrNo","","","","1","","","mid","3000","","74","390.27114317029975","300"
"","","","","","html-keyboard-response","212","781384","0.0-22.0-0.2","67915f6f598c16696b97305d","6790928bebf0b969fc839b02","67929efec7adfe61a0d3fdf9","passed","","","","","","","","","","","","","","","","","ballFalling","500","479.92114317029973","330.87","6","fallScene","true","","","","75","",""
"","","","","","html-keyboard-response","213","784396","0.0-22.0-1.2","67915f6f598c16696b97305d","6790928bebf0b969fc839b02","67929efec7adfe61a0d3fdf9","passed","","199","","","","","","","","","","","","","","f","yesOrNo","","","","6","","","mid","3000","","75","499","300"
"","","","","","html-keyboard-response","214","785883","0.0-22.0-0.3","67915f6f598c16696b97305d","6790928bebf0b969fc839b02","67929efec7adfe61a0d3fdf9","passed","","","","","","","","","","","","","","","","","ballFalling","604.4000000000001","667.6211431702998","201.78","9","fallScene","true","","","","76","",""
"","","","","","html-keyboard-response","215","788898","0.0-22.0-1.3","67915f6f598c16696b97305d","6790928bebf0b969fc839b02","67929efec7adfe61a0d3fdf9","passed","","835","","","","","","","","","","","","","","f","yesOrNo","","","","9","","","lp","3000","","76","605.4000000000001","151"
"","","","","","html-keyboard-response","216","790450","0.0-22.0-0.4","67915f6f598c16696b97305d","6790928bebf0b969fc839b02","67929efec7adfe61a0d3fdf9","passed","","","","","","","","","","","","","","","","","ballFalling","604.4000000000001","650.0211431702996","404.58000000000004","11","fallScene","false","","","","77","",""
"","","","","","html-keyboard-response","217","793457","0.0-22.0-1.4","67915f6f598c16696b97305d","6790928bebf0b969fc839b02","67929efec7adfe61a0d3fdf9","passed","","517","","","","","","","","","","","","","","j","yesOrNo","","","","11","","","mid","3000","","77","605.4000000000001","300"
"","","","","","html-keyboard-response","218","795466","0.0-22.0-0.5","67915f6f598c16696b97305d","6790928bebf0b969fc839b02","67929efec7adfe61a0d3fdf9","passed","","","","","","","","","","","","","","","","","ballFalling","500","510.8711431702997","369.03","8","fallScene","true","","","","78","",""
"","","","","","html-keyboard-response","219","798482","0.0-22.0-1.5","67915f6f598c16696b97305d","6790928bebf0b969fc839b02","67929efec7adfe61a0d3fdf9","passed","","1306","","","","","","","","","","","","","","f","yesOrNo","","","","8","","","gt","3000","","78","510.8711431702997","369.03"
"","","","","","html-keyboard-response","220","800497","0.0-22.0-0.6","67915f6f598c16696b97305d","6790928bebf0b969fc839b02","67929efec7adfe61a0d3fdf9","passed","","","","","","","","","","","","","","","","","ballFalling","500","510.8711431702997","369.03","8","fallScene","true","","","","79","",""
"","","","","","html-keyboard-response","221","803512","0.0-22.0-1.6","67915f6f598c16696b97305d","6790928bebf0b969fc839b02","67929efec7adfe61a0d3fdf9","passed","","749","","","","","","","","","","","","","","f","yesOrNo","","","","8","","","lp","3000","","79","501","151"
"","","","","","html-keyboard-response","222","805063","0.0-22.0-0.7","67915f6f598c16696b97305d","6790928bebf0b969fc839b02","67929efec7adfe61a0d3fdf9","passed","","","","","","","","","","","","","","","","","ballFalling","322.3","296.07114317029976","371.46","3","fallScene","true","","","","80","",""
"","","","","","html-keyboard-response","223","808072","0.0-22.0-1.7","67915f6f598c16696b97305d","6790928bebf0b969fc839b02","67929efec7adfe61a0d3fdf9","passed","","966","","","","","","","","","","","","","","j","yesOrNo","","","","3","","","gt","3000","","80","296.07114317029976","371.46"
"","","","","","html-keyboard-response","224","810079","0.0-22.0-0.8","67915f6f598c16696b97305d","6790928bebf0b969fc839b02","67929efec7adfe61a0d3fdf9","passed","","","","","","","","","","","","","","","","","ballFalling","604.4000000000001","596.8711431702998","394.5","10","fallScene","false","","","","81","",""
"","","","","","html-keyboard-response","225","813088","0.0-22.0-1.8","67915f6f598c16696b97305d","6790928bebf0b969fc839b02","67929efec7adfe61a0d3fdf9","passed","","620","","","","","","","","","","","","","","f","yesOrNo","","","","10","","","gt","3000","","81","596.8711431702998","394.5"
"","","","","","html-keyboard-response","226","814582","0.0-22.0-0.9","67915f6f598c16696b97305d","6790928bebf0b969fc839b02","67929efec7adfe61a0d3fdf9","passed","","","","","","","","","","","","","","","","","ballFalling","604.4000000000001","667.6211431702998","201.78","9","fallScene","true","","","","82","",""
"","","","","","html-keyboard-response","227","817591","0.0-22.0-1.9","67915f6f598c16696b97305d","6790928bebf0b969fc839b02","67929efec7adfe61a0d3fdf9","passed","","1817","","","","","","","","","","","","","","j","yesOrNo","","","","9","","","mid","3000","","82","605.4000000000001","300"
"","","","","","html-keyboard-response","228","819596","0.0-22.0-0.10","67915f6f598c16696b97305d","6790928bebf0b969fc839b02","67929efec7adfe61a0d3fdf9","passed","","","","","","","","","","","","","","","","","ballFalling","604.4000000000001","596.8711431702998","394.5","10","fallScene","true","","","","83","",""
"","","","","","html-keyboard-response","229","822608","0.0-22.0-1.10","67915f6f598c16696b97305d","6790928bebf0b969fc839b02","67929efec7adfe61a0d3fdf9","passed","","938","","","","","","","","","","","","","","f","yesOrNo","","","","10","","","lp","3000","","83","603.4000000000001","215.50214355555383"
"","","","","","html-keyboard-response","230","824164","0.0-22.0-0.11","67915f6f598c16696b97305d","6790928bebf0b969fc839b02","67929efec7adfe61a0d3fdf9","passed","","","","","","","","","","","","","","","","","ballFalling","500","453.67114317029973","210.33","5","fallScene","false","","","","84","",""
"","","","","","html-keyboard-response","231","827171","0.0-22.0-1.11","67915f6f598c16696b97305d","6790928bebf0b969fc839b02","67929efec7adfe61a0d3fdf9","passed","","1650","","","","","","","","","","","","","","j","yesOrNo","","","","5","","","lp","3000","","84","499","151"
"","","","","","html-keyboard-response","232","828747","0.0-22.0-0.12","67915f6f598c16696b97305d","6790928bebf0b969fc839b02","67929efec7adfe61a0d3fdf9","passed","","","","","","","","","","","","","","","","","ballFalling","500","553.4711431702997","282.51","7","fallScene","false","","","","85","",""
"","","","","","html-keyboard-response","233","831754","0.0-22.0-1.12","67915f6f598c16696b97305d","6790928bebf0b969fc839b02","67929efec7adfe61a0d3fdf9","passed","","704","","","","","","","","","","","","","","f","yesOrNo","","","","7","","","gt","3000","","85","553.4711431702997","282.51"
"","","","","","html-keyboard-response","234","833412","0.0-22.0-0.13","67915f6f598c16696b97305d","6790928bebf0b969fc839b02","67929efec7adfe61a0d3fdf9","passed","","","","","","","","","","","","","","","","","ballFalling","500","479.92114317029973","330.87","6","fallScene","false","","","","86","",""
"","","","","","html-keyboard-response","235","836418","0.0-22.0-1.13","67915f6f598c16696b97305d","6790928bebf0b969fc839b02","67929efec7adfe61a0d3fdf9","passed","","1584","","","","","","","","","","","","","","j","yesOrNo","","","","6","","","gt","3000","","86","479.9211431702998","330.87"
"","","","","","html-keyboard-response","236","837978","0.0-22.0-0.14","67915f6f598c16696b97305d","6790928bebf0b969fc839b02","67929efec7adfe61a0d3fdf9","passed","","","","","","","","","","","","","","","","","ballFalling","604.4000000000001","575.4211431702997","266.76","12","fallScene","false","","","","87","",""
"","","","","","html-keyboard-response","237","840991","0.0-22.0-1.14","67915f6f598c16696b97305d","6790928bebf0b969fc839b02","67929efec7adfe61a0d3fdf9","passed","","905","","","","","","","","","","","","","","f","yesOrNo","","","","12","","","mid","3000","","87","536.4288568297004","300"
"","","","","","html-keyboard-response","238","842995","0.0-22.0-0.15","67915f6f598c16696b97305d","6790928bebf0b969fc839b02","67929efec7adfe61a0d3fdf9","passed","","","","","","","","","","","","","","","","","ballFalling","604.4000000000001","596.8711431702998","394.5","10","fallScene","false","","","","88","",""
"","","","","","html-keyboard-response","239","846014","0.0-22.0-1.15","67915f6f598c16696b97305d","6790928bebf0b969fc839b02","67929efec7adfe61a0d3fdf9","passed","","803","","","","","","","","","","","","","","f","yesOrNo","","","","10","","","mid","3000","","88","536.4288568297004","300"
"","","","","","html-keyboard-response","240","847578","0.0-22.0-0.16","67915f6f598c16696b97305d","6790928bebf0b969fc839b02","67929efec7adfe61a0d3fdf9","passed","","","","","","","","","","","","","","","","","ballFalling","604.4000000000001","575.4211431702997","266.76","12","fallScene","true","","","","89","",""
"","","","","","html-keyboard-response","241","850598","0.0-22.0-1.16","67915f6f598c16696b97305d","6790928bebf0b969fc839b02","67929efec7adfe61a0d3fdf9","passed","","899","","","","","","","","","","","","","","f","yesOrNo","","","","12","","","gt","3000","","89","575.4211431702997","266.76"
"","","","","","html-keyboard-response","242","852099","0.0-22.0-0.17","67915f6f598c16696b97305d","6790928bebf0b969fc839b02","67929efec7adfe61a0d3fdf9","passed","","","","","","","","","","","","","","","","","ballFalling","604.4000000000001","667.6211431702998","201.78","9","fallScene","true","","","","90","",""
"","","","","","html-keyboard-response","243","855113","0.0-22.0-1.17","67915f6f598c16696b97305d","6790928bebf0b969fc839b02","67929efec7adfe61a0d3fdf9","passed","","781","","","","","","","","","","","","","","f","yesOrNo","","","","9","","","gt","3000","","90","667.6211431702998","201.78"
"","","","","","html-keyboard-response","244","856681","0.0-22.0-0.18","67915f6f598c16696b97305d","6790928bebf0b969fc839b02","67929efec7adfe61a0d3fdf9","passed","","","","","","","","","","","","","","","","","ballFalling","322.3","379.3711431702997","245.25","1","fallScene","true","","","","91","",""
"","","","","","html-keyboard-response","245","859689","0.0-22.0-1.18","67915f6f598c16696b97305d","6790928bebf0b969fc839b02","67929efec7adfe61a0d3fdf9","passed","","738","","","","","","","","","","","","","","j","yesOrNo","","","","1","","","lp","3000","","91","323.3","217.74551669457017"
"","","","","","html-keyboard-response","246","861475","0.0-22.0-0.19","67915f6f598c16696b97305d","6790928bebf0b969fc839b02","67929efec7adfe61a0d3fdf9","passed","","","","","","","","","","","","","","","","","ballFalling","322.3","308.07114317029976","253.89","2","fallScene","true","","","","92","",""
"","","","","","html-keyboard-response","247","864480","0.0-22.0-1.19","67915f6f598c16696b97305d","6790928bebf0b969fc839b02","67929efec7adfe61a0d3fdf9","passed","","784","","","","","","","","","","","","","","j","yesOrNo","","","","2","","","mid","3000","","92","321.3","300"
"","","","","","html-keyboard-response","248","866275","0.0-22.0-0.20","67915f6f598c16696b97305d","6790928bebf0b969fc839b02","67929efec7adfe61a0d3fdf9","passed","","","","","","","","","","","","","","","","","ballFalling","322.3","308.07114317029976","253.89","2","fallScene","true","","","","93","",""
"","","","","","html-keyboard-response","249","869289","0.0-22.0-1.20","67915f6f598c16696b97305d","6790928bebf0b969fc839b02","67929efec7adfe61a0d3fdf9","passed","","1356","","","","","","","","","","","","","","j","yesOrNo","","","","2","","","gt","3000","","93","308.07114317029976","253.89"
"","","","","","html-keyboard-response","250","870843","0.0-22.0-0.21","67915f6f598c16696b97305d","6790928bebf0b969fc839b02","67929efec7adfe61a0d3fdf9","passed","","","","","","","","","","","","","","","","","ballFalling","322.3","296.07114317029976","371.46","3","fallScene","false","","","","94","",""
"","","","","","html-keyboard-response","251","873847","0.0-22.0-1.21","67915f6f598c16696b97305d","6790928bebf0b969fc839b02","67929efec7adfe61a0d3fdf9","passed","","817","","","","","","","","","","","","","","j","yesOrNo","","","","3","","","lp","3000","","94","321.3","287.3327096511259"
"","","","","","html-keyboard-response","252","875424","0.0-22.0-0.22","67915f6f598c16696b97305d","6790928bebf0b969fc839b02","67929efec7adfe61a0d3fdf9","passed","","","","","","","","","","","","","","","","","ballFalling","500","553.4711431702997","282.51","7","fallScene","true","","","","95","",""
"","","","","","html-keyboard-response","253","878438","0.0-22.0-1.22","67915f6f598c16696b97305d","6790928bebf0b969fc839b02","67929efec7adfe61a0d3fdf9","passed","","818","","","","","","","","","","","","","","j","yesOrNo","","","","7","","","mid","3000","","95","501","300"
"","","","","","html-keyboard-response","254","879990","0.0-22.0-0.23","67915f6f598c16696b97305d","6790928bebf0b969fc839b02","67929efec7adfe61a0d3fdf9","passed","","","","","","","","","","","","","","","","","ballFalling","322.3","356.42114317029973","357.87","4","fallScene","false","","","","96","",""
"","","","","","html-keyboard-response","255","882995","0.0-22.0-1.23","67915f6f598c16696b97305d","6790928bebf0b969fc839b02","67929efec7adfe61a0d3fdf9","passed","","769","","","","","","","","","","","","","","j","yesOrNo","","","","4","","","gt","3000","","96","356.42114317029973","357.87"
"","","","","","html-keyboard-response","256","887112","0.0-23.0","67915f6f598c16696b97305d","6790928bebf0b969fc839b02","67929efec7adfe61a0d3fdf9","passed","","4115","","","","","","","","","","","","","<p><span style=""font-size:40px;"">BLOCK 5</span></p><p><span style=""font-size:25px;"">You have <b style=""color: #FF644F;""><strong>1 second(s)</strong></b> to respond to the following trials.</span><br></p><p></p> <!-- Blank line -->
                <p id=""blinking-text"" style=""font-weight; animation: blink 2s infinite;"">Press Space to continue</p>
                <style>
                    @keyframes blink {
                        50% {
                            opacity: 0;
                        }
                    }
                </style></p>"," ","","","","","","","","","","","","",""
"","","","","","html-keyboard-response","257","888672","0.0-24.0-0.0","67915f6f598c16696b97305d","6790928bebf0b969fc839b02","67929efec7adfe61a0d3fdf9","passed","","","","","","","","","","","","","","","","","ballFalling","604.4000000000001","575.4211431702997","266.76","12","fallScene","false","","","","97","",""
"","","","","","html-keyboard-response","258","889677","0.0-24.0-1.0","67915f6f598c16696b97305d","6790928bebf0b969fc839b02","67929efec7adfe61a0d3fdf9","passed","","151","","","","","","","","","","","","","","j","yesOrNo","","","","12","","","lp","1000","","97","603.4000000000001","151"
"","","","","","html-keyboard-response","259","891256","0.0-24.0-0.1","67915f6f598c16696b97305d","6790928bebf0b969fc839b02","67929efec7adfe61a0d3fdf9","passed","","","","","","","","","","","","","","","","","ballFalling","500","553.4711431702997","282.51","7","fallScene","false","","","","98","",""
"","","","","","html-keyboard-response","260","892262","0.0-24.0-1.1","67915f6f598c16696b97305d","6790928bebf0b969fc839b02","67929efec7adfe61a0d3fdf9","passed","","969","","","","","","","","","","","","","","f","yesOrNo","","","","7","","","lp","1000","","98","501","227.2843295913261"
"","","","","","html-keyboard-response","261","894053","0.0-24.0-0.2","67915f6f598c16696b97305d","6790928bebf0b969fc839b02","67929efec7adfe61a0d3fdf9","passed","","","","","","","","","","","","","","","","","ballFalling","322.3","308.07114317029976","253.89","2","fallScene","false","","","","99","",""
"","","","","","html-keyboard-response","262","895068","0.0-24.0-1.2","67915f6f598c16696b97305d","6790928bebf0b969fc839b02","67929efec7adfe61a0d3fdf9","passed","","796","","","","","","","","","","","","","","f","yesOrNo","","","","2","","","gt","1000","","99","308.07114317029976","253.89"
"","","","","","html-keyboard-response","263","897070","0.0-24.0-0.3","67915f6f598c16696b97305d","6790928bebf0b969fc839b02","67929efec7adfe61a0d3fdf9","passed","","","","","","","","","","","","","","","","","ballFalling","604.4000000000001","596.8711431702998","394.5","10","fallScene","true","","","","100","",""
"","","","","","html-keyboard-response","264","898081","0.0-24.0-1.3","67915f6f598c16696b97305d","6790928bebf0b969fc839b02","67929efec7adfe61a0d3fdf9","passed","","734","","","","","","","","","","","","","","f","yesOrNo","","","","10","","","mid","1000","","100","536.4288568297004","300"
"","","","","","html-keyboard-response","265","899654","0.0-24.0-0.4","67915f6f598c16696b97305d","6790928bebf0b969fc839b02","67929efec7adfe61a0d3fdf9","passed","","","","","","","","","","","","","","","","","ballFalling","500","553.4711431702997","282.51","7","fallScene","true","","","","101","",""
"","","","","","html-keyboard-response","266","900660","0.0-24.0-1.4","67915f6f598c16696b97305d","6790928bebf0b969fc839b02","67929efec7adfe61a0d3fdf9","passed","","723","","","","","","","","","","","","","","f","yesOrNo","","","","7","","","lp","1000","","101","501","227.2843295913261"
"","","","","","html-keyboard-response","267","902320","0.0-24.0-0.5","67915f6f598c16696b97305d","6790928bebf0b969fc839b02","67929efec7adfe61a0d3fdf9","passed","","","","","","","","","","","","","","","","","ballFalling","500","479.92114317029973","330.87","6","fallScene","false","","","","102","",""
"","","","","","html-keyboard-response","268","903325","0.0-24.0-1.5","67915f6f598c16696b97305d","6790928bebf0b969fc839b02","67929efec7adfe61a0d3fdf9","passed","","null","","","","","","","","","","","","","","null","yesOrNo","","","","6","","","gt","1000","","102","479.9211431702998","330.87"
"","","","","","html-keyboard-response","269","904986","0.0-24.0-0.6","67915f6f598c16696b97305d","6790928bebf0b969fc839b02","67929efec7adfe61a0d3fdf9","passed","","","","","","","","","","","","","","","","","ballFalling","500","479.92114317029973","330.87","6","fallScene","true","","","","103","",""
"","","","","","html-keyboard-response","270","906000","0.0-24.0-1.6","67915f6f598c16696b97305d","6790928bebf0b969fc839b02","67929efec7adfe61a0d3fdf9","passed","","716","","","","","","","","","","","","","","j","yesOrNo","","","","6","","","gt","1000","","103","479.9211431702998","330.87"
"","","","","","html-keyboard-response","271","907553","0.0-24.0-0.7","67915f6f598c16696b97305d","6790928bebf0b969fc839b02","67929efec7adfe61a0d3fdf9","passed","","","","","","","","","","","","","","","","","ballFalling","322.3","379.3711431702997","245.25","1","fallScene","true","","","","104","",""
"","","","","","html-keyboard-response","272","908558","0.0-24.0-1.7","67915f6f598c16696b97305d","6790928bebf0b969fc839b02","67929efec7adfe61a0d3fdf9","passed","","934","","","","","","","","","","","","","","f","yesOrNo","","","","1","","","mid","1000","","104","390.27114317029975","300"
"","","","","","html-keyboard-response","273","910120","0.0-24.0-0.8","67915f6f598c16696b97305d","6790928bebf0b969fc839b02","67929efec7adfe61a0d3fdf9","passed","","","","","","","","","","","","","","","","","ballFalling","500","453.67114317029973","210.33","5","fallScene","true","","","","105","",""
"","","","","","html-keyboard-response","274","911132","0.0-24.0-1.8","67915f6f598c16696b97305d","6790928bebf0b969fc839b02","67929efec7adfe61a0d3fdf9","passed","","740","","","","","","","","","","","","","","f","yesOrNo","","","","5","","","lp","1000","","105","499","151"
"","","","","","html-keyboard-response","275","912684","0.0-24.0-0.9","67915f6f598c16696b97305d","6790928bebf0b969fc839b02","67929efec7adfe61a0d3fdf9","passed","","","","","","","","","","","","","","","","","ballFalling","604.4000000000001","575.4211431702997","266.76","12","fallScene","true","","","","106","",""
"","","","","","html-keyboard-response","276","913699","0.0-24.0-1.9","67915f6f598c16696b97305d","6790928bebf0b969fc839b02","67929efec7adfe61a0d3fdf9","passed","","787","","","","","","","","","","","","","","f","yesOrNo","","","","12","","","lp","1000","","106","603.4000000000001","151"
"","","","","","html-keyboard-response","277","915701","0.0-24.0-0.10","67915f6f598c16696b97305d","6790928bebf0b969fc839b02","67929efec7adfe61a0d3fdf9","passed","","","","","","","","","","","","","","","","","ballFalling","500","510.8711431702997","369.03","8","fallScene","true","","","","107","",""
"","","","","","html-keyboard-response","278","916716","0.0-24.0-1.10","67915f6f598c16696b97305d","6790928bebf0b969fc839b02","67929efec7adfe61a0d3fdf9","passed","","740","","","","","","","","","","","","","","f","yesOrNo","","","","8","","","gt","1000","","107","510.8711431702997","369.03"
"","","","","","html-keyboard-response","279","918268","0.0-24.0-0.11","67915f6f598c16696b97305d","6790928bebf0b969fc839b02","67929efec7adfe61a0d3fdf9","passed","","","","","","","","","","","","","","","","","ballFalling","604.4000000000001","650.0211431702996","404.58000000000004","11","fallScene","false","","","","108","",""
"","","","","","html-keyboard-response","280","919286","0.0-24.0-1.11","67915f6f598c16696b97305d","6790928bebf0b969fc839b02","67929efec7adfe61a0d3fdf9","passed","","null","","","","","","","","","","","","","","null","yesOrNo","","","","11","","","lp","1000","","108","605.4000000000001","372.6340973215488"
"","","","","","html-keyboard-response","281","921301","0.0-24.0-0.12","67915f6f598c16696b97305d","6790928bebf0b969fc839b02","67929efec7adfe61a0d3fdf9","passed","","","","","","","","","","","","","","","","","ballFalling","500","510.8711431702997","369.03","8","fallScene","true","","","","109","",""
"","","","","","html-keyboard-response","282","922315","0.0-24.0-1.12","67915f6f598c16696b97305d","6790928bebf0b969fc839b02","67929efec7adfe61a0d3fdf9","passed","","421","","","","","","","","","","","","","","f","yesOrNo","","","","8","","","lp","1000","","109","501","151"
"","","","","","html-keyboard-response","283","923866","0.0-24.0-0.13","67915f6f598c16696b97305d","6790928bebf0b969fc839b02","67929efec7adfe61a0d3fdf9","passed","","","","","","","","","","","","","","","","","ballFalling","322.3","296.07114317029976","371.46","3","fallScene","false","","","","110","",""
"","","","","","html-keyboard-response","284","924882","0.0-24.0-1.13","67915f6f598c16696b97305d","6790928bebf0b969fc839b02","67929efec7adfe61a0d3fdf9","passed","","651","","","","","","","","","","","","","","f","yesOrNo","","","","3","","","gt","1000","","110","296.07114317029976","371.46"
"","","","","","html-keyboard-response","285","926533","0.0-24.0-0.14","67915f6f598c16696b97305d","6790928bebf0b969fc839b02","67929efec7adfe61a0d3fdf9","passed","","","","","","","","","","","","","","","","","ballFalling","500","479.92114317029973","330.87","6","fallScene","true","","","","111","",""
"","","","","","html-keyboard-response","286","927541","0.0-24.0-1.14","67915f6f598c16696b97305d","6790928bebf0b969fc839b02","67929efec7adfe61a0d3fdf9","passed","","474","","","","","","","","","","","","","","j","yesOrNo","","","","6","","","mid","1000","","111","499","300"
"","","","","","html-keyboard-response","287","929100","0.0-24.0-0.15","67915f6f598c16696b97305d","6790928bebf0b969fc839b02","67929efec7adfe61a0d3fdf9","passed","","","","","","","","","","","","","","","","","ballFalling","322.3","296.07114317029976","371.46","3","fallScene","false","","","","112","",""
"","","","","","html-keyboard-response","288","930114","0.0-24.0-1.15","67915f6f598c16696b97305d","6790928bebf0b969fc839b02","67929efec7adfe61a0d3fdf9","passed","","783","","","","","","","","","","","","","","j","yesOrNo","","","","3","","","mid","1000","","112","321.3","300"
"","","","","","html-keyboard-response","289","932116","0.0-24.0-0.16","67915f6f598c16696b97305d","6790928bebf0b969fc839b02","67929efec7adfe61a0d3fdf9","passed","","","","","","","","","","","","","","","","","ballFalling","500","510.8711431702997","369.03","8","fallScene","true","","","","113","",""
"","","","","","html-keyboard-response","290","933131","0.0-24.0-1.16","67915f6f598c16696b97305d","6790928bebf0b969fc839b02","67929efec7adfe61a0d3fdf9","passed","","775","","","","","","","","","","","","","","f","yesOrNo","","","","8","","","gt","1000","","113","510.8711431702997","369.03"
"","","","","","html-keyboard-response","291","934683","0.0-24.0-0.17","67915f6f598c16696b97305d","6790928bebf0b969fc839b02","67929efec7adfe61a0d3fdf9","passed","","","","","","","","","","","","","","","","","ballFalling","322.3","296.07114317029976","371.46","3","fallScene","true","","","","114","",""
"","","","","","html-keyboard-response","292","935690","0.0-24.0-1.17","67915f6f598c16696b97305d","6790928bebf0b969fc839b02","67929efec7adfe61a0d3fdf9","passed","","458","","","","","","","","","","","","","","j","yesOrNo","","","","3","","","lp","1000","","114","321.3","287.3327096511259"
"","","","","","html-keyboard-response","293","937698","0.0-24.0-0.18","67915f6f598c16696b97305d","6790928bebf0b969fc839b02","67929efec7adfe61a0d3fdf9","passed","","","","","","","","","","","","","","","","","ballFalling","604.4000000000001","596.8711431702998","394.5","10","fallScene","true","","","","115","",""
"","","","","","html-keyboard-response","294","938706","0.0-24.0-1.18","67915f6f598c16696b97305d","6790928bebf0b969fc839b02","67929efec7adfe61a0d3fdf9","passed","","589","","","","","","","","","","","","","","f","yesOrNo","","","","10","","","gt","1000","","115","596.8711431702998","394.5"
"","","","","","html-keyboard-response","295","940498","0.0-24.0-0.19","67915f6f598c16696b97305d","6790928bebf0b969fc839b02","67929efec7adfe61a0d3fdf9","passed","","","","","","","","","","","","","","","","","ballFalling","322.3","308.07114317029976","253.89","2","fallScene","true","","","","116","",""
"","","","","","html-keyboard-response","296","941512","0.0-24.0-1.19","67915f6f598c16696b97305d","6790928bebf0b969fc839b02","67929efec7adfe61a0d3fdf9","passed","","738","","","","","","","","","","","","","","j","yesOrNo","","","","2","","","lp","1000","","116","321.3","151"
"","","","","","html-keyboard-response","297","943066","0.0-24.0-0.20","67915f6f598c16696b97305d","6790928bebf0b969fc839b02","67929efec7adfe61a0d3fdf9","passed","","","","","","","","","","","","","","","","","ballFalling","604.4000000000001","650.0211431702996","404.58000000000004","11","fallScene","false","","","","117","",""
"","","","","","html-keyboard-response","298","944073","0.0-24.0-1.20","67915f6f598c16696b97305d","6790928bebf0b969fc839b02","67929efec7adfe61a0d3fdf9","passed","","750","","","","","","","","","","","","","","f","yesOrNo","","","","11","","","lp","1000","","117","605.4000000000001","372.6340973215488"
"","","","","","html-keyboard-response","299","945732","0.0-24.0-0.21","67915f6f598c16696b97305d","6790928bebf0b969fc839b02","67929efec7adfe61a0d3fdf9","passed","","","","","","","","","","","","","","","","","ballFalling","500","479.92114317029973","330.87","6","fallScene","false","","","","118","",""
"","","","","","html-keyboard-response","300","946742","0.0-24.0-1.21","67915f6f598c16696b97305d","6790928bebf0b969fc839b02","67929efec7adfe61a0d3fdf9","passed","","null","","","","","","","","","","","","","","null","yesOrNo","","","","6","","","lp","1000","","118","499","189.92909825697632"
"","","","","","html-keyboard-response","301","948401","0.0-24.0-0.22","67915f6f598c16696b97305d","6790928bebf0b969fc839b02","67929efec7adfe61a0d3fdf9","passed","","","","","","","","","","","","","","","","","ballFalling","500","479.92114317029973","330.87","6","fallScene","true","","","","119","",""
"","","","","","html-keyboard-response","302","949410","0.0-24.0-1.22","67915f6f598c16696b97305d","6790928bebf0b969fc839b02","67929efec7adfe61a0d3fdf9","passed","","null","","","","","","","","","","","","","","null","yesOrNo","","","","6","","","lp","1000","","119","499","189.92909825697632"
"","","","","","html-keyboard-response","303","951197","0.0-24.0-0.23","67915f6f598c16696b97305d","6790928bebf0b969fc839b02","67929efec7adfe61a0d3fdf9","passed","","","","","","","","","","","","","","","","","ballFalling","322.3","308.07114317029976","253.89","2","fallScene","true","","","","120","",""
"","","","","","html-keyboard-response","304","952209","0.0-24.0-1.23","67915f6f598c16696b97305d","6790928bebf0b969fc839b02","67929efec7adfe61a0d3fdf9","passed","","852","","","","","","","","","","","","","","j","yesOrNo","","","","2","","","gt","1000","","120","308.07114317029976","253.89"
"","","","","","html-keyboard-response","305","953433","0.0-25.0","67915f6f598c16696b97305d","6790928bebf0b969fc839b02","67929efec7adfe61a0d3fdf9","passed","","1223","","","","","","","","","","","","","<p><span style=""font-size:40px;"">BLOCK 6</span></p><p><span style=""font-size:25px;"">You have <b style=""color: #FF644F;""><strong>1 second(s)</strong></b> to respond to the following trials.</span><br></p><p></p> <!-- Blank line -->
                <p id=""blinking-text"" style=""font-weight; animation: blink 2s infinite;"">Press Space to continue</p>
                <style>
                    @keyframes blink {
                        50% {
                            opacity: 0;
                        }
                    }
                </style></p>"," ","","","","","","","","","","","","",""
"","","","","","html-keyboard-response","306","954997","0.0-26.0-0.0","67915f6f598c16696b97305d","6790928bebf0b969fc839b02","67929efec7adfe61a0d3fdf9","passed","","","","","","","","","","","","","","","","","ballFalling","322.3","296.07114317029976","371.46","3","fallScene","true","","","","121","",""
"","","","","","html-keyboard-response","307","956006","0.0-26.0-1.0","67915f6f598c16696b97305d","6790928bebf0b969fc839b02","67929efec7adfe61a0d3fdf9","passed","","515","","","","","","","","","","","","","","j","yesOrNo","","","","3","","","mid","1000","","121","321.3","300"
