"success","timeout","failed_images","failed_audio","failed_video","trial_type","trial_index","time_elapsed","internal_node_id","subject_id","study_id","session_id","practiceTestResult","view_history","rt","width","height","webaudio","browser","browser_version","mobile","os","fullscreen","vsync_rate","webcam","microphone","url","stimulus","response","task","ball_X","obstacle_groundTruth_x","obstacle_groundTruth_y","stimulus_idx","trial_name","flipped","choice","timeLimit","question_order","comprehensionCheck","currentTrial","obstacle_choice_x","obstacle_choice_y"
"true","false","[]","[]","[]","preload","0","364","0.0-0.0","6792fcd5751aea26106a7e13","6790928bebf0b969fc839b02","679826e1de93adbd5c34a650","passed","","","","","","","","","","","","","","","","","","","","","","","","","","","","","",""
"","","","","","instructions","1","14289","0.0-1.0","6792fcd5751aea26106a7e13","6790928bebf0b969fc839b02","679826e1de93adbd5c34a650","passed","[{""page_index"":0,""viewing_time"":13924}]","13925","","","","","","","","","","","","","","","","","","","","","","","","","","","",""
"","","","","","browser-check","2","15281","0.0-2.0","6792fcd5751aea26106a7e13","6790928bebf0b969fc839b02","679826e1de93adbd5c34a650","passed","","","1480","846","true","chrome","131.0.0","false","Mac OS","true","60.66","true","true","","","","","","","","","","","","","","","","",""
"","","","","","external-html","3","26240","0.0-3.0","6792fcd5751aea26106a7e13","6790928bebf0b969fc839b02","679826e1de93adbd5c34a650","passed","","10879","","","","","","","","","","","","consent.html","","","","","","","","","","","","","","","",""
"true","","","","","fullscreen","4","28282","0.0-4.0","6792fcd5751aea26106a7e13","6790928bebf0b969fc839b02","679826e1de93adbd5c34a650","passed","","1734","","","","","","","","","","","","","","","","","","","","","","","","","","","",""
"","","","","","browser-check","5","29281","0.0-5.0","6792fcd5751aea26106a7e13","6790928bebf0b969fc839b02","679826e1de93adbd5c34a650","passed","","","1680","1050","true","chrome","131.0.0","false","Mac OS","true","60.13","true","true","","","","","","","","","","","","","","","","",""
"","","","","","html-keyboard-response","6","35545","0.0-6.0","6792fcd5751aea26106a7e13","6790928bebf0b969fc839b02","679826e1de93adbd5c34a650","passed","","4782","","","","","","","","","","","","","<p><b>This experiment requires keyboard input.</b></p> 
        <p><b>To ensure your response will be recorded successfully, please press 'Space' to continue.</b></p>
        <p>If you can't proceed, you won't be able to complete this study.</p>
        <p></p> <!-- Blank line -->
        <p id=""blinking-text"" style=""font-weight; animation: blink 2s infinite;"">Press Space to continue</p>
        <style>
            @keyframes blink {
                50% {
                    opacity: 0;
                }
            }
        </style>"," ","","","","","","","","","","","","","",""
"","","","","","html-keyboard-response","7","40212","0.0-7.0","6792fcd5751aea26106a7e13","6790928bebf0b969fc839b02","679826e1de93adbd5c34a650","passed","","4666","","","","","","","","","","","","","<p><b>This experiment requires keyboard input.</b></p> 
        <p><b>To ensure your response will be recorded successfully, please press the 'f' key to continue.</b></p>
        <p>If you can't proceed, you won't be able to complete this study.</p>
        <p></p> <!-- Blank line -->
        <p id=""blinking-text"" style=""font-weight; animation: blink 2s infinite;"">Press f to continue</p>
        <style>
            @keyframes blink {
                50% {
                    opacity: 0;
                }
            }
        </style>","f","","","","","","","","","","","","","",""
"","","","","","html-keyboard-response","8","44019","0.0-8.0","6792fcd5751aea26106a7e13","6790928bebf0b969fc839b02","679826e1de93adbd5c34a650","passed","","3807","","","","","","","","","","","","","<p><b>This experiment requires keyboard input.</b></p> 
        <p><b>To ensure your response will be recorded successfully, please press the 'j' key to continue.</b></p>
        <p>If you can't proceed, you won't be able to complete this study.</p>
        <p></p> <!-- Blank line -->
        <p id=""blinking-text"" style=""font-weight; animation: blink 2s infinite;"">Press j to continue</p>
        <style>
            @keyframes blink {
                50% {
                    opacity: 0;
                }
            }
        </style>","j","","","","","","","","","","","","","",""
"","","","","","browser-check","9","45029","0.0-9.0","6792fcd5751aea26106a7e13","6790928bebf0b969fc839b02","679826e1de93adbd5c34a650","passed","","","1680","1050","true","chrome","131.0.0","false","Mac OS","true","59.99","true","true","","","","","","","","","","","","","","","","",""
"","","","","","survey-text","10","59738","0.0-10.0","6792fcd5751aea26106a7e13","6790928bebf0b969fc839b02","679826e1de93adbd5c34a650","passed","","14707","","","","","","","","","","","","","","{""prolificID"":""6792fcd5751aea26106a7e13""}","","","","","","","","","","","","","",""
"","","","","","instructions","11","141114","0.0-11.0-0.0-0.0","6792fcd5751aea26106a7e13","6790928bebf0b969fc839b02","679826e1de93adbd5c34a650","passed","[{""page_index"":0,""viewing_time"":35223},{""page_index"":1,""viewing_time"":29804},{""page_index"":2,""viewing_time"":8632},{""page_index"":3,""viewing_time"":7715}]","81375","","","","","","","","","","","","","","","","","","","","","","","","","","","",""
"","","","","","html-keyboard-response","12","165061","0.0-11.0-0.0-1.0","6792fcd5751aea26106a7e13","6790928bebf0b969fc839b02","679826e1de93adbd5c34a650","passed","","23445","","","","","","","","","","","","","<br>Remember! After a ball falls, the screen will disappear, and you'll decide if the proposed position is where the hidden triangle was. <br>You will now practice this by watching a few videos and making decisions.<p>To respond:<br style=""margin-bottom: 5px; text-indent: -20px; padding-left: 20px;"">- Press <b style=""color: #12AD2B;"">J for Yes</b>, if you think the triangle is in the correct position.<br style=""margin-top: 0; text-indent: -20px; padding-left: 20px;"">- Press <b style=""color: orange;"">F for No</b>, if you think the triangle is not in the correct position.</p><p>In this practice round, there is no time limit. Focus on getting comfortable with the task first.<br>Press either J or F to begin your practice trials.</p><img src = ""YesOrNo_instruction.png"" style=""width: 65%;""></img>","f","","","","","","","","","","","","","",""
"","","","","","html-keyboard-response","13","166612","0.0-11.0-0.0-2.0-0.0","6792fcd5751aea26106a7e13","6790928bebf0b969fc839b02","679826e1de93adbd5c34a650","passed","","","","","","","","","","","","","","","","","ballFalling_prac","416","464","296","1","fallScene","false","","","","","","",""
"","","","","","html-keyboard-response","14","168690","0.0-11.0-0.0-2.0-1.0","6792fcd5751aea26106a7e13","6790928bebf0b969fc839b02","679826e1de93adbd5c34a650","passed","","2075","","","","","","","","","","","","","","j","yesOrNo_prac_noTimed","","","","1","","","gt","NA","","","","",""
"","","","","","html-keyboard-response","15","170795","0.0-11.0-0.0-2.0-0.1","6792fcd5751aea26106a7e13","6790928bebf0b969fc839b02","679826e1de93adbd5c34a650","passed","","","","","","","","","","","","","","","","","ballFalling_prac","660","666","350","3","fallScene","false","","","","","","",""
"","","","","","html-keyboard-response","16","173551","0.0-11.0-0.0-2.0-1.1","6792fcd5751aea26106a7e13","6790928bebf0b969fc839b02","679826e1de93adbd5c34a650","passed","","2754","","","","","","","","","","","","","","f","yesOrNo_prac_noTimed","","","","3","","","wrong direction","NA","","","","",""
"","","","","","html-keyboard-response","17","175128","0.0-11.0-0.0-2.0-0.2","6792fcd5751aea26106a7e13","6790928bebf0b969fc839b02","679826e1de93adbd5c34a650","passed","","","","","","","","","","","","","","","","","ballFalling_prac","441","414","302","5","fallScene","true","","","","","","",""
"","","","","","html-keyboard-response","18","178044","0.0-11.0-0.0-2.0-1.2","6792fcd5751aea26106a7e13","6790928bebf0b969fc839b02","679826e1de93adbd5c34a650","passed","","2914","","","","","","","","","","","","","","j","yesOrNo_prac_noTimed","","","","5","","","close gt","NA","","","","",""
"","","","","","instructions","19","214398","0.0-11.0-0.0-3.0","6792fcd5751aea26106a7e13","6790928bebf0b969fc839b02","679826e1de93adbd5c34a650","passed","[{""page_index"":0,""viewing_time"":32471},{""page_index"":1,""viewing_time"":3883}]","36354","","","","","","","","","","","","","","","","","","","","","","","","","","","",""
"","","","","","html-button-response","20","219454","0.0-11.0-0.0-4.0","6792fcd5751aea26106a7e13","6790928bebf0b969fc839b02","679826e1de93adbd5c34a650","passed","","4554","","","","","","","","","","","","","<p>To make sure you understood the task, we just have a <b>brief quiz</b> here.</p><p>If you need to review the instructions, click 'Previous'.</p><p>It's important to understand the task to do the study, so you have to pass the quiz to move to the study.</p>","1","","","","","","","","","","","","","",""
"","","","","","survey-multi-choice","21","241603","0.0-11.0-1.0-0.0","6792fcd5751aea26106a7e13","6790928bebf0b969fc839b02","679826e1de93adbd5c34a650","passed","","22148","","","","","","","","","","","","","","{""generalProcedure"":""Watch a video of a ball falling, some of it behind a gray screen. After each video, decide if the triangle is at the spot where the ball hit the triangle behind the screen. There is time limit for the response.""}","","","","","","","","","","[0]","","","",""
"","","","","","survey-multi-choice","22","247067","0.0-11.0-1.0-1.0","6792fcd5751aea26106a7e13","6790928bebf0b969fc839b02","679826e1de93adbd5c34a650","passed","","5463","","","","","","","","","","","","","","{""checkBallHitObstacle"":""Yes.""}","","","","","","","","","","[0]","","","",""
"","","","","","survey-multi-choice","23","254193","0.0-11.0-1.0-2.0","6792fcd5751aea26106a7e13","6790928bebf0b969fc839b02","679826e1de93adbd5c34a650","passed","","7125","","","","","","","","","","","","","","{""checkTriangleVisibility"":""No, the triangle is hidden behind the gray screen.""}","","","","","","","","","","[0]","","","",""
"","","","","","survey-multi-choice","24","260143","0.0-11.0-1.0-3.0","6792fcd5751aea26106a7e13","6790928bebf0b969fc839b02","679826e1de93adbd5c34a650","passed","","5949","","","","","","","","","","","","","","{""checkTimedResponse"":""Your response will not be recorded, and the trial will move to the next one.""}","","","","","","","","","","[0]","","","",""
"","","","","","survey-multi-choice","25","268903","0.0-11.0-1.0-4.0","6792fcd5751aea26106a7e13","6790928bebf0b969fc839b02","679826e1de93adbd5c34a650","passed","","8759","","","","","","","","","","","","","","{""checkTimeBlockNotice"":""Before every individual trial.""}","","","","","","","","","","[0]","","","",""
"","","","","","survey-multi-choice","26","293778","0.0-11.0-1.0-5.0","6792fcd5751aea26106a7e13","6790928bebf0b969fc839b02","679826e1de93adbd5c34a650","passed","","24875","","","","","","","","","","","","","","{""checkTimeBlockSameness"":""Yes, the time limit is the same for all trials within a block.""}","","","","","","","","","","[0]","","","",""
"","","","","","survey-multi-choice","27","329380","0.0-11.0-1.0-6.0","6792fcd5751aea26106a7e13","6790928bebf0b969fc839b02","679826e1de93adbd5c34a650","passed","","35601","","","","","","","","","","","","","","{""checkTrianglePrecision"":""No. The proposed purple triangle is not in the correct position because it doesn't match the location of the white triangle exactly.""}","","","","","","","","","","[0]","","","",""
"","","","","","html-button-response","28","332587","0.0-11.0-2.0-0.0","6792fcd5751aea26106a7e13","6790928bebf0b969fc839b02","679826e1de93adbd5c34a650","passed","","3206","","","","","","","","","","","","","<p>Oops! You did not pass the quiz.</p><p>You will now repeat the instructions and practice.</p>","0","","","","","","","","","","","failed","","",""
"","","","","","instructions","29","361041","0.0-11.1-0.1-0.1","6792fcd5751aea26106a7e13","6790928bebf0b969fc839b02","679826e1de93adbd5c34a650","passed","[{""page_index"":0,""viewing_time"":7648},{""page_index"":1,""viewing_time"":15360},{""page_index"":2,""viewing_time"":2416},{""page_index"":3,""viewing_time"":3029}]","28453","","","","","","","","","","","","","","","","","","","","","","","","","","","",""
"","","","","","html-keyboard-response","30","369546","0.0-11.1-0.1-1.1","6792fcd5751aea26106a7e13","6790928bebf0b969fc839b02","679826e1de93adbd5c34a650","passed","","8002","","","","","","","","","","","","","<br>Remember! After a ball falls, the screen will disappear, and you'll decide if the proposed position is where the hidden triangle was. <br>You will now practice this by watching a few videos and making decisions.<p>To respond:<br style=""margin-bottom: 5px; text-indent: -20px; padding-left: 20px;"">- Press <b style=""color: #12AD2B;"">J for Yes</b>, if you think the triangle is in the correct position.<br style=""margin-top: 0; text-indent: -20px; padding-left: 20px;"">- Press <b style=""color: orange;"">F for No</b>, if you think the triangle is not in the correct position.</p><p>In this practice round, there is no time limit. Focus on getting comfortable with the task first.<br>Press either J or F to begin your practice trials.</p><img src = ""YesOrNo_instruction.png"" style=""width: 65%;""></img>","j","","","","","","","","","","","","","",""
"","","","","","html-keyboard-response","31","371643","0.0-11.1-0.1-2.1-0.3","6792fcd5751aea26106a7e13","6790928bebf0b969fc839b02","679826e1de93adbd5c34a650","passed","","","","","","","","","","","","","","","","","ballFalling_prac","660","666","350","3","fallScene","false","","","","","","",""
"","","","","","html-keyboard-response","32","376148","0.0-11.1-0.1-2.1-1.3","6792fcd5751aea26106a7e13","6790928bebf0b969fc839b02","679826e1de93adbd5c34a650","passed","","4504","","","","","","","","","","","","","","j","yesOrNo_prac_noTimed","","","","3","","","wrong direction","NA","","","","",""
"","","","","","html-keyboard-response","33","377711","0.0-11.1-0.1-2.1-0.4","6792fcd5751aea26106a7e13","6790928bebf0b969fc839b02","679826e1de93adbd5c34a650","passed","","","","","","","","","","","","","","","","","ballFalling_prac","416","464","296","1","fallScene","false","","","","","","",""
"","","","","","html-keyboard-response","34","381697","0.0-11.1-0.1-2.1-1.4","6792fcd5751aea26106a7e13","6790928bebf0b969fc839b02","679826e1de93adbd5c34a650","passed","","3984","","","","","","","","","","","","","","j","yesOrNo_prac_noTimed","","","","1","","","gt","NA","","","","",""
"","","","","","html-keyboard-response","35","383277","0.0-11.1-0.1-2.1-0.5","6792fcd5751aea26106a7e13","6790928bebf0b969fc839b02","679826e1de93adbd5c34a650","passed","","","","","","","","","","","","","","","","","ballFalling_prac","441","414","302","5","fallScene","true","","","","","","",""
"","","","","","html-keyboard-response","36","384486","0.0-11.1-0.1-2.1-1.5","6792fcd5751aea26106a7e13","6790928bebf0b969fc839b02","679826e1de93adbd5c34a650","passed","","1207","","","","","","","","","","","","","","j","yesOrNo_prac_noTimed","","","","5","","","close gt","NA","","","","",""
"","","","","","instructions","37","445963","0.0-11.1-0.1-3.1","6792fcd5751aea26106a7e13","6790928bebf0b969fc839b02","679826e1de93adbd5c34a650","passed","[{""page_index"":0,""viewing_time"":33234},{""page_index"":1,""viewing_time"":28242}]","61477","","","","","","","","","","","","","","","","","","","","","","","","","","","",""
"","","","","","html-button-response","38","449715","0.0-11.1-0.1-4.1","6792fcd5751aea26106a7e13","6790928bebf0b969fc839b02","679826e1de93adbd5c34a650","passed","","3250","","","","","","","","","","","","","<p>To make sure you understood the task, we just have a <b>brief quiz</b> here.</p><p>If you need to review the instructions, click 'Previous'.</p><p>It's important to understand the task to do the study, so you have to pass the quiz to move to the study.</p>","1","","","","","","","","","","","","","",""
"","","","","","survey-multi-choice","39","464000","0.0-11.1-1.1-0.1","6792fcd5751aea26106a7e13","6790928bebf0b969fc839b02","679826e1de93adbd5c34a650","passed","","14284","","","","","","","","","","","","","","{""generalProcedure"":""Watch a video of a ball falling, some of it behind a gray screen. After each video, decide if the triangle is at the spot where the ball hit the triangle behind the screen. There is time limit for the response.""}","","","","","","","","","","[0]","","","",""
"","","","","","survey-multi-choice","40","469314","0.0-11.1-1.1-1.1","6792fcd5751aea26106a7e13","6790928bebf0b969fc839b02","679826e1de93adbd5c34a650","passed","","5314","","","","","","","","","","","","","","{""checkBallHitObstacle"":""Yes.""}","","","","","","","","","","[0]","","","",""
"","","","","","survey-multi-choice","41","475680","0.0-11.1-1.1-2.1","6792fcd5751aea26106a7e13","6790928bebf0b969fc839b02","679826e1de93adbd5c34a650","passed","","6365","","","","","","","","","","","","","","{""checkTriangleVisibility"":""No, the triangle is hidden behind the gray screen.""}","","","","","","","","","","[0]","","","",""
"","","","","","survey-multi-choice","42","482324","0.0-11.1-1.1-3.1","6792fcd5751aea26106a7e13","6790928bebf0b969fc839b02","679826e1de93adbd5c34a650","passed","","6643","","","","","","","","","","","","","","{""checkTimedResponse"":""Your response will not be recorded, and the trial will move to the next one.""}","","","","","","","","","","[0]","","","",""
"","","","","","survey-multi-choice","43","490712","0.0-11.1-1.1-4.1","6792fcd5751aea26106a7e13","6790928bebf0b969fc839b02","679826e1de93adbd5c34a650","passed","","8387","","","","","","","","","","","","","","{""checkTimeBlockNotice"":""At the beginning of each block.""}","","","","","","","","","","[0]","","","",""
"","","","","","survey-multi-choice","44","501987","0.0-11.1-1.1-5.1","6792fcd5751aea26106a7e13","6790928bebf0b969fc839b02","679826e1de93adbd5c34a650","passed","","11275","","","","","","","","","","","","","","{""checkTimeBlockSameness"":""Yes, the time limit is the same for all trials within a block.""}","","","","","","","","","","[0]","","","",""
"","","","","","survey-multi-choice","45","505410","0.0-11.1-1.1-6.1","6792fcd5751aea26106a7e13","6790928bebf0b969fc839b02","679826e1de93adbd5c34a650","passed","","3422","","","","","","","","","","","","","","{""checkTrianglePrecision"":""No. The proposed purple triangle is not in the correct position because it doesn't match the location of the white triangle exactly.""}","","","","","","","","","","[0]","","","",""
"","","","","","instructions","46","529509","0.0-12.0","6792fcd5751aea26106a7e13","6790928bebf0b969fc839b02","679826e1de93adbd5c34a650","passed","[{""page_index"":0,""viewing_time"":3660},{""page_index"":1,""viewing_time"":6127},{""page_index"":2,""viewing_time"":6563},{""page_index"":3,""viewing_time"":7747}]","24098","","","","","","","","","","","","","","","","","","","","","","","","","","","",""
"","","","","","instructions","47","532215","0.0-13.0-0.0","6792fcd5751aea26106a7e13","6790928bebf0b969fc839b02","679826e1de93adbd5c34a650","passed","[{""page_index"":0,""viewing_time"":2705}]","2706","","","","","","","","","","","","","","","","","","","","","","","","","","","",""
"","","","","","html-keyboard-response","48","535502","0.0-13.0-1.0","6792fcd5751aea26106a7e13","6790928bebf0b969fc839b02","679826e1de93adbd5c34a650","passed","","3287","","","","","","","","","","","","","<p><span style=""font-size:40px;"">Practice BLOCK 1</span></p><p><span style=""font-size:25px;"">You have <b style=""color: #FF644F;""><strong>3 second(s)</strong></b> to respond to the following trials.</span><br></p><p id=""blinking-text"" style=""font-weight; animation: blink 2s infinite;"">Press Space to continue</p><style>
                    @keyframes blink {
                        50% {
                            opacity: 0;
                        }
                    }
                </style>"," ","","","","","","","","","","","","","",""
"","","","","","html-keyboard-response","49","537059","0.0-13.0-2.0-0.0","6792fcd5751aea26106a7e13","6790928bebf0b969fc839b02","679826e1de93adbd5c34a650","passed","","","","","","","","","","","","","","","","","ballFalling_prac","584","536","296","1","fallScene","true","","","","","","",""
"","","","","","html-keyboard-response","50","540062","0.0-13.0-2.0-1.0","6792fcd5751aea26106a7e13","6790928bebf0b969fc839b02","679826e1de93adbd5c34a650","passed","","2976","","","","","","","","","","","","","","f","yesOrNo_prac","","","","1","","","close gt","3000","","","","",""
"","","","","","html-keyboard-response","51","541643","0.0-13.0-2.0-0.1","6792fcd5751aea26106a7e13","6790928bebf0b969fc839b02","679826e1de93adbd5c34a650","passed","","","","","","","","","","","","","","","","","ballFalling_prac","660","610","263","4","fallScene","false","","","","","","",""
"","","","","","html-keyboard-response","52","544645","0.0-13.0-2.0-1.1","6792fcd5751aea26106a7e13","6790928bebf0b969fc839b02","679826e1de93adbd5c34a650","passed","","1013","","","","","","","","","","","","","","j","yesOrNo_prac","","","","4","","","gt","3000","","","","",""
"","","","","","html-keyboard-response","53","546209","0.0-13.0-2.0-0.2","6792fcd5751aea26106a7e13","6790928bebf0b969fc839b02","679826e1de93adbd5c34a650","passed","","","","","","","","","","","","","","","","","ballFalling_prac","416","464","296","1","fallScene","false","","","","","","",""
"","","","","","html-keyboard-response","54","549212","0.0-13.0-2.0-1.2","6792fcd5751aea26106a7e13","6790928bebf0b969fc839b02","679826e1de93adbd5c34a650","passed","","1466","","","","","","","","","","","","","","j","yesOrNo_prac","","","","1","","","far gt","3000","","","","",""
"","","","","","html-keyboard-response","55","551651","0.0-13.0-3.0","6792fcd5751aea26106a7e13","6790928bebf0b969fc839b02","679826e1de93adbd5c34a650","passed","","2439","","","","","","","","","","","","","<p><span style=""font-size:40px;"">Practice BLOCK 2</span></p><p><span style=""font-size:25px;"">You have <b style=""color: #FF644F;""><strong>1 second(s)</strong></b> to respond to the following trials.</span><br></p><p id=""blinking-text"" style=""font-weight; animation: blink 2s infinite;"">Press Space to continue</p><style>
                    @keyframes blink {
                        50% {
                            opacity: 0;
                        }
                    }
                </style>"," ","","","","","","","","","","","","","",""
"","","","","","html-keyboard-response","56","553759","0.0-13.0-4.0-0.0","6792fcd5751aea26106a7e13","6790928bebf0b969fc839b02","679826e1de93adbd5c34a650","passed","","","","","","","","","","","","","","","","","ballFalling_prac","340","334","350","3","fallScene","true","","","","","","",""
"","","","","","html-keyboard-response","57","554762","0.0-13.0-4.0-1.0","6792fcd5751aea26106a7e13","6790928bebf0b969fc839b02","679826e1de93adbd5c34a650","passed","","676","","","","","","","","","","","","","","j","yesOrNo_prac","","","","3","","","close gt","1000","","","","",""
"","","","","","html-keyboard-response","58","556342","0.0-13.0-4.0-0.1","6792fcd5751aea26106a7e13","6790928bebf0b969fc839b02","679826e1de93adbd5c34a650","passed","","","","","","","","","","","","","","","","","ballFalling_prac","660","610","263","4","fallScene","false","","","","","","",""
"","","","","","html-keyboard-response","59","557345","0.0-13.0-4.0-1.1","6792fcd5751aea26106a7e13","6790928bebf0b969fc839b02","679826e1de93adbd5c34a650","passed","","843","","","","","","","","","","","","","","j","yesOrNo_prac","","","","4","","","far gt","1000","","","","",""
"","","","","","html-keyboard-response","60","558909","0.0-13.0-4.0-0.2","6792fcd5751aea26106a7e13","6790928bebf0b969fc839b02","679826e1de93adbd5c34a650","passed","","","","","","","","","","","","","","","","","ballFalling_prac","441","500","317","6","fallScene","true","","","","","","",""
"","","","","","html-keyboard-response","61","559911","0.0-13.0-4.0-1.2","6792fcd5751aea26106a7e13","6790928bebf0b969fc839b02","679826e1de93adbd5c34a650","passed","","770","","","","","","","","","","","","","","f","yesOrNo_prac","","","","6","","","gt","1000","","","","",""
"","","","","","instructions","62","571104","0.0-13.0-5.0","6792fcd5751aea26106a7e13","6790928bebf0b969fc839b02","679826e1de93adbd5c34a650","passed","[{""page_index"":0,""viewing_time"":11192}]","11192","","","","","","","","","","","","","","","","","","","","","","","","","","","",""
"","","","","","html-keyboard-response","63","575135","0.0-13.0-6.0","6792fcd5751aea26106a7e13","6790928bebf0b969fc839b02","679826e1de93adbd5c34a650","passed","","4030","","","","","","","","","","","","","<p><span style=""font-size:40px;"">Practice Test BLOCK 1</span></p><p><span style=""font-size:25px;"">You have <b style=""color: #FF644F;""><strong>1 second(s)</strong></b> to respond to the following trials.</span><br></p><p id=""blinking-text"" style=""font-weight; animation: blink 2s infinite;"">Press Space to continue</p><style>
                    @keyframes blink {
                        50% {
                            opacity: 0;
                        }
                    }
                </style>"," ","","","","","","","","","","","","","",""
"","","","","","html-keyboard-response","64","576708","0.0-13.0-7.0-0.0","6792fcd5751aea26106a7e13","6790928bebf0b969fc839b02","679826e1de93adbd5c34a650","passed","","","","","","","","","","","","","","","","","ballFalling_prac","559","586","302","5","fallScene","false","","","","","","",""
"","","","","","html-keyboard-response","65","577711","0.0-13.0-7.0-1.0","6792fcd5751aea26106a7e13","6790928bebf0b969fc839b02","679826e1de93adbd5c34a650","passed","","805","","","","","","","","","","","","","","j","yesOrNo_prac","","","","5","","","gt","1000","","","","",""
"","","","","","html-keyboard-response","66","579292","0.0-13.0-7.0-0.1","6792fcd5751aea26106a7e13","6790928bebf0b969fc839b02","679826e1de93adbd5c34a650","passed","","","","","","","","","","","","","","","","","ballFalling_prac","340","390","263","4","fallScene","true","","","","","","",""
"","","","","","html-keyboard-response","67","580294","0.0-13.0-7.0-1.1","6792fcd5751aea26106a7e13","6790928bebf0b969fc839b02","679826e1de93adbd5c34a650","passed","","778","","","","","","","","","","","","","","j","yesOrNo_prac","","","","4","","","far gt","1000","","","","",""
"","","","","","html-keyboard-response","68","581858","0.0-13.0-7.0-0.2","6792fcd5751aea26106a7e13","6790928bebf0b969fc839b02","679826e1de93adbd5c34a650","passed","","","","","","","","","","","","","","","","","ballFalling_prac","441","500","317","6","fallScene","true","","","","","","",""
"","","","","","html-keyboard-response","69","582861","0.0-13.0-7.0-1.2","6792fcd5751aea26106a7e13","6790928bebf0b969fc839b02","679826e1de93adbd5c34a650","passed","","null","","","","","","","","","","","","","","null","yesOrNo_prac","","","","6","","","close gt","1000","","","","",""
"","","","","","html-keyboard-response","70","587057","0.0-13.0-8.0","6792fcd5751aea26106a7e13","6790928bebf0b969fc839b02","679826e1de93adbd5c34a650","passed","","4196","","","","","","","","","","","","","<p><span style=""font-size:40px;"">Practice Test BLOCK 2</span></p><p><span style=""font-size:25px;"">You have <b style=""color: #FF644F;""><strong>3 second(s)</strong></b> to respond to the following trials.</span><br></p><p id=""blinking-text"" style=""font-weight; animation: blink 2s infinite;"">Press Space to continue</p><style>
                    @keyframes blink {
                        50% {
                            opacity: 0;
                        }
                    }
                </style>"," ","","","","","","","","","","","","","",""
"","","","","","html-keyboard-response","71","588626","0.0-13.0-9.0-0.0","6792fcd5751aea26106a7e13","6790928bebf0b969fc839b02","679826e1de93adbd5c34a650","passed","","","","","","","","","","","","","","","","","ballFalling_prac","559","586","302","5","fallScene","false","","","","","","",""
"","","","","","html-keyboard-response","72","591627","0.0-13.0-9.0-1.0","6792fcd5751aea26106a7e13","6790928bebf0b969fc839b02","679826e1de93adbd5c34a650","passed","","2323","","","","","","","","","","","","","","f","yesOrNo_prac","","","","5","","","far gt","3000","","","","",""
"","","","","","html-keyboard-response","73","593209","0.0-13.0-9.0-0.1","6792fcd5751aea26106a7e13","6790928bebf0b969fc839b02","679826e1de93adbd5c34a650","passed","","","","","","","","","","","","","","","","","ballFalling_prac","416","365","249","2","fallScene","false","","","","","","",""
"","","","","","html-keyboard-response","74","596211","0.0-13.0-9.0-1.1","6792fcd5751aea26106a7e13","6790928bebf0b969fc839b02","679826e1de93adbd5c34a650","passed","","1008","","","","","","","","","","","","","","f","yesOrNo_prac","","","","2","","","gt","3000","","","","",""
"","","","","","html-keyboard-response","75","597792","0.0-13.0-9.0-0.2","6792fcd5751aea26106a7e13","6790928bebf0b969fc839b02","679826e1de93adbd5c34a650","passed","","","","","","","","","","","","","","","","","ballFalling_prac","340","390","263","4","fallScene","true","","","","","","",""
"","","","","","html-keyboard-response","76","600794","0.0-13.0-9.0-1.2","6792fcd5751aea26106a7e13","6790928bebf0b969fc839b02","679826e1de93adbd5c34a650","passed","","672","","","","","","","","","","","","","","j","yesOrNo_prac","","","","4","","","close gt","3000","","","","",""
"","","","","","instructions","77","616377","0.0-14.0","6792fcd5751aea26106a7e13","6790928bebf0b969fc839b02","679826e1de93adbd5c34a650","passed","[{""page_index"":0,""viewing_time"":15582}]","15582","","","","","","","","","","","","","","","","","","","","","","","","","","","",""
"","","","","","html-keyboard-response","78","618731","0.0-15.0","6792fcd5751aea26106a7e13","6790928bebf0b969fc839b02","679826e1de93adbd5c34a650","passed","","2353","","","","","","","","","","","","","<p><span style=""font-size:40px;"">BLOCK 1</span></p><p><span style=""font-size:25px;"">You have <b style=""color: #FF644F;""><strong>1 second(s)</strong></b> to respond to the following trials.</span><br></p><p></p> <!-- Blank line -->
                <p id=""blinking-text"" style=""font-weight; animation: blink 2s infinite;"">Press Space to continue</p>
                <style>
                    @keyframes blink {
                        50% {
                            opacity: 0;
                        }
                    }
                </style></p>"," ","","","","","","","","","","","","","",""
"","","","","","html-keyboard-response","79","620292","0.0-16.0-0.0","6792fcd5751aea26106a7e13","6790928bebf0b969fc839b02","679826e1de93adbd5c34a650","passed","","","","","","","","","","","","","","","","","ballFalling","604.4000000000001","650.0211431702996","404.58000000000004","11","fallScene","false","","","","","1","",""
"","","","","","html-keyboard-response","80","621295","0.0-16.0-1.0","6792fcd5751aea26106a7e13","6790928bebf0b969fc839b02","679826e1de93adbd5c34a650","passed","","null","","","","","","","","","","","","","","null","yesOrNo","","","","11","","","mid","1000","","","1","605.4000000000001","300"
"","","","","","html-keyboard-response","81","623092","0.0-16.0-0.1","6792fcd5751aea26106a7e13","6790928bebf0b969fc839b02","679826e1de93adbd5c34a650","passed","","","","","","","","","","","","","","","","","ballFalling","322.3","308.07114317029976","253.89","2","fallScene","true","","","","","2","",""
"","","","","","html-keyboard-response","82","624093","0.0-16.0-1.1","6792fcd5751aea26106a7e13","6790928bebf0b969fc839b02","679826e1de93adbd5c34a650","passed","","682","","","","","","","","","","","","","","f","yesOrNo","","","","2","","","lp","1000","","","2","321.3","151"
"","","","","","html-keyboard-response","83","625675","0.0-16.0-0.2","6792fcd5751aea26106a7e13","6790928bebf0b969fc839b02","679826e1de93adbd5c34a650","passed","","","","","","","","","","","","","","","","","ballFalling","500","553.4711431702997","282.51","7","fallScene","false","","","","","3","",""
"","","","","","html-keyboard-response","84","626678","0.0-16.0-1.2","6792fcd5751aea26106a7e13","6790928bebf0b969fc839b02","679826e1de93adbd5c34a650","passed","","null","","","","","","","","","","","","","","null","yesOrNo","","","","7","","","lp","1000","","","3","501","227.2843295913261"
"","","","","","html-keyboard-response","85","628259","0.0-16.0-0.3","6792fcd5751aea26106a7e13","6790928bebf0b969fc839b02","679826e1de93adbd5c34a650","passed","","","","","","","","","","","","","","","","","ballFalling","500","553.4711431702997","282.51","7","fallScene","false","","","","","4","",""
"","","","","","html-keyboard-response","86","629260","0.0-16.0-1.3","6792fcd5751aea26106a7e13","6790928bebf0b969fc839b02","679826e1de93adbd5c34a650","passed","","null","","","","","","","","","","","","","","null","yesOrNo","","","","7","","","gt","1000","","","4","553.4711431702997","282.51"
"","","","","","html-keyboard-response","87","630826","0.0-16.0-0.4","6792fcd5751aea26106a7e13","6790928bebf0b969fc839b02","679826e1de93adbd5c34a650","passed","","","","","","","","","","","","","","","","","ballFalling","604.4000000000001","575.4211431702997","266.76","12","fallScene","false","","","","","5","",""
"","","","","","html-keyboard-response","88","631828","0.0-16.0-1.4","6792fcd5751aea26106a7e13","6790928bebf0b969fc839b02","679826e1de93adbd5c34a650","passed","","770","","","","","","","","","","","","","","j","yesOrNo","","","","12","","","mid","1000","","","5","536.4288568297004","300"
"","","","","","html-keyboard-response","89","633392","0.0-16.0-0.5","6792fcd5751aea26106a7e13","6790928bebf0b969fc839b02","679826e1de93adbd5c34a650","passed","","","","","","","","","","","","","","","","","ballFalling","322.3","296.07114317029976","371.46","3","fallScene","true","","","","","6","",""
"","","","","","html-keyboard-response","90","634394","0.0-16.0-1.5","6792fcd5751aea26106a7e13","6790928bebf0b969fc839b02","679826e1de93adbd5c34a650","passed","","873","","","","","","","","","","","","","","j","yesOrNo","","","","3","","","mid","1000","","","6","321.3","300"
"","","","","","html-keyboard-response","91","636409","0.0-16.0-0.6","6792fcd5751aea26106a7e13","6790928bebf0b969fc839b02","679826e1de93adbd5c34a650","passed","","","","","","","","","","","","","","","","","ballFalling","604.4000000000001","596.8711431702998","394.5","10","fallScene","true","","","","","7","",""
"","","","","","html-keyboard-response","92","637410","0.0-16.0-1.6","6792fcd5751aea26106a7e13","6790928bebf0b969fc839b02","679826e1de93adbd5c34a650","passed","","null","","","","","","","","","","","","","","null","yesOrNo","","","","10","","","mid","1000","","","7","536.4288568297004","300"
"","","","","","html-keyboard-response","93","638975","0.0-16.0-0.7","6792fcd5751aea26106a7e13","6790928bebf0b969fc839b02","679826e1de93adbd5c34a650","passed","","","","","","","","","","","","","","","","","ballFalling","322.3","356.42114317029973","357.87","4","fallScene","false","","","","","8","",""
"","","","","","html-keyboard-response","94","639977","0.0-16.0-1.7","6792fcd5751aea26106a7e13","6790928bebf0b969fc839b02","679826e1de93adbd5c34a650","passed","","568","","","","","","","","","","","","","","f","yesOrNo","","","","4","","","mid","1000","","","8","390.27114317029975","300"
"","","","","","html-keyboard-response","95","641542","0.0-16.0-0.8","6792fcd5751aea26106a7e13","6790928bebf0b969fc839b02","679826e1de93adbd5c34a650","passed","","","","","","","","","","","","","","","","","ballFalling","500","453.67114317029973","210.33","5","fallScene","false","","","","","9","",""
"","","","","","html-keyboard-response","96","642544","0.0-16.0-1.8","6792fcd5751aea26106a7e13","6790928bebf0b969fc839b02","679826e1de93adbd5c34a650","passed","","556","","","","","","","","","","","","","","j","yesOrNo","","","","5","","","gt","1000","","","9","453.6711431702998","210.33"
"","","","","","html-keyboard-response","97","644558","0.0-16.0-0.9","6792fcd5751aea26106a7e13","6790928bebf0b969fc839b02","679826e1de93adbd5c34a650","passed","","","","","","","","","","","","","","","","","ballFalling","604.4000000000001","596.8711431702998","394.5","10","fallScene","true","","","","","10","",""
"","","","","","html-keyboard-response","98","645560","0.0-16.0-1.9","6792fcd5751aea26106a7e13","6790928bebf0b969fc839b02","679826e1de93adbd5c34a650","passed","","719","","","","","","","","","","","","","","j","yesOrNo","","","","10","","","lp","1000","","","10","603.4000000000001","215.50214355555383"
"","","","","","html-keyboard-response","99","647225","0.0-16.0-0.10","6792fcd5751aea26106a7e13","6790928bebf0b969fc839b02","679826e1de93adbd5c34a650","passed","","","","","","","","","","","","","","","","","ballFalling","500","479.92114317029973","330.87","6","fallScene","false","","","","","11","",""
"","","","","","html-keyboard-response","100","648227","0.0-16.0-1.10","6792fcd5751aea26106a7e13","6790928bebf0b969fc839b02","679826e1de93adbd5c34a650","passed","","674","","","","","","","","","","","","","","j","yesOrNo","","","","6","","","gt","1000","","","11","479.9211431702998","330.87"
"","","","","","html-keyboard-response","101","649792","0.0-16.0-0.11","6792fcd5751aea26106a7e13","6790928bebf0b969fc839b02","679826e1de93adbd5c34a650","passed","","","","","","","","","","","","","","","","","ballFalling","322.3","296.07114317029976","371.46","3","fallScene","false","","","","","12","",""
"","","","","","html-keyboard-response","102","650794","0.0-16.0-1.11","6792fcd5751aea26106a7e13","6790928bebf0b969fc839b02","679826e1de93adbd5c34a650","passed","","543","","","","","","","","","","","","","","f","yesOrNo","","","","3","","","mid","1000","","","12","321.3","300"
"","","","","","html-keyboard-response","103","652358","0.0-16.0-0.12","6792fcd5751aea26106a7e13","6790928bebf0b969fc839b02","679826e1de93adbd5c34a650","passed","","","","","","","","","","","","","","","","","ballFalling","322.3","296.07114317029976","371.46","3","fallScene","false","","","","","13","",""
"","","","","","html-keyboard-response","104","653360","0.0-16.0-1.12","6792fcd5751aea26106a7e13","6790928bebf0b969fc839b02","679826e1de93adbd5c34a650","passed","","null","","","","","","","","","","","","","","null","yesOrNo","","","","3","","","lp","1000","","","13","321.3","287.3327096511259"
"","","","","","html-keyboard-response","105","655025","0.0-16.0-0.13","6792fcd5751aea26106a7e13","6790928bebf0b969fc839b02","679826e1de93adbd5c34a650","passed","","","","","","","","","","","","","","","","","ballFalling","500","479.92114317029973","330.87","6","fallScene","false","","","","","14","",""
"","","","","","html-keyboard-response","106","656027","0.0-16.0-1.13","6792fcd5751aea26106a7e13","6790928bebf0b969fc839b02","679826e1de93adbd5c34a650","passed","","806","","","","","","","","","","","","","","j","yesOrNo","","","","6","","","mid","1000","","","14","499","300"
"","","","","","html-keyboard-response","107","658043","0.0-16.0-0.14","6792fcd5751aea26106a7e13","6790928bebf0b969fc839b02","679826e1de93adbd5c34a650","passed","","","","","","","","","","","","","","","","","ballFalling","604.4000000000001","596.8711431702998","394.5","10","fallScene","true","","","","","15","",""
"","","","","","html-keyboard-response","108","659044","0.0-16.0-1.14","6792fcd5751aea26106a7e13","6790928bebf0b969fc839b02","679826e1de93adbd5c34a650","passed","","457","","","","","","","","","","","","","","j","yesOrNo","","","","10","","","mid","1000","","","15","536.4288568297004","300"
"","","","","","html-keyboard-response","109","660608","0.0-16.0-0.15","6792fcd5751aea26106a7e13","6790928bebf0b969fc839b02","679826e1de93adbd5c34a650","passed","","","","","","","","","","","","","","","","","ballFalling","322.3","379.3711431702997","245.25","1","fallScene","false","","","","","16","",""
"","","","","","html-keyboard-response","110","661610","0.0-16.0-1.15","6792fcd5751aea26106a7e13","6790928bebf0b969fc839b02","679826e1de93adbd5c34a650","passed","","441","","","","","","","","","","","","","","f","yesOrNo","","","","1","","","mid","1000","","","16","390.27114317029975","300"
"","","","","","html-keyboard-response","111","663175","0.0-16.0-0.16","6792fcd5751aea26106a7e13","6790928bebf0b969fc839b02","679826e1de93adbd5c34a650","passed","","","","","","","","","","","","","","","","","ballFalling","322.3","356.42114317029973","357.87","4","fallScene","false","","","","","17","",""
"","","","","","html-keyboard-response","112","664177","0.0-16.0-1.16","6792fcd5751aea26106a7e13","6790928bebf0b969fc839b02","679826e1de93adbd5c34a650","passed","","null","","","","","","","","","","","","","","null","yesOrNo","","","","4","","","gt","1000","","","17","356.42114317029973","357.87"
"","","","","","html-keyboard-response","113","666192","0.0-16.0-0.17","6792fcd5751aea26106a7e13","6790928bebf0b969fc839b02","679826e1de93adbd5c34a650","passed","","","","","","","","","","","","","","","","","ballFalling","604.4000000000001","596.8711431702998","394.5","10","fallScene","false","","","","","18","",""
"","","","","","html-keyboard-response","114","667194","0.0-16.0-1.17","6792fcd5751aea26106a7e13","6790928bebf0b969fc839b02","679826e1de93adbd5c34a650","passed","","725","","","","","","","","","","","","","","f","yesOrNo","","","","10","","","gt","1000","","","18","596.8711431702998","394.5"
"","","","","","html-keyboard-response","115","668991","0.0-16.0-0.18","6792fcd5751aea26106a7e13","6790928bebf0b969fc839b02","679826e1de93adbd5c34a650","passed","","","","","","","","","","","","","","","","","ballFalling","322.3","308.07114317029976","253.89","2","fallScene","true","","","","","19","",""
"","","","","","html-keyboard-response","116","669992","0.0-16.0-1.18","6792fcd5751aea26106a7e13","6790928bebf0b969fc839b02","679826e1de93adbd5c34a650","passed","","684","","","","","","","","","","","","","","f","yesOrNo","","","","2","","","lp","1000","","","19","321.3","151"
"","","","","","html-keyboard-response","117","671559","0.0-16.0-0.19","6792fcd5751aea26106a7e13","6790928bebf0b969fc839b02","679826e1de93adbd5c34a650","passed","","","","","","","","","","","","","","","","","ballFalling","604.4000000000001","650.0211431702996","404.58000000000004","11","fallScene","true","","","","","20","",""
"","","","","","html-keyboard-response","118","672561","0.0-16.0-1.19","6792fcd5751aea26106a7e13","6790928bebf0b969fc839b02","679826e1de93adbd5c34a650","passed","","620","","","","","","","","","","","","","","j","yesOrNo","","","","11","","","gt","1000","","","20","650.0211431702996","404.58"
"","","","","","html-keyboard-response","119","674125","0.0-16.0-0.20","6792fcd5751aea26106a7e13","6790928bebf0b969fc839b02","679826e1de93adbd5c34a650","passed","","","","","","","","","","","","","","","","","ballFalling","322.3","379.3711431702997","245.25","1","fallScene","false","","","","","21","",""
"","","","","","html-keyboard-response","120","675127","0.0-16.0-1.20","6792fcd5751aea26106a7e13","6790928bebf0b969fc839b02","679826e1de93adbd5c34a650","passed","","638","","","","","","","","","","","","","","f","yesOrNo","","","","1","","","lp","1000","","","21","323.3","217.74551669457017"
"","","","","","html-keyboard-response","121","676692","0.0-16.0-0.21","6792fcd5751aea26106a7e13","6790928bebf0b969fc839b02","679826e1de93adbd5c34a650","passed","","","","","","","","","","","","","","","","","ballFalling","322.3","379.3711431702997","245.25","1","fallScene","false","","","","","22","",""
"","","","","","html-keyboard-response","122","677694","0.0-16.0-1.21","6792fcd5751aea26106a7e13","6790928bebf0b969fc839b02","679826e1de93adbd5c34a650","passed","","948","","","","","","","","","","","","","","f","yesOrNo","","","","1","","","gt","1000","","","22","379.3711431702997","245.25"
"","","","","","html-keyboard-response","123","679258","0.0-16.0-0.22","6792fcd5751aea26106a7e13","6790928bebf0b969fc839b02","679826e1de93adbd5c34a650","passed","","","","","","","","","","","","","","","","","ballFalling","322.3","296.07114317029976","371.46","3","fallScene","false","","","","","23","",""
"","","","","","html-keyboard-response","124","680260","0.0-16.0-1.22","6792fcd5751aea26106a7e13","6790928bebf0b969fc839b02","679826e1de93adbd5c34a650","passed","","469","","","","","","","","","","","","","","j","yesOrNo","","","","3","","","lp","1000","","","23","321.3","287.3327096511259"
"","","","","","html-keyboard-response","125","681825","0.0-16.0-0.23","6792fcd5751aea26106a7e13","6790928bebf0b969fc839b02","679826e1de93adbd5c34a650","passed","","","","","","","","","","","","","","","","","ballFalling","500","453.67114317029973","210.33","5","fallScene","true","","","","","24","",""
"","","","","","html-keyboard-response","126","682827","0.0-16.0-1.23","6792fcd5751aea26106a7e13","6790928bebf0b969fc839b02","679826e1de93adbd5c34a650","passed","","351","","","","","","","","","","","","","","f","yesOrNo","","","","5","","","mid","1000","","","24","499","300"
"","","","","","html-keyboard-response","127","690702","0.0-17.0","6792fcd5751aea26106a7e13","6790928bebf0b969fc839b02","679826e1de93adbd5c34a650","passed","","7875","","","","","","","","","","","","","<p><span style=""font-size:40px;"">BLOCK 2</span></p><p><span style=""font-size:25px;"">You have <b style=""color: #FF644F;""><strong>3 second(s)</strong></b> to respond to the following trials.</span><br></p><p></p> <!-- Blank line -->
                <p id=""blinking-text"" style=""font-weight; animation: blink 2s infinite;"">Press Space to continue</p>
                <style>
                    @keyframes blink {
                        50% {
                            opacity: 0;
                        }
                    }
                </style></p>"," ","","","","","","","","","","","","","",""
"","","","","","html-keyboard-response","128","692258","0.0-18.0-0.0","6792fcd5751aea26106a7e13","6790928bebf0b969fc839b02","679826e1de93adbd5c34a650","passed","","","","","","","","","","","","","","","","","ballFalling","500","453.67114317029973","210.33","5","fallScene","true","","","","","25","",""
"","","","","","html-keyboard-response","129","695260","0.0-18.0-1.0","6792fcd5751aea26106a7e13","6790928bebf0b969fc839b02","679826e1de93adbd5c34a650","passed","","829","","","","","","","","","","","","","","j","yesOrNo","","","","5","","","mid","3000","","","25","499","300"
"","","","","","html-keyboard-response","130","697275","0.0-18.0-0.1","6792fcd5751aea26106a7e13","6790928bebf0b969fc839b02","679826e1de93adbd5c34a650","passed","","","","","","","","","","","","","","","","","ballFalling","604.4000000000001","596.8711431702998","394.5","10","fallScene","true","","","","","26","",""
"","","","","","html-keyboard-response","131","700278","0.0-18.0-1.1","6792fcd5751aea26106a7e13","6790928bebf0b969fc839b02","679826e1de93adbd5c34a650","passed","","1060","","","","","","","","","","","","","","f","yesOrNo","","","","10","","","lp","3000","","","26","603.4000000000001","215.50214355555383"
"","","","","","html-keyboard-response","132","702075","0.0-18.0-0.2","6792fcd5751aea26106a7e13","6790928bebf0b969fc839b02","679826e1de93adbd5c34a650","passed","","","","","","","","","","","","","","","","","ballFalling","322.3","308.07114317029976","253.89","2","fallScene","true","","","","","27","",""
"","","","","","html-keyboard-response","133","705077","0.0-18.0-1.2","6792fcd5751aea26106a7e13","6790928bebf0b969fc839b02","679826e1de93adbd5c34a650","passed","","1155","","","","","","","","","","","","","","j","yesOrNo","","","","2","","","gt","3000","","","27","308.07114317029976","253.89"
"","","","","","html-keyboard-response","134","706642","0.0-18.0-0.3","6792fcd5751aea26106a7e13","6790928bebf0b969fc839b02","679826e1de93adbd5c34a650","passed","","","","","","","","","","","","","","","","","ballFalling","500","453.67114317029973","210.33","5","fallScene","true","","","","","28","",""
"","","","","","html-keyboard-response","135","709644","0.0-18.0-1.3","6792fcd5751aea26106a7e13","6790928bebf0b969fc839b02","679826e1de93adbd5c34a650","passed","","1301","","","","","","","","","","","","","","j","yesOrNo","","","","5","","","gt","3000","","","28","453.6711431702998","210.33"
"","","","","","html-keyboard-response","136","711441","0.0-18.0-0.4","6792fcd5751aea26106a7e13","6790928bebf0b969fc839b02","679826e1de93adbd5c34a650","passed","","","","","","","","","","","","","","","","","ballFalling","322.3","308.07114317029976","253.89","2","fallScene","false","","","","","29","",""
"","","","","","html-keyboard-response","137","714443","0.0-18.0-1.4","6792fcd5751aea26106a7e13","6790928bebf0b969fc839b02","679826e1de93adbd5c34a650","passed","","762","","","","","","","","","","","","","","f","yesOrNo","","","","2","","","lp","3000","","","29","321.3","151"
"","","","","","html-keyboard-response","138","716008","0.0-18.0-0.5","6792fcd5751aea26106a7e13","6790928bebf0b969fc839b02","679826e1de93adbd5c34a650","passed","","","","","","","","","","","","","","","","","ballFalling","604.4000000000001","650.0211431702996","404.58000000000004","11","fallScene","false","","","","","30","",""
"","","","","","html-keyboard-response","139","719009","0.0-18.0-1.5","6792fcd5751aea26106a7e13","6790928bebf0b969fc839b02","679826e1de93adbd5c34a650","passed","","2667","","","","","","","","","","","","","","j","yesOrNo","","","","11","","","lp","3000","","","30","605.4000000000001","372.6340973215488"
"","","","","","html-keyboard-response","140","721025","0.0-18.0-0.6","6792fcd5751aea26106a7e13","6790928bebf0b969fc839b02","679826e1de93adbd5c34a650","passed","","","","","","","","","","","","","","","","","ballFalling","500","510.8711431702997","369.03","8","fallScene","true","","","","","31","",""
"","","","","","html-keyboard-response","141","724027","0.0-18.0-1.6","6792fcd5751aea26106a7e13","6790928bebf0b969fc839b02","679826e1de93adbd5c34a650","passed","","1343","","","","","","","","","","","","","","f","yesOrNo","","","","8","","","lp","3000","","","31","501","151"
"","","","","","html-keyboard-response","142","725524","0.0-18.0-0.7","6792fcd5751aea26106a7e13","6790928bebf0b969fc839b02","679826e1de93adbd5c34a650","passed","","","","","","","","","","","","","","","","","ballFalling","604.4000000000001","667.6211431702998","201.78","9","fallScene","true","","","","","32","",""
"","","","","","html-keyboard-response","143","728525","0.0-18.0-1.7","6792fcd5751aea26106a7e13","6790928bebf0b969fc839b02","679826e1de93adbd5c34a650","passed","","1437","","","","","","","","","","","","","","j","yesOrNo","","","","9","","","mid","3000","","","32","605.4000000000001","300"
"","","","","","html-keyboard-response","144","730091","0.0-18.0-0.8","6792fcd5751aea26106a7e13","6790928bebf0b969fc839b02","679826e1de93adbd5c34a650","passed","","","","","","","","","","","","","","","","","ballFalling","604.4000000000001","650.0211431702996","404.58000000000004","11","fallScene","true","","","","","33","",""
"","","","","","html-keyboard-response","145","733094","0.0-18.0-1.8","6792fcd5751aea26106a7e13","6790928bebf0b969fc839b02","679826e1de93adbd5c34a650","passed","","2013","","","","","","","","","","","","","","j","yesOrNo","","","","11","","","gt","3000","","","33","650.0211431702996","404.58"
"","","","","","html-keyboard-response","146","734657","0.0-18.0-0.9","6792fcd5751aea26106a7e13","6790928bebf0b969fc839b02","679826e1de93adbd5c34a650","passed","","","","","","","","","","","","","","","","","ballFalling","500","453.67114317029973","210.33","5","fallScene","false","","","","","34","",""
"","","","","","html-keyboard-response","147","737659","0.0-18.0-1.9","6792fcd5751aea26106a7e13","6790928bebf0b969fc839b02","679826e1de93adbd5c34a650","passed","","1487","","","","","","","","","","","","","","j","yesOrNo","","","","5","","","gt","3000","","","34","453.6711431702998","210.33"
"","","","","","html-keyboard-response","148","739674","0.0-18.0-0.10","6792fcd5751aea26106a7e13","6790928bebf0b969fc839b02","679826e1de93adbd5c34a650","passed","","","","","","","","","","","","","","","","","ballFalling","604.4000000000001","596.8711431702998","394.5","10","fallScene","true","","","","","35","",""
"","","","","","html-keyboard-response","149","742677","0.0-18.0-1.10","6792fcd5751aea26106a7e13","6790928bebf0b969fc839b02","679826e1de93adbd5c34a650","passed","","1644","","","","","","","","","","","","","","j","yesOrNo","","","","10","","","lp","3000","","","35","603.4000000000001","215.50214355555383"
"","","","","","html-keyboard-response","150","744691","0.0-18.0-0.11","6792fcd5751aea26106a7e13","6790928bebf0b969fc839b02","679826e1de93adbd5c34a650","passed","","","","","","","","","","","","","","","","","ballFalling","500","510.8711431702997","369.03","8","fallScene","true","","","","","36","",""
"","","","","","html-keyboard-response","151","747693","0.0-18.0-1.11","6792fcd5751aea26106a7e13","6790928bebf0b969fc839b02","679826e1de93adbd5c34a650","passed","","1232","","","","","","","","","","","","","","f","yesOrNo","","","","8","","","lp","3000","","","36","501","151"
"","","","","","html-keyboard-response","152","749274","0.0-18.0-0.12","6792fcd5751aea26106a7e13","6790928bebf0b969fc839b02","679826e1de93adbd5c34a650","passed","","","","","","","","","","","","","","","","","ballFalling","500","553.4711431702997","282.51","7","fallScene","true","","","","","37","",""
"","","","","","html-keyboard-response","153","752276","0.0-18.0-1.12","6792fcd5751aea26106a7e13","6790928bebf0b969fc839b02","679826e1de93adbd5c34a650","passed","","1039","","","","","","","","","","","","","","j","yesOrNo","","","","7","","","mid","3000","","","37","501","300"
"","","","","","html-keyboard-response","154","754074","0.0-18.0-0.13","6792fcd5751aea26106a7e13","6790928bebf0b969fc839b02","679826e1de93adbd5c34a650","passed","","","","","","","","","","","","","","","","","ballFalling","322.3","308.07114317029976","253.89","2","fallScene","true","","","","","38","",""
"","","","","","html-keyboard-response","155","757076","0.0-18.0-1.13","6792fcd5751aea26106a7e13","6790928bebf0b969fc839b02","679826e1de93adbd5c34a650","passed","","1463","","","","","","","","","","","","","","f","yesOrNo","","","","2","","","lp","3000","","","38","321.3","151"
"","","","","","html-keyboard-response","156","758875","0.0-18.0-0.14","6792fcd5751aea26106a7e13","6790928bebf0b969fc839b02","679826e1de93adbd5c34a650","passed","","","","","","","","","","","","","","","","","ballFalling","322.3","308.07114317029976","253.89","2","fallScene","true","","","","","39","",""
"","","","","","html-keyboard-response","157","761878","0.0-18.0-1.14","6792fcd5751aea26106a7e13","6790928bebf0b969fc839b02","679826e1de93adbd5c34a650","passed","","1693","","","","","","","","","","","","","","j","yesOrNo","","","","2","","","mid","3000","","","39","321.3","300"
"","","","","","html-keyboard-response","158","763675","0.0-18.0-0.15","6792fcd5751aea26106a7e13","6790928bebf0b969fc839b02","679826e1de93adbd5c34a650","passed","","","","","","","","","","","","","","","","","ballFalling","322.3","308.07114317029976","253.89","2","fallScene","false","","","","","40","",""
"","","","","","html-keyboard-response","159","766677","0.0-18.0-1.15","6792fcd5751aea26106a7e13","6790928bebf0b969fc839b02","679826e1de93adbd5c34a650","passed","","1189","","","","","","","","","","","","","","j","yesOrNo","","","","2","","","gt","3000","","","40","308.07114317029976","253.89"
"","","","","","html-keyboard-response","160","768241","0.0-18.0-0.16","6792fcd5751aea26106a7e13","6790928bebf0b969fc839b02","679826e1de93adbd5c34a650","passed","","","","","","","","","","","","","","","","","ballFalling","322.3","356.42114317029973","357.87","4","fallScene","false","","","","","41","",""
"","","","","","html-keyboard-response","161","771244","0.0-18.0-1.16","6792fcd5751aea26106a7e13","6790928bebf0b969fc839b02","679826e1de93adbd5c34a650","passed","","1037","","","","","","","","","","","","","","j","yesOrNo","","","","4","","","mid","3000","","","41","390.27114317029975","300"
"","","","","","html-keyboard-response","162","772908","0.0-18.0-0.17","6792fcd5751aea26106a7e13","6790928bebf0b969fc839b02","679826e1de93adbd5c34a650","passed","","","","","","","","","","","","","","","","","ballFalling","500","479.92114317029973","330.87","6","fallScene","true","","","","","42","",""
"","","","","","html-keyboard-response","163","775909","0.0-18.0-1.17","6792fcd5751aea26106a7e13","6790928bebf0b969fc839b02","679826e1de93adbd5c34a650","passed","","2097","","","","","","","","","","","","","","f","yesOrNo","","","","6","","","lp","3000","","","42","499","189.92909825697632"
"","","","","","html-keyboard-response","164","777474","0.0-18.0-0.18","6792fcd5751aea26106a7e13","6790928bebf0b969fc839b02","679826e1de93adbd5c34a650","passed","","","","","","","","","","","","","","","","","ballFalling","322.3","296.07114317029976","371.46","3","fallScene","true","","","","","43","",""
"","","","","","html-keyboard-response","165","780476","0.0-18.0-1.18","6792fcd5751aea26106a7e13","6790928bebf0b969fc839b02","679826e1de93adbd5c34a650","passed","","1300","","","","","","","","","","","","","","j","yesOrNo","","","","3","","","mid","3000","","","43","321.3","300"
"","","","","","html-keyboard-response","166","782491","0.0-18.0-0.19","6792fcd5751aea26106a7e13","6790928bebf0b969fc839b02","679826e1de93adbd5c34a650","passed","","","","","","","","","","","","","","","","","ballFalling","604.4000000000001","596.8711431702998","394.5","10","fallScene","false","","","","","44","",""
"","","","","","html-keyboard-response","167","785493","0.0-18.0-1.19","6792fcd5751aea26106a7e13","6790928bebf0b969fc839b02","679826e1de93adbd5c34a650","passed","","789","","","","","","","","","","","","","","f","yesOrNo","","","","10","","","gt","3000","","","44","596.8711431702998","394.5"
"","","","","","html-keyboard-response","168","787057","0.0-18.0-0.20","6792fcd5751aea26106a7e13","6790928bebf0b969fc839b02","679826e1de93adbd5c34a650","passed","","","","","","","","","","","","","","","","","ballFalling","604.4000000000001","650.0211431702996","404.58000000000004","11","fallScene","false","","","","","45","",""
"","","","","","html-keyboard-response","169","790060","0.0-18.0-1.20","6792fcd5751aea26106a7e13","6790928bebf0b969fc839b02","679826e1de93adbd5c34a650","passed","","753","","","","","","","","","","","","","","f","yesOrNo","","","","11","","","gt","3000","","","45","650.0211431702996","404.58"
"","","","","","html-keyboard-response","170","792074","0.0-18.0-0.21","6792fcd5751aea26106a7e13","6790928bebf0b969fc839b02","679826e1de93adbd5c34a650","passed","","","","","","","","","","","","","","","","","ballFalling","500","510.8711431702997","369.03","8","fallScene","true","","","","","46","",""
"","","","","","html-keyboard-response","171","795076","0.0-18.0-1.21","6792fcd5751aea26106a7e13","6790928bebf0b969fc839b02","679826e1de93adbd5c34a650","passed","","946","","","","","","","","","","","","","","f","yesOrNo","","","","8","","","gt","3000","","","46","510.8711431702997","369.03"
"","","","","","html-keyboard-response","172","796658","0.0-18.0-0.22","6792fcd5751aea26106a7e13","6790928bebf0b969fc839b02","679826e1de93adbd5c34a650","passed","","","","","","","","","","","","","","","","","ballFalling","500","553.4711431702997","282.51","7","fallScene","true","","","","","47","",""
"","","","","","html-keyboard-response","173","799660","0.0-18.0-1.22","6792fcd5751aea26106a7e13","6790928bebf0b969fc839b02","679826e1de93adbd5c34a650","passed","","2672","","","","","","","","","","","","","","j","yesOrNo","","","","7","","","gt","3000","","","47","553.4711431702997","282.51"
"","","","","","html-keyboard-response","174","801224","0.0-18.0-0.23","6792fcd5751aea26106a7e13","6790928bebf0b969fc839b02","679826e1de93adbd5c34a650","passed","","","","","","","","","","","","","","","","","ballFalling","322.3","379.3711431702997","245.25","1","fallScene","true","","","","","48","",""
"","","","","","html-keyboard-response","175","804225","0.0-18.0-1.23","6792fcd5751aea26106a7e13","6790928bebf0b969fc839b02","679826e1de93adbd5c34a650","passed","","1372","","","","","","","","","","","","","","f","yesOrNo","","","","1","","","mid","3000","","","48","390.27114317029975","300"
"","","","","","html-keyboard-response","176","809715","0.0-19.0","6792fcd5751aea26106a7e13","6790928bebf0b969fc839b02","679826e1de93adbd5c34a650","passed","","5489","","","","","","","","","","","","","<p><span style=""font-size:40px;"">BLOCK 3</span></p><p><span style=""font-size:25px;"">You have <b style=""color: #FF644F;""><strong>3 second(s)</strong></b> to respond to the following trials.</span><br></p><p></p> <!-- Blank line -->
                <p id=""blinking-text"" style=""font-weight; animation: blink 2s infinite;"">Press Space to continue</p>
                <style>
                    @keyframes blink {
                        50% {
                            opacity: 0;
                        }
                    }
                </style></p>"," ","","","","","","","","","","","","","",""
"","","","","","html-keyboard-response","177","811291","0.0-20.0-0.0","6792fcd5751aea26106a7e13","6790928bebf0b969fc839b02","679826e1de93adbd5c34a650","passed","","","","","","","","","","","","","","","","","ballFalling","500","553.4711431702997","282.51","7","fallScene","true","","","","","49","",""
"","","","","","html-keyboard-response","178","814293","0.0-20.0-1.0","6792fcd5751aea26106a7e13","6790928bebf0b969fc839b02","679826e1de93adbd5c34a650","passed","","2041","","","","","","","","","","","","","","f","yesOrNo","","","","7","","","lp","3000","","","49","501","227.2843295913261"
"","","","","","html-keyboard-response","179","815858","0.0-20.0-0.1","6792fcd5751aea26106a7e13","6790928bebf0b969fc839b02","679826e1de93adbd5c34a650","passed","","","","","","","","","","","","","","","","","ballFalling","604.4000000000001","575.4211431702997","266.76","12","fallScene","true","","","","","50","",""
"","","","","","html-keyboard-response","180","818860","0.0-20.0-1.1","6792fcd5751aea26106a7e13","6790928bebf0b969fc839b02","679826e1de93adbd5c34a650","passed","","1488","","","","","","","","","","","","","","f","yesOrNo","","","","12","","","lp","3000","","","50","603.4000000000001","151"
"","","","","","html-keyboard-response","181","820358","0.0-20.0-0.2","6792fcd5751aea26106a7e13","6790928bebf0b969fc839b02","679826e1de93adbd5c34a650","passed","","","","","","","","","","","","","","","","","ballFalling","604.4000000000001","667.6211431702998","201.78","9","fallScene","false","","","","","51","",""
"","","","","","html-keyboard-response","182","823359","0.0-20.0-1.2","6792fcd5751aea26106a7e13","6790928bebf0b969fc839b02","679826e1de93adbd5c34a650","passed","","1171","","","","","","","","","","","","","","j","yesOrNo","","","","9","","","gt","3000","","","51","667.6211431702998","201.78"
"","","","","","html-keyboard-response","183","824923","0.0-20.0-0.3","6792fcd5751aea26106a7e13","6790928bebf0b969fc839b02","679826e1de93adbd5c34a650","passed","","","","","","","","","","","","","","","","","ballFalling","604.4000000000001","575.4211431702997","266.76","12","fallScene","true","","","","","52","",""
"","","","","","html-keyboard-response","184","827925","0.0-20.0-1.3","6792fcd5751aea26106a7e13","6790928bebf0b969fc839b02","679826e1de93adbd5c34a650","passed","","960","","","","","","","","","","","","","","j","yesOrNo","","","","12","","","gt","3000","","","52","575.4211431702997","266.76"
"","","","","","html-keyboard-response","185","829491","0.0-20.0-0.4","6792fcd5751aea26106a7e13","6790928bebf0b969fc839b02","679826e1de93adbd5c34a650","passed","","","","","","","","","","","","","","","","","ballFalling","604.4000000000001","575.4211431702997","266.76","12","fallScene","true","","","","","53","",""
"","","","","","html-keyboard-response","186","832493","0.0-20.0-1.4","6792fcd5751aea26106a7e13","6790928bebf0b969fc839b02","679826e1de93adbd5c34a650","passed","","1802","","","","","","","","","","","","","","f","yesOrNo","","","","12","","","mid","3000","","","53","536.4288568297004","300"
"","","","","","html-keyboard-response","187","834057","0.0-20.0-0.5","6792fcd5751aea26106a7e13","6790928bebf0b969fc839b02","679826e1de93adbd5c34a650","passed","","","","","","","","","","","","","","","","","ballFalling","322.3","296.07114317029976","371.46","3","fallScene","true","","","","","54","",""
"","","","","","html-keyboard-response","188","837059","0.0-20.0-1.5","6792fcd5751aea26106a7e13","6790928bebf0b969fc839b02","679826e1de93adbd5c34a650","passed","","1110","","","","","","","","","","","","","","j","yesOrNo","","","","3","","","gt","3000","","","54","296.07114317029976","371.46"
"","","","","","html-keyboard-response","189","838624","0.0-20.0-0.6","6792fcd5751aea26106a7e13","6790928bebf0b969fc839b02","679826e1de93adbd5c34a650","passed","","","","","","","","","","","","","","","","","ballFalling","604.4000000000001","650.0211431702996","404.58000000000004","11","fallScene","true","","","","","55","",""
"","","","","","html-keyboard-response","190","841626","0.0-20.0-1.6","6792fcd5751aea26106a7e13","6790928bebf0b969fc839b02","679826e1de93adbd5c34a650","passed","","1935","","","","","","","","","","","","","","f","yesOrNo","","","","11","","","mid","3000","","","55","605.4000000000001","300"
"","","","","","html-keyboard-response","191","843190","0.0-20.0-0.7","6792fcd5751aea26106a7e13","6790928bebf0b969fc839b02","679826e1de93adbd5c34a650","passed","","","","","","","","","","","","","","","","","ballFalling","322.3","296.07114317029976","371.46","3","fallScene","true","","","","","56","",""
"","","","","","html-keyboard-response","192","846192","0.0-20.0-1.7","6792fcd5751aea26106a7e13","6790928bebf0b969fc839b02","679826e1de93adbd5c34a650","passed","","1804","","","","","","","","","","","","","","j","yesOrNo","","","","3","","","mid","3000","","","56","321.3","300"
"","","","","","html-keyboard-response","193","847758","0.0-20.0-0.8","6792fcd5751aea26106a7e13","6790928bebf0b969fc839b02","679826e1de93adbd5c34a650","passed","","","","","","","","","","","","","","","","","ballFalling","604.4000000000001","575.4211431702997","266.76","12","fallScene","false","","","","","57","",""
"","","","","","html-keyboard-response","194","850760","0.0-20.0-1.8","6792fcd5751aea26106a7e13","6790928bebf0b969fc839b02","679826e1de93adbd5c34a650","passed","","1472","","","","","","","","","","","","","","f","yesOrNo","","","","12","","","lp","3000","","","57","603.4000000000001","151"
"","","","","","html-keyboard-response","195","852323","0.0-20.0-0.9","6792fcd5751aea26106a7e13","6790928bebf0b969fc839b02","679826e1de93adbd5c34a650","passed","","","","","","","","","","","","","","","","","ballFalling","500","453.67114317029973","210.33","5","fallScene","true","","","","","58","",""
"","","","","","html-keyboard-response","196","855326","0.0-20.0-1.9","6792fcd5751aea26106a7e13","6790928bebf0b969fc839b02","679826e1de93adbd5c34a650","passed","","749","","","","","","","","","","","","","","f","yesOrNo","","","","5","","","lp","3000","","","58","499","151"
"","","","","","html-keyboard-response","197","856890","0.0-20.0-0.10","6792fcd5751aea26106a7e13","6790928bebf0b969fc839b02","679826e1de93adbd5c34a650","passed","","","","","","","","","","","","","","","","","ballFalling","322.3","296.07114317029976","371.46","3","fallScene","true","","","","","59","",""
"","","","","","html-keyboard-response","198","859892","0.0-20.0-1.10","6792fcd5751aea26106a7e13","6790928bebf0b969fc839b02","679826e1de93adbd5c34a650","passed","","1864","","","","","","","","","","","","","","f","yesOrNo","","","","3","","","lp","3000","","","59","321.3","287.3327096511259"
"","","","","","html-keyboard-response","199","861457","0.0-20.0-0.11","6792fcd5751aea26106a7e13","6790928bebf0b969fc839b02","679826e1de93adbd5c34a650","passed","","","","","","","","","","","","","","","","","ballFalling","500","453.67114317029973","210.33","5","fallScene","false","","","","","60","",""
"","","","","","html-keyboard-response","200","864459","0.0-20.0-1.11","6792fcd5751aea26106a7e13","6790928bebf0b969fc839b02","679826e1de93adbd5c34a650","passed","","908","","","","","","","","","","","","","","f","yesOrNo","","","","5","","","lp","3000","","","60","499","151"
"","","","","","html-keyboard-response","201","866024","0.0-20.0-0.12","6792fcd5751aea26106a7e13","6790928bebf0b969fc839b02","679826e1de93adbd5c34a650","passed","","","","","","","","","","","","","","","","","ballFalling","322.3","356.42114317029973","357.87","4","fallScene","true","","","","","61","",""
"","","","","","html-keyboard-response","202","869026","0.0-20.0-1.12","6792fcd5751aea26106a7e13","6790928bebf0b969fc839b02","679826e1de93adbd5c34a650","passed","","490","","","","","","","","","","","","","","j","yesOrNo","","","","4","","","gt","3000","","","61","356.42114317029973","357.87"
"","","","","","html-keyboard-response","203","870591","0.0-20.0-0.13","6792fcd5751aea26106a7e13","6790928bebf0b969fc839b02","679826e1de93adbd5c34a650","passed","","","","","","","","","","","","","","","","","ballFalling","322.3","296.07114317029976","371.46","3","fallScene","true","","","","","62","",""
"","","","","","html-keyboard-response","204","873593","0.0-20.0-1.13","6792fcd5751aea26106a7e13","6790928bebf0b969fc839b02","679826e1de93adbd5c34a650","passed","","1571","","","","","","","","","","","","","","f","yesOrNo","","","","3","","","lp","3000","","","62","321.3","287.3327096511259"
"","","","","","html-keyboard-response","205","875157","0.0-20.0-0.14","6792fcd5751aea26106a7e13","6790928bebf0b969fc839b02","679826e1de93adbd5c34a650","passed","","","","","","","","","","","","","","","","","ballFalling","322.3","379.3711431702997","245.25","1","fallScene","true","","","","","63","",""
"","","","","","html-keyboard-response","206","878159","0.0-20.0-1.14","6792fcd5751aea26106a7e13","6790928bebf0b969fc839b02","679826e1de93adbd5c34a650","passed","","1290","","","","","","","","","","","","","","j","yesOrNo","","","","1","","","mid","3000","","","63","390.27114317029975","300"
"","","","","","html-keyboard-response","207","880174","0.0-20.0-0.15","6792fcd5751aea26106a7e13","6790928bebf0b969fc839b02","679826e1de93adbd5c34a650","passed","","","","","","","","","","","","","","","","","ballFalling","500","510.8711431702997","369.03","8","fallScene","true","","","","","64","",""
"","","","","","html-keyboard-response","208","883176","0.0-20.0-1.15","6792fcd5751aea26106a7e13","6790928bebf0b969fc839b02","679826e1de93adbd5c34a650","passed","","847","","","","","","","","","","","","","","j","yesOrNo","","","","8","","","mid","3000","","","64","501","300"
"","","","","","html-keyboard-response","209","884674","0.0-20.0-0.16","6792fcd5751aea26106a7e13","6790928bebf0b969fc839b02","679826e1de93adbd5c34a650","passed","","","","","","","","","","","","","","","","","ballFalling","604.4000000000001","667.6211431702998","201.78","9","fallScene","true","","","","","65","",""
"","","","","","html-keyboard-response","210","887676","0.0-20.0-1.16","6792fcd5751aea26106a7e13","6790928bebf0b969fc839b02","679826e1de93adbd5c34a650","passed","","1287","","","","","","","","","","","","","","j","yesOrNo","","","","9","","","mid","3000","","","65","605.4000000000001","300"
"","","","","","html-keyboard-response","211","889240","0.0-20.0-0.17","6792fcd5751aea26106a7e13","6790928bebf0b969fc839b02","679826e1de93adbd5c34a650","passed","","","","","","","","","","","","","","","","","ballFalling","322.3","379.3711431702997","245.25","1","fallScene","true","","","","","66","",""
"","","","","","html-keyboard-response","212","892242","0.0-20.0-1.17","6792fcd5751aea26106a7e13","6790928bebf0b969fc839b02","679826e1de93adbd5c34a650","passed","","693","","","","","","","","","","","","","","j","yesOrNo","","","","1","","","gt","3000","","","66","379.3711431702997","245.25"
"","","","","","html-keyboard-response","213","893907","0.0-20.0-0.18","6792fcd5751aea26106a7e13","6790928bebf0b969fc839b02","679826e1de93adbd5c34a650","passed","","","","","","","","","","","","","","","","","ballFalling","500","479.92114317029973","330.87","6","fallScene","true","","","","","67","",""
"","","","","","html-keyboard-response","214","896909","0.0-20.0-1.18","6792fcd5751aea26106a7e13","6790928bebf0b969fc839b02","679826e1de93adbd5c34a650","passed","","1151","","","","","","","","","","","","","","j","yesOrNo","","","","6","","","gt","3000","","","67","479.9211431702998","330.87"
"","","","","","html-keyboard-response","215","898474","0.0-20.0-0.19","6792fcd5751aea26106a7e13","6790928bebf0b969fc839b02","679826e1de93adbd5c34a650","passed","","","","","","","","","","","","","","","","","ballFalling","604.4000000000001","575.4211431702997","266.76","12","fallScene","false","","","","","68","",""
"","","","","","html-keyboard-response","216","901476","0.0-20.0-1.19","6792fcd5751aea26106a7e13","6790928bebf0b969fc839b02","679826e1de93adbd5c34a650","passed","","1144","","","","","","","","","","","","","","f","yesOrNo","","","","12","","","mid","3000","","","68","536.4288568297004","300"
"","","","","","html-keyboard-response","217","903490","0.0-20.0-0.20","6792fcd5751aea26106a7e13","6790928bebf0b969fc839b02","679826e1de93adbd5c34a650","passed","","","","","","","","","","","","","","","","","ballFalling","500","510.8711431702997","369.03","8","fallScene","true","","","","","69","",""
"","","","","","html-keyboard-response","218","906492","0.0-20.0-1.20","6792fcd5751aea26106a7e13","6790928bebf0b969fc839b02","679826e1de93adbd5c34a650","passed","","2635","","","","","","","","","","","","","","j","yesOrNo","","","","8","","","mid","3000","","","69","501","300"
"","","","","","html-keyboard-response","219","908057","0.0-20.0-0.21","6792fcd5751aea26106a7e13","6790928bebf0b969fc839b02","679826e1de93adbd5c34a650","passed","","","","","","","","","","","","","","","","","ballFalling","322.3","379.3711431702997","245.25","1","fallScene","false","","","","","70","",""
"","","","","","html-keyboard-response","220","911059","0.0-20.0-1.21","6792fcd5751aea26106a7e13","6790928bebf0b969fc839b02","679826e1de93adbd5c34a650","passed","","1772","","","","","","","","","","","","","","f","yesOrNo","","","","1","","","gt","3000","","","70","379.3711431702997","245.25"
"","","","","","html-keyboard-response","221","912723","0.0-20.0-0.22","6792fcd5751aea26106a7e13","6790928bebf0b969fc839b02","679826e1de93adbd5c34a650","passed","","","","","","","","","","","","","","","","","ballFalling","500","479.92114317029973","330.87","6","fallScene","false","","","","","71","",""
"","","","","","html-keyboard-response","222","915725","0.0-20.0-1.22","6792fcd5751aea26106a7e13","6790928bebf0b969fc839b02","679826e1de93adbd5c34a650","passed","","1822","","","","","","","","","","","","","","f","yesOrNo","","","","6","","","mid","3000","","","71","499","300"
"","","","","","html-keyboard-response","223","917739","0.0-20.0-0.23","6792fcd5751aea26106a7e13","6790928bebf0b969fc839b02","679826e1de93adbd5c34a650","passed","","","","","","","","","","","","","","","","","ballFalling","604.4000000000001","596.8711431702998","394.5","10","fallScene","true","","","","","72","",""
"","","","","","html-keyboard-response","224","920741","0.0-20.0-1.23","6792fcd5751aea26106a7e13","6790928bebf0b969fc839b02","679826e1de93adbd5c34a650","passed","","1433","","","","","","","","","","","","","","f","yesOrNo","","","","10","","","gt","3000","","","72","596.8711431702998","394.5"
"","","","","","html-keyboard-response","225","927088","0.0-21.0","6792fcd5751aea26106a7e13","6790928bebf0b969fc839b02","679826e1de93adbd5c34a650","passed","","6347","","","","","","","","","","","","","<p><span style=""font-size:40px;"">BLOCK 4</span></p><p><span style=""font-size:25px;"">You have <b style=""color: #FF644F;""><strong>3 second(s)</strong></b> to respond to the following trials.</span><br></p><p></p> <!-- Blank line -->
                <p id=""blinking-text"" style=""font-weight; animation: blink 2s infinite;"">Press Space to continue</p>
                <style>
                    @keyframes blink {
                        50% {
                            opacity: 0;
                        }
                    }
                </style></p>"," ","","","","","","","","","","","","","",""
"","","","","","html-keyboard-response","226","928640","0.0-22.0-0.0","6792fcd5751aea26106a7e13","6790928bebf0b969fc839b02","679826e1de93adbd5c34a650","passed","","","","","","","","","","","","","","","","","ballFalling","322.3","356.42114317029973","357.87","4","fallScene","true","","","","","73","",""
"","","","","","html-keyboard-response","227","931643","0.0-22.0-1.0","6792fcd5751aea26106a7e13","6790928bebf0b969fc839b02","679826e1de93adbd5c34a650","passed","","968","","","","","","","","","","","","","","j","yesOrNo","","","","4","","","mid","3000","","","73","390.27114317029975","300"
"","","","","","html-keyboard-response","228","933207","0.0-22.0-0.1","6792fcd5751aea26106a7e13","6790928bebf0b969fc839b02","679826e1de93adbd5c34a650","passed","","","","","","","","","","","","","","","","","ballFalling","604.4000000000001","650.0211431702996","404.58000000000004","11","fallScene","false","","","","","74","",""
"","","","","","html-keyboard-response","229","936210","0.0-22.0-1.1","6792fcd5751aea26106a7e13","6790928bebf0b969fc839b02","679826e1de93adbd5c34a650","passed","","1796","","","","","","","","","","","","","","f","yesOrNo","","","","11","","","mid","3000","","","74","605.4000000000001","300"
"","","","","","html-keyboard-response","230","937707","0.0-22.0-0.2","6792fcd5751aea26106a7e13","6790928bebf0b969fc839b02","679826e1de93adbd5c34a650","passed","","","","","","","","","","","","","","","","","ballFalling","604.4000000000001","667.6211431702998","201.78","9","fallScene","false","","","","","75","",""
"","","","","","html-keyboard-response","231","940710","0.0-22.0-1.2","6792fcd5751aea26106a7e13","6790928bebf0b969fc839b02","679826e1de93adbd5c34a650","passed","","967","","","","","","","","","","","","","","f","yesOrNo","","","","9","","","lp","3000","","","75","605.4000000000001","151"
"","","","","","html-keyboard-response","232","942273","0.0-22.0-0.3","6792fcd5751aea26106a7e13","6790928bebf0b969fc839b02","679826e1de93adbd5c34a650","passed","","","","","","","","","","","","","","","","","ballFalling","322.3","356.42114317029973","357.87","4","fallScene","true","","","","","76","",""
"","","","","","html-keyboard-response","233","945275","0.0-22.0-1.3","6792fcd5751aea26106a7e13","6790928bebf0b969fc839b02","679826e1de93adbd5c34a650","passed","","657","","","","","","","","","","","","","","j","yesOrNo","","","","4","","","lp","3000","","","76","323.3","297.4070551689986"
"","","","","","html-keyboard-response","234","946774","0.0-22.0-0.4","6792fcd5751aea26106a7e13","6790928bebf0b969fc839b02","679826e1de93adbd5c34a650","passed","","","","","","","","","","","","","","","","","ballFalling","604.4000000000001","667.6211431702998","201.78","9","fallScene","false","","","","","77","",""
"","","","","","html-keyboard-response","235","949776","0.0-22.0-1.4","6792fcd5751aea26106a7e13","6790928bebf0b969fc839b02","679826e1de93adbd5c34a650","passed","","1485","","","","","","","","","","","","","","j","yesOrNo","","","","9","","","gt","3000","","","77","667.6211431702998","201.78"
"","","","","","html-keyboard-response","236","951340","0.0-22.0-0.5","6792fcd5751aea26106a7e13","6790928bebf0b969fc839b02","679826e1de93adbd5c34a650","passed","","","","","","","","","","","","","","","","","ballFalling","322.3","356.42114317029973","357.87","4","fallScene","true","","","","","78","",""
"","","","","","html-keyboard-response","237","954342","0.0-22.0-1.5","6792fcd5751aea26106a7e13","6790928bebf0b969fc839b02","679826e1de93adbd5c34a650","passed","","1359","","","","","","","","","","","","","","j","yesOrNo","","","","4","","","lp","3000","","","78","323.3","297.4070551689986"
"","","","","","html-keyboard-response","238","955908","0.0-22.0-0.6","6792fcd5751aea26106a7e13","6790928bebf0b969fc839b02","679826e1de93adbd5c34a650","passed","","","","","","","","","","","","","","","","","ballFalling","322.3","379.3711431702997","245.25","1","fallScene","false","","","","","79","",""
"","","","","","html-keyboard-response","239","958910","0.0-22.0-1.6","6792fcd5751aea26106a7e13","6790928bebf0b969fc839b02","679826e1de93adbd5c34a650","passed","","892","","","","","","","","","","","","","","f","yesOrNo","","","","1","","","lp","3000","","","79","323.3","217.74551669457017"
"","","","","","html-keyboard-response","240","960573","0.0-22.0-0.7","6792fcd5751aea26106a7e13","6790928bebf0b969fc839b02","679826e1de93adbd5c34a650","passed","","","","","","","","","","","","","","","","","ballFalling","500","479.92114317029973","330.87","6","fallScene","true","","","","","80","",""
"","","","","","html-keyboard-response","241","963575","0.0-22.0-1.7","6792fcd5751aea26106a7e13","6790928bebf0b969fc839b02","679826e1de93adbd5c34a650","passed","","957","","","","","","","","","","","","","","f","yesOrNo","","","","6","","","gt","3000","","","80","479.9211431702998","330.87"
"","","","","","html-keyboard-response","242","965590","0.0-22.0-0.8","6792fcd5751aea26106a7e13","6790928bebf0b969fc839b02","679826e1de93adbd5c34a650","passed","","","","","","","","","","","","","","","","","ballFalling","604.4000000000001","596.8711431702998","394.5","10","fallScene","true","","","","","81","",""
"","","","","","html-keyboard-response","243","968593","0.0-22.0-1.8","6792fcd5751aea26106a7e13","6790928bebf0b969fc839b02","679826e1de93adbd5c34a650","passed","","null","","","","","","","","","","","","","","null","yesOrNo","","","","10","","","mid","3000","","","81","536.4288568297004","300"
"","","","","","html-keyboard-response","244","970173","0.0-22.0-0.9","6792fcd5751aea26106a7e13","6790928bebf0b969fc839b02","679826e1de93adbd5c34a650","passed","","","","","","","","","","","","","","","","","ballFalling","500","553.4711431702997","282.51","7","fallScene","true","","","","","82","",""
"","","","","","html-keyboard-response","245","973175","0.0-22.0-1.9","6792fcd5751aea26106a7e13","6790928bebf0b969fc839b02","679826e1de93adbd5c34a650","passed","","1447","","","","","","","","","","","","","","j","yesOrNo","","","","7","","","mid","3000","","","82","501","300"
"","","","","","html-keyboard-response","246","974739","0.0-22.0-0.10","6792fcd5751aea26106a7e13","6790928bebf0b969fc839b02","679826e1de93adbd5c34a650","passed","","","","","","","","","","","","","","","","","ballFalling","604.4000000000001","650.0211431702996","404.58000000000004","11","fallScene","false","","","","","83","",""
"","","","","","html-keyboard-response","247","977741","0.0-22.0-1.10","6792fcd5751aea26106a7e13","6790928bebf0b969fc839b02","679826e1de93adbd5c34a650","passed","","1725","","","","","","","","","","","","","","f","yesOrNo","","","","11","","","lp","3000","","","83","605.4000000000001","372.6340973215488"
"","","","","","html-keyboard-response","248","979306","0.0-22.0-0.11","6792fcd5751aea26106a7e13","6790928bebf0b969fc839b02","679826e1de93adbd5c34a650","passed","","","","","","","","","","","","","","","","","ballFalling","322.3","379.3711431702997","245.25","1","fallScene","false","","","","","84","",""
"","","","","","html-keyboard-response","249","982308","0.0-22.0-1.11","6792fcd5751aea26106a7e13","6790928bebf0b969fc839b02","679826e1de93adbd5c34a650","passed","","1204","","","","","","","","","","","","","","j","yesOrNo","","","","1","","","lp","3000","","","84","323.3","217.74551669457017"
"","","","","","html-keyboard-response","250","983873","0.0-22.0-0.12","6792fcd5751aea26106a7e13","6790928bebf0b969fc839b02","679826e1de93adbd5c34a650","passed","","","","","","","","","","","","","","","","","ballFalling","604.4000000000001","575.4211431702997","266.76","12","fallScene","false","","","","","85","",""
"","","","","","html-keyboard-response","251","986875","0.0-22.0-1.12","6792fcd5751aea26106a7e13","6790928bebf0b969fc839b02","679826e1de93adbd5c34a650","passed","","1272","","","","","","","","","","","","","","j","yesOrNo","","","","12","","","gt","3000","","","85","575.4211431702997","266.76"
"","","","","","html-keyboard-response","252","988373","0.0-22.0-0.13","6792fcd5751aea26106a7e13","6790928bebf0b969fc839b02","679826e1de93adbd5c34a650","passed","","","","","","","","","","","","","","","","","ballFalling","604.4000000000001","667.6211431702998","201.78","9","fallScene","false","","","","","86","",""
"","","","","","html-keyboard-response","253","991376","0.0-22.0-1.13","6792fcd5751aea26106a7e13","6790928bebf0b969fc839b02","679826e1de93adbd5c34a650","passed","","1180","","","","","","","","","","","","","","f","yesOrNo","","","","9","","","lp","3000","","","86","605.4000000000001","151"
"","","","","","html-keyboard-response","254","992956","0.0-22.0-0.14","6792fcd5751aea26106a7e13","6790928bebf0b969fc839b02","679826e1de93adbd5c34a650","passed","","","","","","","","","","","","","","","","","ballFalling","500","553.4711431702997","282.51","7","fallScene","true","","","","","87","",""
"","","","","","html-keyboard-response","255","995958","0.0-22.0-1.14","6792fcd5751aea26106a7e13","6790928bebf0b969fc839b02","679826e1de93adbd5c34a650","passed","","1047","","","","","","","","","","","","","","j","yesOrNo","","","","7","","","gt","3000","","","87","553.4711431702997","282.51"
"","","","","","html-keyboard-response","256","997756","0.0-22.0-0.15","6792fcd5751aea26106a7e13","6790928bebf0b969fc839b02","679826e1de93adbd5c34a650","passed","","","","","","","","","","","","","","","","","ballFalling","322.3","308.07114317029976","253.89","2","fallScene","false","","","","","88","",""
"","","","","","html-keyboard-response","257","1000759","0.0-22.0-1.15","6792fcd5751aea26106a7e13","6790928bebf0b969fc839b02","679826e1de93adbd5c34a650","passed","","845","","","","","","","","","","","","","","j","yesOrNo","","","","2","","","mid","3000","","","88","321.3","300"
"","","","","","html-keyboard-response","258","1002340","0.0-22.0-0.16","6792fcd5751aea26106a7e13","6790928bebf0b969fc839b02","679826e1de93adbd5c34a650","passed","","","","","","","","","","","","","","","","","ballFalling","500","553.4711431702997","282.51","7","fallScene","false","","","","","89","",""
"","","","","","html-keyboard-response","259","1005342","0.0-22.0-1.16","6792fcd5751aea26106a7e13","6790928bebf0b969fc839b02","679826e1de93adbd5c34a650","passed","","1222","","","","","","","","","","","","","","f","yesOrNo","","","","7","","","lp","3000","","","89","501","227.2843295913261"
"","","","","","html-keyboard-response","260","1007356","0.0-22.0-0.17","6792fcd5751aea26106a7e13","6790928bebf0b969fc839b02","679826e1de93adbd5c34a650","passed","","","","","","","","","","","","","","","","","ballFalling","604.4000000000001","596.8711431702998","394.5","10","fallScene","false","","","","","90","",""
"","","","","","html-keyboard-response","261","1010359","0.0-22.0-1.17","6792fcd5751aea26106a7e13","6790928bebf0b969fc839b02","679826e1de93adbd5c34a650","passed","","1794","","","","","","","","","","","","","","f","yesOrNo","","","","10","","","mid","3000","","","90","536.4288568297004","300"
"","","","","","html-keyboard-response","262","1012023","0.0-22.0-0.18","6792fcd5751aea26106a7e13","6790928bebf0b969fc839b02","679826e1de93adbd5c34a650","passed","","","","","","","","","","","","","","","","","ballFalling","500","479.92114317029973","330.87","6","fallScene","false","","","","","91","",""
"","","","","","html-keyboard-response","263","1015025","0.0-22.0-1.18","6792fcd5751aea26106a7e13","6790928bebf0b969fc839b02","679826e1de93adbd5c34a650","passed","","946","","","","","","","","","","","","","","f","yesOrNo","","","","6","","","lp","3000","","","91","499","189.92909825697632"
"","","","","","html-keyboard-response","264","1016589","0.0-22.0-0.19","6792fcd5751aea26106a7e13","6790928bebf0b969fc839b02","679826e1de93adbd5c34a650","passed","","","","","","","","","","","","","","","","","ballFalling","322.3","296.07114317029976","371.46","3","fallScene","false","","","","","92","",""
"","","","","","html-keyboard-response","265","1019591","0.0-22.0-1.19","6792fcd5751aea26106a7e13","6790928bebf0b969fc839b02","679826e1de93adbd5c34a650","passed","","1291","","","","","","","","","","","","","","j","yesOrNo","","","","3","","","gt","3000","","","92","296.07114317029976","371.46"
"","","","","","html-keyboard-response","266","1021606","0.0-22.0-0.20","6792fcd5751aea26106a7e13","6790928bebf0b969fc839b02","679826e1de93adbd5c34a650","passed","","","","","","","","","","","","","","","","","ballFalling","500","510.8711431702997","369.03","8","fallScene","true","","","","","93","",""
"","","","","","html-keyboard-response","267","1024608","0.0-22.0-1.20","6792fcd5751aea26106a7e13","6790928bebf0b969fc839b02","679826e1de93adbd5c34a650","passed","","1373","","","","","","","","","","","","","","j","yesOrNo","","","","8","","","gt","3000","","","93","510.8711431702997","369.03"
"","","","","","html-keyboard-response","268","1026273","0.0-22.0-0.21","6792fcd5751aea26106a7e13","6790928bebf0b969fc839b02","679826e1de93adbd5c34a650","passed","","","","","","","","","","","","","","","","","ballFalling","500","479.92114317029973","330.87","6","fallScene","false","","","","","94","",""
"","","","","","html-keyboard-response","269","1029275","0.0-22.0-1.21","6792fcd5751aea26106a7e13","6790928bebf0b969fc839b02","679826e1de93adbd5c34a650","passed","","675","","","","","","","","","","","","","","j","yesOrNo","","","","6","","","mid","3000","","","94","499","300"
"","","","","","html-keyboard-response","270","1030839","0.0-22.0-0.22","6792fcd5751aea26106a7e13","6790928bebf0b969fc839b02","679826e1de93adbd5c34a650","passed","","","","","","","","","","","","","","","","","ballFalling","500","453.67114317029973","210.33","5","fallScene","true","","","","","95","",""
"","","","","","html-keyboard-response","271","1033841","0.0-22.0-1.22","6792fcd5751aea26106a7e13","6790928bebf0b969fc839b02","679826e1de93adbd5c34a650","passed","","878","","","","","","","","","","","","","","j","yesOrNo","","","","5","","","mid","3000","","","95","499","300"
"","","","","","html-keyboard-response","272","1035405","0.0-22.0-0.23","6792fcd5751aea26106a7e13","6790928bebf0b969fc839b02","679826e1de93adbd5c34a650","passed","","","","","","","","","","","","","","","","","ballFalling","322.3","356.42114317029973","357.87","4","fallScene","true","","","","","96","",""
"","","","","","html-keyboard-response","273","1038408","0.0-22.0-1.23","6792fcd5751aea26106a7e13","6790928bebf0b969fc839b02","679826e1de93adbd5c34a650","passed","","997","","","","","","","","","","","","","","j","yesOrNo","","","","4","","","gt","3000","","","96","356.42114317029973","357.87"
"","","","","","html-keyboard-response","274","1045801","0.0-23.0","6792fcd5751aea26106a7e13","6790928bebf0b969fc839b02","679826e1de93adbd5c34a650","passed","","7393","","","","","","","","","","","","","<p><span style=""font-size:40px;"">BLOCK 5</span></p><p><span style=""font-size:25px;"">You have <b style=""color: #FF644F;""><strong>1 second(s)</strong></b> to respond to the following trials.</span><br></p><p></p> <!-- Blank line -->
                <p id=""blinking-text"" style=""font-weight; animation: blink 2s infinite;"">Press Space to continue</p>
                <style>
                    @keyframes blink {
                        50% {
                            opacity: 0;
                        }
                    }
                </style></p>"," ","","","","","","","","","","","","","",""
"","","","","","html-keyboard-response","275","1047356","0.0-24.0-0.0","6792fcd5751aea26106a7e13","6790928bebf0b969fc839b02","679826e1de93adbd5c34a650","passed","","","","","","","","","","","","","","","","","ballFalling","322.3","356.42114317029973","357.87","4","fallScene","true","","","","","97","",""
"","","","","","html-keyboard-response","276","1048359","0.0-24.0-1.0","6792fcd5751aea26106a7e13","6790928bebf0b969fc839b02","679826e1de93adbd5c34a650","passed","","454","","","","","","","","","","","","","","j","yesOrNo","","","","4","","","lp","1000","","","97","323.3","297.4070551689986"
"","","","","","html-keyboard-response","277","1050372","0.0-24.0-0.1","6792fcd5751aea26106a7e13","6790928bebf0b969fc839b02","679826e1de93adbd5c34a650","passed","","","","","","","","","","","","","","","","","ballFalling","604.4000000000001","596.8711431702998","394.5","10","fallScene","false","","","","","98","",""
"","","","","","html-keyboard-response","278","1051374","0.0-24.0-1.1","6792fcd5751aea26106a7e13","6790928bebf0b969fc839b02","679826e1de93adbd5c34a650","passed","","809","","","","","","","","","","","","","","f","yesOrNo","","","","10","","","gt","1000","","","98","596.8711431702998","394.5"
"","","","","","html-keyboard-response","279","1052873","0.0-24.0-0.2","6792fcd5751aea26106a7e13","6790928bebf0b969fc839b02","679826e1de93adbd5c34a650","passed","","","","","","","","","","","","","","","","","ballFalling","604.4000000000001","667.6211431702998","201.78","9","fallScene","false","","","","","99","",""
"","","","","","html-keyboard-response","280","1053875","0.0-24.0-1.2","6792fcd5751aea26106a7e13","6790928bebf0b969fc839b02","679826e1de93adbd5c34a650","passed","","658","","","","","","","","","","","","","","f","yesOrNo","","","","9","","","lp","1000","","","99","605.4000000000001","151"
"","","","","","html-keyboard-response","281","1055539","0.0-24.0-0.3","6792fcd5751aea26106a7e13","6790928bebf0b969fc839b02","679826e1de93adbd5c34a650","passed","","","","","","","","","","","","","","","","","ballFalling","500","479.92114317029973","330.87","6","fallScene","true","","","","","100","",""
"","","","","","html-keyboard-response","282","1056542","0.0-24.0-1.3","6792fcd5751aea26106a7e13","6790928bebf0b969fc839b02","679826e1de93adbd5c34a650","passed","","767","","","","","","","","","","","","","","f","yesOrNo","","","","6","","","lp","1000","","","100","499","189.92909825697632"
"","","","","","html-keyboard-response","283","1058106","0.0-24.0-0.4","6792fcd5751aea26106a7e13","6790928bebf0b969fc839b02","679826e1de93adbd5c34a650","passed","","","","","","","","","","","","","","","","","ballFalling","500","453.67114317029973","210.33","5","fallScene","false","","","","","101","",""
"","","","","","html-keyboard-response","284","1059108","0.0-24.0-1.4","6792fcd5751aea26106a7e13","6790928bebf0b969fc839b02","679826e1de93adbd5c34a650","passed","","645","","","","","","","","","","","","","","j","yesOrNo","","","","5","","","lp","1000","","","101","499","151"
"","","","","","html-keyboard-response","285","1061122","0.0-24.0-0.5","6792fcd5751aea26106a7e13","6790928bebf0b969fc839b02","679826e1de93adbd5c34a650","passed","","","","","","","","","","","","","","","","","ballFalling","500","510.8711431702997","369.03","8","fallScene","false","","","","","102","",""
"","","","","","html-keyboard-response","286","1062124","0.0-24.0-1.5","6792fcd5751aea26106a7e13","6790928bebf0b969fc839b02","679826e1de93adbd5c34a650","passed","","623","","","","","","","","","","","","","","f","yesOrNo","","","","8","","","mid","1000","","","102","501","300"
"","","","","","html-keyboard-response","287","1063689","0.0-24.0-0.6","6792fcd5751aea26106a7e13","6790928bebf0b969fc839b02","679826e1de93adbd5c34a650","passed","","","","","","","","","","","","","","","","","ballFalling","322.3","379.3711431702997","245.25","1","fallScene","false","","","","","103","",""
"","","","","","html-keyboard-response","288","1064691","0.0-24.0-1.6","6792fcd5751aea26106a7e13","6790928bebf0b969fc839b02","679826e1de93adbd5c34a650","passed","","697","","","","","","","","","","","","","","f","yesOrNo","","","","1","","","gt","1000","","","103","379.3711431702997","245.25"
"","","","","","html-keyboard-response","289","1066255","0.0-24.0-0.7","6792fcd5751aea26106a7e13","6790928bebf0b969fc839b02","679826e1de93adbd5c34a650","passed","","","","","","","","","","","","","","","","","ballFalling","604.4000000000001","575.4211431702997","266.76","12","fallScene","true","","","","","104","",""
"","","","","","html-keyboard-response","290","1067258","0.0-24.0-1.7","6792fcd5751aea26106a7e13","6790928bebf0b969fc839b02","679826e1de93adbd5c34a650","passed","","689","","","","","","","","","","","","","","f","yesOrNo","","","","12","","","lp","1000","","","104","603.4000000000001","151"
"","","","","","html-keyboard-response","291","1069056","0.0-24.0-0.8","6792fcd5751aea26106a7e13","6790928bebf0b969fc839b02","679826e1de93adbd5c34a650","passed","","","","","","","","","","","","","","","","","ballFalling","322.3","308.07114317029976","253.89","2","fallScene","false","","","","","105","",""
"","","","","","html-keyboard-response","292","1070058","0.0-24.0-1.8","6792fcd5751aea26106a7e13","6790928bebf0b969fc839b02","679826e1de93adbd5c34a650","passed","","393","","","","","","","","","","","","","","j","yesOrNo","","","","2","","","mid","1000","","","105","321.3","300"
"","","","","","html-keyboard-response","293","1071722","0.0-24.0-0.9","6792fcd5751aea26106a7e13","6790928bebf0b969fc839b02","679826e1de93adbd5c34a650","passed","","","","","","","","","","","","","","","","","ballFalling","500","479.92114317029973","330.87","6","fallScene","true","","","","","106","",""
"","","","","","html-keyboard-response","294","1072724","0.0-24.0-1.9","6792fcd5751aea26106a7e13","6790928bebf0b969fc839b02","679826e1de93adbd5c34a650","passed","","638","","","","","","","","","","","","","","f","yesOrNo","","","","6","","","mid","1000","","","106","499","300"
"","","","","","html-keyboard-response","295","1074289","0.0-24.0-0.10","6792fcd5751aea26106a7e13","6790928bebf0b969fc839b02","679826e1de93adbd5c34a650","passed","","","","","","","","","","","","","","","","","ballFalling","604.4000000000001","650.0211431702996","404.58000000000004","11","fallScene","false","","","","","107","",""
"","","","","","html-keyboard-response","296","1075291","0.0-24.0-1.10","6792fcd5751aea26106a7e13","6790928bebf0b969fc839b02","679826e1de93adbd5c34a650","passed","","768","","","","","","","","","","","","","","j","yesOrNo","","","","11","","","lp","1000","","","107","605.4000000000001","372.6340973215488"
"","","","","","html-keyboard-response","297","1077306","0.0-24.0-0.11","6792fcd5751aea26106a7e13","6790928bebf0b969fc839b02","679826e1de93adbd5c34a650","passed","","","","","","","","","","","","","","","","","ballFalling","500","510.8711431702997","369.03","8","fallScene","true","","","","","108","",""
"","","","","","html-keyboard-response","298","1078308","0.0-24.0-1.11","6792fcd5751aea26106a7e13","6790928bebf0b969fc839b02","679826e1de93adbd5c34a650","passed","","577","","","","","","","","","","","","","","f","yesOrNo","","","","8","","","lp","1000","","","108","501","151"
"","","","","","html-keyboard-response","299","1080105","0.0-24.0-0.12","6792fcd5751aea26106a7e13","6790928bebf0b969fc839b02","679826e1de93adbd5c34a650","passed","","","","","","","","","","","","","","","","","ballFalling","322.3","308.07114317029976","253.89","2","fallScene","false","","","","","109","",""
"","","","","","html-keyboard-response","300","1081107","0.0-24.0-1.12","6792fcd5751aea26106a7e13","6790928bebf0b969fc839b02","679826e1de93adbd5c34a650","passed","","758","","","","","","","","","","","","","","j","yesOrNo","","","","2","","","mid","1000","","","109","321.3","300"
