success,timeout,failed_images,failed_audio,failed_video,trial_type,trial_index,time_elapsed,internal_node_id,subject_id,study_id,session_id,practiceTestResult,view_history,rt,width,height,webaudio,browser,browser_version,mobile,os,fullscreen,vsync_rate,webcam,microphone,url,stimulus,response,task,ball_X,obstacle_groundTruth_x,obstacle_groundTruth_y,stimulus_idx,trial_name,flipped,choice,timeLimit,question_order,comprehensionCheck,currentTrial,obstacle_choice_x,obstacle_choice_y
TRUE,FALSE,[],[],[],preload,0,11,0.0-0.0,5980128635fbf100017d0861,,,passed,,,,,,,,,,,,,,,,,,,,,,,,,,,,,,
,,,,,instructions,1,2695,0.0-1.0,5980128635fbf100017d0861,,,passed,"[{""page_index"":0,""viewing_time"":2683}]",2683,,,,,,,,,,,,,,,,,,,,,,,,,,,,
,,,,,browser-check,2,2943,0.0-2.0,5980128635fbf100017d0861,,,passed,,,1707,1067,TRUE,chrome,131.0.0,FALSE,Windows 10,TRUE,244.7,TRUE,TRUE,,,,,,,,,,,,,,,,,
,,,,,external-html,3,6231,0.0-3.0,5980128635fbf100017d0861,,,passed,,3126,,,,,,,,,,,,consent.html,,,,,,,,,,,,,,,,
TRUE,,,,,fullscreen,4,10964,0.0-4.0,5980128635fbf100017d0861,,,passed,,4423,,,,,,,,,,,,,,,,,,,,,,,,,,,,
,,,,,browser-check,5,11213,0.0-5.0,5980128635fbf100017d0861,,,passed,,,1707,1067,TRUE,chrome,131.0.0,FALSE,Windows 10,TRUE,242.03,TRUE,TRUE,,,,,,,,,,,,,,,,,
,,,,,html-keyboard-response,6,14227,0.0-6.0,5980128635fbf100017d0861,,,passed,,3013,,,,,,,,,,,,,"<p><b>This experiment requires keyboard input.</b></p> 
        <p><b>To ensure your response will be recorded successfully, please press 'Space' to continue.</b></p>
        <p>If you can't proceed, you won't be able to complete this study.</p>
        <p></p> <!-- Blank line -->
        <p id=""blinking-text"" style=""font-weight; animation: blink 2s infinite;"">Press Space to continue</p>
        <style>
            @keyframes blink {
                50% {
                    opacity: 0;
                }
            }
        </style>", ,,,,,,,,,,,,,,
,,,,,html-keyboard-response,7,16107,0.0-7.0,5980128635fbf100017d0861,,,passed,,1880,,,,,,,,,,,,,"<p><b>This experiment requires keyboard input.</b></p> 
        <p><b>To ensure your response will be recorded successfully, please press the 'f' key to continue.</b></p>
        <p>If you can't proceed, you won't be able to complete this study.</p>
        <p></p> <!-- Blank line -->
        <p id=""blinking-text"" style=""font-weight; animation: blink 2s infinite;"">Press f to continue</p>
        <style>
            @keyframes blink {
                50% {
                    opacity: 0;
                }
            }
        </style>",f,,,,,,,,,,,,,,
,,,,,html-keyboard-response,8,17714,0.0-8.0,5980128635fbf100017d0861,,,passed,,1607,,,,,,,,,,,,,"<p><b>This experiment requires keyboard input.</b></p> 
        <p><b>To ensure your response will be recorded successfully, please press the 'j' key to continue.</b></p>
        <p>If you can't proceed, you won't be able to complete this study.</p>
        <p></p> <!-- Blank line -->
        <p id=""blinking-text"" style=""font-weight; animation: blink 2s infinite;"">Press j to continue</p>
        <style>
            @keyframes blink {
                50% {
                    opacity: 0;
                }
            }
        </style>",j,,,,,,,,,,,,,,
,,,,,browser-check,9,17968,0.0-9.0,5980128635fbf100017d0861,,,passed,,,1707,1067,TRUE,chrome,131.0.0,FALSE,Windows 10,TRUE,239.52,TRUE,TRUE,,,,,,,,,,,,,,,,,
,,,,,survey-text,10,21095,0.0-10.0,5980128635fbf100017d0861,,,passed,,3126,,,,,,,,,,,,,,"{""prolificID"":""5980128635fbf100017d0861""}",,,,,,,,,,,,,,
,,,,,instructions,11,44224,0.0-11.0-0.0-0.0,5980128635fbf100017d0861,,,passed,"[{""page_index"":0,""viewing_time"":6415},{""page_index"":1,""viewing_time"":6232},{""page_index"":2,""viewing_time"":4312},{""page_index"":3,""viewing_time"":6168}]",23128,,,,,,,,,,,,,,,,,,,,,,,,,,,,
,,,,,html-keyboard-response,12,56104,0.0-11.0-0.0-1.0,5980128635fbf100017d0861,,,passed,,11379,,,,,,,,,,,,,"<br>Remember! After a ball falls, the screen will disappear, and you'll decide if the proposed position is where the hidden triangle was. <br>You will now practice this by watching a few videos and making decisions.<p>To respond:<br style=""margin-bottom: 5px; text-indent: -20px; padding-left: 20px;"">- Press <b style=""color: #12AD2B;"">J for Yes</b>, if you think the triangle is in the correct position.<br style=""margin-top: 0; text-indent: -20px; padding-left: 20px;"">- Press <b style=""color: orange;"">F for No</b>, if you think the triangle is not in the correct position.</p><p>In this practice round, there is no time limit. Focus on getting comfortable with the task first.<br>Press either J or F to begin your practice trials.</p><img src = ""YesOrNo_instruction.png"" style=""width: 65%;""></img>",j,,,,,,,,,,,,,,
,,,,,html-keyboard-response,13,58160,0.0-11.0-0.0-2.0-0.0,5980128635fbf100017d0861,,,passed,,,,,,,,,,,,,,,,,ballFalling_prac,660,666,350,3,fallScene,FALSE,,,,,,,
,,,,,html-keyboard-response,14,61895,0.0-11.0-0.0-2.0-1.0,5980128635fbf100017d0861,,,passed,,3733,,,,,,,,,,,,,,f,yesOrNo_prac_noTimed,,,,3,,,wrong direction,NA,,,,,
,,,,,html-keyboard-response,15,63471,0.0-11.0-0.0-2.0-0.1,5980128635fbf100017d0861,,,passed,,,,,,,,,,,,,,,,,ballFalling_prac,441,414,302,5,fallScene,TRUE,,,,,,,
,,,,,html-keyboard-response,16,64347,0.0-11.0-0.0-2.0-1.1,5980128635fbf100017d0861,,,passed,,875,,,,,,,,,,,,,,f,yesOrNo_prac_noTimed,,,,5,,,close gt,NA,,,,,
,,,,,html-keyboard-response,17,65904,0.0-11.0-0.0-2.0-0.2,5980128635fbf100017d0861,,,passed,,,,,,,,,,,,,,,,,ballFalling_prac,416,464,296,1,fallScene,FALSE,,,,,,,
,,,,,html-keyboard-response,18,67453,0.0-11.0-0.0-2.0-1.2,5980128635fbf100017d0861,,,passed,,1548,,,,,,,,,,,,,,f,yesOrNo_prac_noTimed,,,,1,,,gt,NA,,,,,
,,,,,instructions,19,87049,0.0-11.0-0.0-3.0,5980128635fbf100017d0861,,,passed,"[{""page_index"":0,""viewing_time"":3690},{""page_index"":1,""viewing_time"":15905}]",19595,,,,,,,,,,,,,,,,,,,,,,,,,,,,
,,,,,html-button-response,20,89113,0.0-11.0-0.0-4.0,5980128635fbf100017d0861,,,passed,,1549,,,,,,,,,,,,,"<p>To make sure you understood the task, we just have a <b>brief quiz</b> here.</p><p>If you need to review the instructions, click 'Previous'.</p><p>It's important to understand the task to do the study, so you have to pass the quiz to move to the study.</p>",1,,,,,,,,,,,,,,
,,,,,survey-multi-choice,21,92273,0.0-11.0-1.0-0.0,5980128635fbf100017d0861,,,passed,,3159,,,,,,,,,,,,,,"{""generalProcedure"":""Watch a video of a ball falling, some of it behind a gray screen. After each video, decide if the triangle is at the spot where the ball hit the triangle behind the screen. There is time limit for the response.""}",,,,,,,,,,[0],,,,
,,,,,survey-multi-choice,22,96161,0.0-11.0-1.0-1.0,5980128635fbf100017d0861,,,passed,,3887,,,,,,,,,,,,,,"{""checkBallHitObstacle"":""Yes.""}",,,,,,,,,,[0],,,,
,,,,,survey-multi-choice,23,97937,0.0-11.0-1.0-2.0,5980128635fbf100017d0861,,,passed,,1775,,,,,,,,,,,,,,"{""checkTriangleVisibility"":""No, the triangle is hidden behind the gray screen.""}",,,,,,,,,,[0],,,,
,,,,,survey-multi-choice,24,103001,0.0-11.0-1.0-3.0,5980128635fbf100017d0861,,,passed,,5064,,,,,,,,,,,,,,"{""checkTimedResponse"":""Your response will not be recorded, and the trial will move to the next one.""}",,,,,,,,,,[0],,,,
,,,,,survey-multi-choice,25,110793,0.0-11.0-1.0-4.0,5980128635fbf100017d0861,,,passed,,7792,,,,,,,,,,,,,,"{""checkTimeBlockNotice"":""Before every individual trial.""}",,,,,,,,,,[0],,,,
,,,,,survey-multi-choice,26,116450,0.0-11.0-1.0-5.0,5980128635fbf100017d0861,,,passed,,5656,,,,,,,,,,,,,,"{""checkTimeBlockSameness"":""No, the time limit changes for each trial within a block.""}",,,,,,,,,,[0],,,,
,,,,,survey-multi-choice,27,122553,0.0-11.0-1.0-6.0,5980128635fbf100017d0861,,,passed,,6103,,,,,,,,,,,,,,"{""checkTrianglePrecision"":""Yes. The proposed purple triangle is very close to the correct position, so I should choose 'Yes.'""}",,,,,,,,,,[0],,,,
,,,,,html-button-response,28,125321,0.0-11.0-2.0-0.0,5980128635fbf100017d0861,,,passed,,2767,,,,,,,,,,,,,<p>Oops! You did not pass the quiz.</p><p>You will now repeat the instructions and practice.</p>,0,,,,,,,,,,,failed,,,
,,,,,instructions,29,136113,0.0-11.1-0.1-0.1,5980128635fbf100017d0861,,,passed,"[{""page_index"":0,""viewing_time"":1191},{""page_index"":1,""viewing_time"":704},{""page_index"":2,""viewing_time"":4152},{""page_index"":3,""viewing_time"":4744}]",10792,,,,,,,,,,,,,,,,,,,,,,,,,,,,
,,,,,html-keyboard-response,30,141401,0.0-11.1-0.1-1.1,5980128635fbf100017d0861,,,passed,,4786,,,,,,,,,,,,,"<br>Remember! After a ball falls, the screen will disappear, and you'll decide if the proposed position is where the hidden triangle was. <br>You will now practice this by watching a few videos and making decisions.<p>To respond:<br style=""margin-bottom: 5px; text-indent: -20px; padding-left: 20px;"">- Press <b style=""color: #12AD2B;"">J for Yes</b>, if you think the triangle is in the correct position.<br style=""margin-top: 0; text-indent: -20px; padding-left: 20px;"">- Press <b style=""color: orange;"">F for No</b>, if you think the triangle is not in the correct position.</p><p>In this practice round, there is no time limit. Focus on getting comfortable with the task first.<br>Press either J or F to begin your practice trials.</p><img src = ""YesOrNo_instruction.png"" style=""width: 65%;""></img>",j,,,,,,,,,,,,,,
,,,,,html-keyboard-response,31,142957,0.0-11.1-0.1-2.1-0.3,5980128635fbf100017d0861,,,passed,,,,,,,,,,,,,,,,,ballFalling_prac,416,464,296,1,fallScene,FALSE,,,,,,,
,,,,,html-keyboard-response,32,143441,0.0-11.1-0.1-2.1-1.3,5980128635fbf100017d0861,,,passed,,482,,,,,,,,,,,,,,j,yesOrNo_prac_noTimed,,,,1,,,gt,NA,,,,,
,,,,,html-keyboard-response,33,145550,0.0-11.1-0.1-2.1-0.4,5980128635fbf100017d0861,,,passed,,,,,,,,,,,,,,,,,ballFalling_prac,660,666,350,3,fallScene,FALSE,,,,,,,
,,,,,html-keyboard-response,34,145962,0.0-11.1-0.1-2.1-1.4,5980128635fbf100017d0861,,,passed,,410,,,,,,,,,,,,,,f,yesOrNo_prac_noTimed,,,,3,,,wrong direction,NA,,,,,
,,,,,html-keyboard-response,35,147537,0.0-11.1-0.1-2.1-0.5,5980128635fbf100017d0861,,,passed,,,,,,,,,,,,,,,,,ballFalling_prac,441,414,302,5,fallScene,TRUE,,,,,,,
,,,,,html-keyboard-response,36,148739,0.0-11.1-0.1-2.1-1.5,5980128635fbf100017d0861,,,passed,,1201,,,,,,,,,,,,,,j,yesOrNo_prac_noTimed,,,,5,,,close gt,NA,,,,,
,,,,,instructions,37,165826,0.0-11.1-0.1-3.1,5980128635fbf100017d0861,,,passed,"[{""page_index"":0,""viewing_time"":15831},{""page_index"":1,""viewing_time"":1256}]",17087,,,,,,,,,,,,,,,,,,,,,,,,,,,,
,,,,,html-button-response,38,167906,0.0-11.1-0.1-4.1,5980128635fbf100017d0861,,,passed,,1578,,,,,,,,,,,,,"<p>To make sure you understood the task, we just have a <b>brief quiz</b> here.</p><p>If you need to review the instructions, click 'Previous'.</p><p>It's important to understand the task to do the study, so you have to pass the quiz to move to the study.</p>",1,,,,,,,,,,,,,,
,,,,,survey-multi-choice,39,170282,0.0-11.1-1.1-0.1,5980128635fbf100017d0861,,,passed,,2375,,,,,,,,,,,,,,"{""generalProcedure"":""Watch a video of a ball falling, some of it behind a gray screen. After each video, decide if the triangle is at the spot where the ball hit the triangle behind the screen. There is time limit for the response.""}",,,,,,,,,,[0],,,,
,,,,,survey-multi-choice,40,172251,0.0-11.1-1.1-1.1,5980128635fbf100017d0861,,,passed,,1968,,,,,,,,,,,,,,"{""checkBallHitObstacle"":""Yes.""}",,,,,,,,,,[0],,,,
,,,,,survey-multi-choice,41,174675,0.0-11.1-1.1-2.1,5980128635fbf100017d0861,,,passed,,2423,,,,,,,,,,,,,,"{""checkTriangleVisibility"":""No, the triangle is hidden behind the gray screen.""}",,,,,,,,,,[0],,,,
,,,,,survey-multi-choice,42,178627,0.0-11.1-1.1-3.1,5980128635fbf100017d0861,,,passed,,3952,,,,,,,,,,,,,,"{""checkTimedResponse"":""Your response will not be recorded, and the trial will move to the next one.""}",,,,,,,,,,[0],,,,
,,,,,survey-multi-choice,43,186811,0.0-11.1-1.1-4.1,5980128635fbf100017d0861,,,passed,,8184,,,,,,,,,,,,,,"{""checkTimeBlockNotice"":""At the beginning of each block.""}",,,,,,,,,,[0],,,,
,,,,,survey-multi-choice,44,199771,0.0-11.1-1.1-5.1,5980128635fbf100017d0861,,,passed,,12960,,,,,,,,,,,,,,"{""checkTimeBlockSameness"":""Yes, the time limit is the same for all trials within a block.""}",,,,,,,,,,[0],,,,
,,,,,survey-multi-choice,45,207683,0.0-11.1-1.1-6.1,5980128635fbf100017d0861,,,passed,,7911,,,,,,,,,,,,,,"{""checkTrianglePrecision"":""No. The proposed purple triangle is not in the correct position because it doesn't match the location of the white triangle exactly.""}",,,,,,,,,,[0],,,,
,,,,,instructions,46,229396,0.0-12.0,5980128635fbf100017d0861,,,passed,"[{""page_index"":0,""viewing_time"":2295},{""page_index"":1,""viewing_time"":9145},{""page_index"":2,""viewing_time"":5792},{""page_index"":3,""viewing_time"":4480}]",21712,,,,,,,,,,,,,,,,,,,,,,,,,,,,
,,,,,instructions,47,232763,0.0-13.0-0.0,5980128635fbf100017d0861,,,passed,"[{""page_index"":0,""viewing_time"":3367}]",3368,,,,,,,,,,,,,,,,,,,,,,,,,,,,
,,,,,html-keyboard-response,48,235891,0.0-13.0-1.0,5980128635fbf100017d0861,,,passed,,3127,,,,,,,,,,,,,"<p><span style=""font-size:40px;"">Practice BLOCK 1</span></p><p><span style=""font-size:25px;"">You have <b style=""color: #FF644F;""><strong>3 second(s)</strong></b> to respond to the following trials.</span><br></p><p id=""blinking-text"" style=""font-weight; animation: blink 2s infinite;"">Press Space to continue</p><style>
                    @keyframes blink {
                        50% {
                            opacity: 0;
                        }
                    }
                </style>", ,,,,,,,,,,,,,,
,,,,,html-keyboard-response,49,237465,0.0-13.0-2.0-0.0,5980128635fbf100017d0861,,,passed,,,,,,,,,,,,,,,,,ballFalling_prac,660,610,263,4,fallScene,FALSE,,,,,,,
,,,,,html-keyboard-response,50,240469,0.0-13.0-2.0-1.0,5980128635fbf100017d0861,,,passed,,117,,,,,,,,,,,,,,j,yesOrNo_prac,,,,4,,,gt,3000,,,,,
,,,,,html-keyboard-response,51,242028,0.0-13.0-2.0-0.1,5980128635fbf100017d0861,,,passed,,,,,,,,,,,,,,,,,ballFalling_prac,416,464,296,1,fallScene,FALSE,,,,,,,
,,,,,html-keyboard-response,52,245030,0.0-13.0-2.0-1.1,5980128635fbf100017d0861,,,passed,,547,,,,,,,,,,,,,,j,yesOrNo_prac,,,,1,,,far gt,3000,,,,,
,,,,,html-keyboard-response,53,246587,0.0-13.0-2.0-0.2,5980128635fbf100017d0861,,,passed,,,,,,,,,,,,,,,,,ballFalling_prac,584,536,296,1,fallScene,TRUE,,,,,,,
,,,,,html-keyboard-response,54,249588,0.0-13.0-2.0-1.2,5980128635fbf100017d0861,,,passed,,463,,,,,,,,,,,,,,j,yesOrNo_prac,,,,1,,,close gt,3000,,,,,
,,,,,html-keyboard-response,55,251584,0.0-13.0-3.0,5980128635fbf100017d0861,,,passed,,1996,,,,,,,,,,,,,"<p><span style=""font-size:40px;"">Practice BLOCK 2</span></p><p><span style=""font-size:25px;"">You have <b style=""color: #FF644F;""><strong>1 second(s)</strong></b> to respond to the following trials.</span><br></p><p id=""blinking-text"" style=""font-weight; animation: blink 2s infinite;"">Press Space to continue</p><style>
                    @keyframes blink {
                        50% {
                            opacity: 0;
                        }
                    }
                </style>", ,,,,,,,,,,,,,,
,,,,,html-keyboard-response,56,253696,0.0-13.0-4.0-0.0,5980128635fbf100017d0861,,,passed,,,,,,,,,,,,,,,,,ballFalling_prac,340,334,350,3,fallScene,TRUE,,,,,,,
,,,,,html-keyboard-response,57,254698,0.0-13.0-4.0-1.0,5980128635fbf100017d0861,,,passed,,519,,,,,,,,,,,,,,f,yesOrNo_prac,,,,3,,,close gt,1000,,,,,
,,,,,html-keyboard-response,58,256272,0.0-13.0-4.0-0.1,5980128635fbf100017d0861,,,passed,,,,,,,,,,,,,,,,,ballFalling_prac,660,610,263,4,fallScene,FALSE,,,,,,,
,,,,,html-keyboard-response,59,257273,0.0-13.0-4.0-1.1,5980128635fbf100017d0861,,,passed,,392,,,,,,,,,,,,,,j,yesOrNo_prac,,,,4,,,far gt,1000,,,,,
,,,,,html-keyboard-response,60,258830,0.0-13.0-4.0-0.2,5980128635fbf100017d0861,,,passed,,,,,,,,,,,,,,,,,ballFalling_prac,441,500,317,6,fallScene,TRUE,,,,,,,
,,,,,html-keyboard-response,61,259833,0.0-13.0-4.0-1.2,5980128635fbf100017d0861,,,passed,,897,,,,,,,,,,,,,,f,yesOrNo_prac,,,,6,,,gt,1000,,,,,
,,,,,instructions,62,263596,0.0-13.0-5.0,5980128635fbf100017d0861,,,passed,"[{""page_index"":0,""viewing_time"":3763}]",3763,,,,,,,,,,,,,,,,,,,,,,,,,,,,
,,,,,html-keyboard-response,63,265885,0.0-13.0-6.0,5980128635fbf100017d0861,,,passed,,2289,,,,,,,,,,,,,"<p><span style=""font-size:40px;"">Practice Test BLOCK 1</span></p><p><span style=""font-size:25px;"">You have <b style=""color: #FF644F;""><strong>1 second(s)</strong></b> to respond to the following trials.</span><br></p><p id=""blinking-text"" style=""font-weight; animation: blink 2s infinite;"">Press Space to continue</p><style>
                    @keyframes blink {
                        50% {
                            opacity: 0;
                        }
                    }
                </style>", ,,,,,,,,,,,,,,
,,,,,html-keyboard-response,64,267443,0.0-13.0-7.0-0.0,5980128635fbf100017d0861,,,passed,,,,,,,,,,,,,,,,,ballFalling_prac,441,500,317,6,fallScene,TRUE,,,,,,,
,,,,,html-keyboard-response,65,268445,0.0-13.0-7.0-1.0,5980128635fbf100017d0861,,,passed,,139,,,,,,,,,,,,,,j,yesOrNo_prac,,,,6,,,close gt,1000,,,,,
,,,,,html-keyboard-response,66,270018,0.0-13.0-7.0-0.1,5980128635fbf100017d0861,,,passed,,,,,,,,,,,,,,,,,ballFalling_prac,340,390,263,4,fallScene,TRUE,,,,,,,
,,,,,html-keyboard-response,67,271020,0.0-13.0-7.0-1.1,5980128635fbf100017d0861,,,passed,,338,,,,,,,,,,,,,,j,yesOrNo_prac,,,,4,,,far gt,1000,,,,,
,,,,,html-keyboard-response,68,272594,0.0-13.0-7.0-0.2,5980128635fbf100017d0861,,,passed,,,,,,,,,,,,,,,,,ballFalling_prac,559,586,302,5,fallScene,FALSE,,,,,,,
,,,,,html-keyboard-response,69,273596,0.0-13.0-7.0-1.2,5980128635fbf100017d0861,,,passed,,540,,,,,,,,,,,,,,j,yesOrNo_prac,,,,5,,,gt,1000,,,,,
,,,,,html-keyboard-response,70,275017,0.0-13.0-8.0,5980128635fbf100017d0861,,,passed,,1420,,,,,,,,,,,,,"<p><span style=""font-size:40px;"">Practice Test BLOCK 2</span></p><p><span style=""font-size:25px;"">You have <b style=""color: #FF644F;""><strong>3 second(s)</strong></b> to respond to the following trials.</span><br></p><p id=""blinking-text"" style=""font-weight; animation: blink 2s infinite;"">Press Space to continue</p><style>
                    @keyframes blink {
                        50% {
                            opacity: 0;
                        }
                    }
                </style>", ,,,,,,,,,,,,,,
,,,,,html-keyboard-response,71,276597,0.0-13.0-9.0-0.0,5980128635fbf100017d0861,,,passed,,,,,,,,,,,,,,,,,ballFalling_prac,416,365,249,2,fallScene,FALSE,,,,,,,
,,,,,html-keyboard-response,72,279599,0.0-13.0-9.0-1.0,5980128635fbf100017d0861,,,passed,,326,,,,,,,,,,,,,,j,yesOrNo_prac,,,,2,,,gt,3000,,,,,
,,,,,html-keyboard-response,73,281173,0.0-13.0-9.0-0.1,5980128635fbf100017d0861,,,passed,,,,,,,,,,,,,,,,,ballFalling_prac,559,586,302,5,fallScene,FALSE,,,,,,,
,,,,,html-keyboard-response,74,284174,0.0-13.0-9.0-1.1,5980128635fbf100017d0861,,,passed,,1030,,,,,,,,,,,,,,f,yesOrNo_prac,,,,5,,,far gt,3000,,,,,
,,,,,html-keyboard-response,75,285748,0.0-13.0-9.0-0.2,5980128635fbf100017d0861,,,passed,,,,,,,,,,,,,,,,,ballFalling_prac,340,390,263,4,fallScene,TRUE,,,,,,,
,,,,,html-keyboard-response,76,288750,0.0-13.0-9.0-1.2,5980128635fbf100017d0861,,,passed,,475,,,,,,,,,,,,,,j,yesOrNo_prac,,,,4,,,close gt,3000,,,,,
,,,,,instructions,77,293189,0.0-14.0,5980128635fbf100017d0861,,,passed,"[{""page_index"":0,""viewing_time"":4438}]",4439,,,,,,,,,,,,,,,,,,,,,,,,,,,,
,,,,,html-keyboard-response,78,294999,0.0-15.0,5980128635fbf100017d0861,,,passed,,1810,,,,,,,,,,,,,"<p><span style=""font-size:40px;"">BLOCK 1</span></p><p><span style=""font-size:25px;"">You have <b style=""color: #FF644F;""><strong>1 second(s)</strong></b> to respond to the following trials.</span><br></p><p></p> <!-- Blank line -->
                <p id=""blinking-text"" style=""font-weight; animation: blink 2s infinite;"">Press Space to continue</p>
                <style>
                    @keyframes blink {
                        50% {
                            opacity: 0;
                        }
                    }
                </style></p>", ,,,,,,,,,,,,,,
,,,,,html-keyboard-response,79,296560,0.0-16.0-0.0,5980128635fbf100017d0861,,,passed,,,,,,,,,,,,,,,,,ballFalling,604.4,575.4211432,266.76,12,fallScene,FALSE,,,,,1,,
,,,,,html-keyboard-response,80,297562,0.0-16.0-1.0,5980128635fbf100017d0861,,,passed,,273,,,,,,,,,,,,,,j,yesOrNo,,,,12,,,lp,1000,,,1,603.4,151
,,,,,html-keyboard-response,81,299119,0.0-16.0-0.1,5980128635fbf100017d0861,,,passed,,,,,,,,,,,,,,,,,ballFalling,604.4,650.0211432,404.58,11,fallScene,TRUE,,,,,2,,
,,,,,html-keyboard-response,82,300121,0.0-16.0-1.1,5980128635fbf100017d0861,,,passed,,682,,,,,,,,,,,,,,f,yesOrNo,,,,11,,,lp,1000,,,2,605.4,372.6340973
,,,,,html-keyboard-response,83,301678,0.0-16.0-0.2,5980128635fbf100017d0861,,,passed,,,,,,,,,,,,,,,,,ballFalling,322.3,379.3711432,245.25,1,fallScene,TRUE,,,,,3,,
,,,,,html-keyboard-response,84,302680,0.0-16.0-1.2,5980128635fbf100017d0861,,,passed,,238,,,,,,,,,,,,,,j,yesOrNo,,,,1,,,mid,1000,,,3,390.2711432,300
,,,,,html-keyboard-response,85,304237,0.0-16.0-0.3,5980128635fbf100017d0861,,,passed,,,,,,,,,,,,,,,,,ballFalling,604.4,650.0211432,404.58,11,fallScene,FALSE,,,,,4,,
,,,,,html-keyboard-response,86,305239,0.0-16.0-1.3,5980128635fbf100017d0861,,,passed,,846,,,,,,,,,,,,,,j,yesOrNo,,,,11,,,mid,1000,,,4,605.4,300
,,,,,html-keyboard-response,87,307247,0.0-16.0-0.4,5980128635fbf100017d0861,,,passed,,,,,,,,,,,,,,,,,ballFalling,604.4,596.8711432,394.5,10,fallScene,FALSE,,,,,5,,
,,,,,html-keyboard-response,88,308249,0.0-16.0-1.4,5980128635fbf100017d0861,,,passed,,745,,,,,,,,,,,,,,j,yesOrNo,,,,10,,,gt,1000,,,5,596.8711432,394.5
,,,,,html-keyboard-response,89,309806,0.0-16.0-0.5,5980128635fbf100017d0861,,,passed,,,,,,,,,,,,,,,,,ballFalling,500,453.6711432,210.33,5,fallScene,TRUE,,,,,6,,
,,,,,html-keyboard-response,90,310808,0.0-16.0-1.5,5980128635fbf100017d0861,,,passed,,875,,,,,,,,,,,,,,f,yesOrNo,,,,5,,,lp,1000,,,6,499,151
,,,,,html-keyboard-response,91,312365,0.0-16.0-0.6,5980128635fbf100017d0861,,,passed,,,,,,,,,,,,,,,,,ballFalling,500,453.6711432,210.33,5,fallScene,TRUE,,,,,7,,
,,,,,html-keyboard-response,92,313366,0.0-16.0-1.6,5980128635fbf100017d0861,,,passed,,766,,,,,,,,,,,,,,j,yesOrNo,,,,5,,,gt,1000,,,7,453.6711432,210.33
,,,,,html-keyboard-response,93,315375,0.0-16.0-0.7,5980128635fbf100017d0861,,,passed,,,,,,,,,,,,,,,,,ballFalling,604.4,596.8711432,394.5,10,fallScene,FALSE,,,,,8,,
,,,,,html-keyboard-response,94,316377,0.0-16.0-1.7,5980128635fbf100017d0861,,,passed,,827,,,,,,,,,,,,,,j,yesOrNo,,,,10,,,mid,1000,,,8,536.4288568,300
,,,,,html-keyboard-response,95,317867,0.0-16.0-0.8,5980128635fbf100017d0861,,,passed,,,,,,,,,,,,,,,,,ballFalling,604.4,667.6211432,201.78,9,fallScene,FALSE,,,,,9,,
,,,,,html-keyboard-response,96,318869,0.0-16.0-1.8,5980128635fbf100017d0861,,,passed,,752,,,,,,,,,,,,,,f,yesOrNo,,,,9,,,mid,1000,,,9,605.4,300
,,,,,html-keyboard-response,97,320881,0.0-16.0-0.9,5980128635fbf100017d0861,,,passed,,,,,,,,,,,,,,,,,ballFalling,604.4,596.8711432,394.5,10,fallScene,TRUE,,,,,10,,
,,,,,html-keyboard-response,98,321883,0.0-16.0-1.9,5980128635fbf100017d0861,,,passed,,790,,,,,,,,,,,,,,j,yesOrNo,,,,10,,,mid,1000,,,10,536.4288568,300
,,,,,html-keyboard-response,99,323675,0.0-16.0-0.10,5980128635fbf100017d0861,,,passed,,,,,,,,,,,,,,,,,ballFalling,322.3,308.0711432,253.89,2,fallScene,TRUE,,,,,11,,
,,,,,html-keyboard-response,100,324677,0.0-16.0-1.10,5980128635fbf100017d0861,,,passed,,269,,,,,,,,,,,,,,j,yesOrNo,,,,2,,,mid,1000,,,11,321.3,300
,,,,,html-keyboard-response,101,326237,0.0-16.0-0.11,5980128635fbf100017d0861,,,passed,,,,,,,,,,,,,,,,,ballFalling,322.3,356.4211432,357.87,4,fallScene,FALSE,,,,,12,,
,,,,,html-keyboard-response,102,327239,0.0-16.0-1.11,5980128635fbf100017d0861,,,passed,,null,,,,,,,,,,,,,,null,yesOrNo,,,,4,,,gt,1000,,,12,356.4211432,357.87
,,,,,html-keyboard-response,103,328729,0.0-16.0-0.12,5980128635fbf100017d0861,,,passed,,,,,,,,,,,,,,,,,ballFalling,604.4,667.6211432,201.78,9,fallScene,TRUE,,,,,13,,
,,,,,html-keyboard-response,104,329731,0.0-16.0-1.12,5980128635fbf100017d0861,,,passed,,680,,,,,,,,,,,,,,j,yesOrNo,,,,9,,,mid,1000,,,13,605.4,300
,,,,,html-keyboard-response,105,331288,0.0-16.0-0.13,5980128635fbf100017d0861,,,passed,,,,,,,,,,,,,,,,,ballFalling,500,453.6711432,210.33,5,fallScene,FALSE,,,,,14,,
,,,,,html-keyboard-response,106,332290,0.0-16.0-1.13,5980128635fbf100017d0861,,,passed,,815,,,,,,,,,,,,,,j,yesOrNo,,,,5,,,lp,1000,,,14,499,151
,,,,,html-keyboard-response,107,334081,0.0-16.0-0.14,5980128635fbf100017d0861,,,passed,,,,,,,,,,,,,,,,,ballFalling,322.3,308.0711432,253.89,2,fallScene,FALSE,,,,,15,,
,,,,,html-keyboard-response,108,335083,0.0-16.0-1.14,5980128635fbf100017d0861,,,passed,,641,,,,,,,,,,,,,,j,yesOrNo,,,,2,,,gt,1000,,,15,308.0711432,253.89
,,,,,html-keyboard-response,109,336641,0.0-16.0-0.15,5980128635fbf100017d0861,,,passed,,,,,,,,,,,,,,,,,ballFalling,322.3,379.3711432,245.25,1,fallScene,FALSE,,,,,16,,
,,,,,html-keyboard-response,110,337643,0.0-16.0-1.15,5980128635fbf100017d0861,,,passed,,689,,,,,,,,,,,,,,j,yesOrNo,,,,1,,,gt,1000,,,16,379.3711432,245.25
,,,,,html-keyboard-response,111,339204,0.0-16.0-0.16,5980128635fbf100017d0861,,,passed,,,,,,,,,,,,,,,,,ballFalling,322.3,356.4211432,357.87,4,fallScene,TRUE,,,,,17,,
,,,,,html-keyboard-response,112,340206,0.0-16.0-1.16,5980128635fbf100017d0861,,,passed,,496,,,,,,,,,,,,,,j,yesOrNo,,,,4,,,lp,1000,,,17,323.3,297.4070552
,,,,,html-keyboard-response,113,341775,0.0-16.0-0.17,5980128635fbf100017d0861,,,passed,,,,,,,,,,,,,,,,,ballFalling,322.3,356.4211432,357.87,4,fallScene,TRUE,,,,,18,,
,,,,,html-keyboard-response,114,342778,0.0-16.0-1.17,5980128635fbf100017d0861,,,passed,,786,,,,,,,,,,,,,,j,yesOrNo,,,,4,,,gt,1000,,,18,356.4211432,357.87
,,,,,html-keyboard-response,115,344789,0.0-16.0-0.18,5980128635fbf100017d0861,,,passed,,,,,,,,,,,,,,,,,ballFalling,500,510.8711432,369.03,8,fallScene,TRUE,,,,,19,,
,,,,,html-keyboard-response,116,345791,0.0-16.0-1.18,5980128635fbf100017d0861,,,passed,,763,,,,,,,,,,,,,,j,yesOrNo,,,,8,,,lp,1000,,,19,501,151
,,,,,html-keyboard-response,117,347582,0.0-16.0-0.19,5980128635fbf100017d0861,,,passed,,,,,,,,,,,,,,,,,ballFalling,322.3,308.0711432,253.89,2,fallScene,FALSE,,,,,20,,
,,,,,html-keyboard-response,118,348584,0.0-16.0-1.19,5980128635fbf100017d0861,,,passed,,843,,,,,,,,,,,,,,j,yesOrNo,,,,2,,,gt,1000,,,20,308.0711432,253.89
,,,,,html-keyboard-response,119,350074,0.0-16.0-0.20,5980128635fbf100017d0861,,,passed,,,,,,,,,,,,,,,,,ballFalling,604.4,667.6211432,201.78,9,fallScene,TRUE,,,,,21,,
,,,,,html-keyboard-response,120,351076,0.0-16.0-1.20,5980128635fbf100017d0861,,,passed,,null,,,,,,,,,,,,,,null,yesOrNo,,,,9,,,lp,1000,,,21,605.4,151
,,,,,html-keyboard-response,121,352733,0.0-16.0-0.21,5980128635fbf100017d0861,,,passed,,,,,,,,,,,,,,,,,ballFalling,500,479.9211432,330.87,6,fallScene,TRUE,,,,,22,,
,,,,,html-keyboard-response,122,353735,0.0-16.0-1.21,5980128635fbf100017d0861,,,passed,,799,,,,,,,,,,,,,,f,yesOrNo,,,,6,,,lp,1000,,,22,499,189.9290983
,,,,,html-keyboard-response,123,355293,0.0-16.0-0.22,5980128635fbf100017d0861,,,passed,,,,,,,,,,,,,,,,,ballFalling,322.3,379.3711432,245.25,1,fallScene,FALSE,,,,,23,,
,,,,,html-keyboard-response,124,356295,0.0-16.0-1.22,5980128635fbf100017d0861,,,passed,,467,,,,,,,,,,,,,,j,yesOrNo,,,,1,,,gt,1000,,,23,379.3711432,245.25
,,,,,html-keyboard-response,125,357872,0.0-16.0-0.23,5980128635fbf100017d0861,,,passed,,,,,,,,,,,,,,,,,ballFalling,500,553.4711432,282.51,7,fallScene,FALSE,,,,,24,,
,,,,,html-keyboard-response,126,358874,0.0-16.0-1.23,5980128635fbf100017d0861,,,passed,,791,,,,,,,,,,,,,,j,yesOrNo,,,,7,,,mid,1000,,,24,501,300
,,,,,html-keyboard-response,127,360749,0.0-17.0,5980128635fbf100017d0861,,,passed,,1875,,,,,,,,,,,,,"<p><span style=""font-size:40px;"">BLOCK 2</span></p><p><span style=""font-size:25px;"">You have <b style=""color: #FF644F;""><strong>3 second(s)</strong></b> to respond to the following trials.</span><br></p><p></p> <!-- Blank line -->
                <p id=""blinking-text"" style=""font-weight; animation: blink 2s infinite;"">Press Space to continue</p>
                <style>
                    @keyframes blink {
                        50% {
                            opacity: 0;
                        }
                    }
                </style></p>", ,,,,,,,,,,,,,,
,,,,,html-keyboard-response,128,362309,0.0-18.0-0.0,5980128635fbf100017d0861,,,passed,,,,,,,,,,,,,,,,,ballFalling,604.4,575.4211432,266.76,12,fallScene,TRUE,,,,,25,,
,,,,,html-keyboard-response,129,365311,0.0-18.0-1.0,5980128635fbf100017d0861,,,passed,,417,,,,,,,,,,,,,,j,yesOrNo,,,,12,,,gt,3000,,,25,575.4211432,266.76
,,,,,html-keyboard-response,130,367323,0.0-18.0-0.1,5980128635fbf100017d0861,,,passed,,,,,,,,,,,,,,,,,ballFalling,604.4,596.8711432,394.5,10,fallScene,FALSE,,,,,26,,
,,,,,html-keyboard-response,131,370325,0.0-18.0-1.1,5980128635fbf100017d0861,,,passed,,1784,,,,,,,,,,,,,,f,yesOrNo,,,,10,,,gt,3000,,,26,596.8711432,394.5
,,,,,html-keyboard-response,132,371886,0.0-18.0-0.2,5980128635fbf100017d0861,,,passed,,,,,,,,,,,,,,,,,ballFalling,604.4,650.0211432,404.58,11,fallScene,TRUE,,,,,27,,
,,,,,html-keyboard-response,133,374887,0.0-18.0-1.2,5980128635fbf100017d0861,,,passed,,1006,,,,,,,,,,,,,,j,yesOrNo,,,,11,,,lp,3000,,,27,605.4,372.6340973
,,,,,html-keyboard-response,134,376678,0.0-18.0-0.3,5980128635fbf100017d0861,,,passed,,,,,,,,,,,,,,,,,ballFalling,322.3,308.0711432,253.89,2,fallScene,FALSE,,,,,28,,
,,,,,html-keyboard-response,135,379681,0.0-18.0-1.3,5980128635fbf100017d0861,,,passed,,782,,,,,,,,,,,,,,j,yesOrNo,,,,2,,,gt,3000,,,28,308.0711432,253.89
,,,,,html-keyboard-response,136,381475,0.0-18.0-0.4,5980128635fbf100017d0861,,,passed,,,,,,,,,,,,,,,,,ballFalling,322.3,308.0711432,253.89,2,fallScene,FALSE,,,,,29,,
,,,,,html-keyboard-response,137,384477,0.0-18.0-1.4,5980128635fbf100017d0861,,,passed,,847,,,,,,,,,,,,,,j,yesOrNo,,,,2,,,gt,3000,,,29,308.0711432,253.89
,,,,,html-keyboard-response,138,386271,0.0-18.0-0.5,5980128635fbf100017d0861,,,passed,,,,,,,,,,,,,,,,,ballFalling,322.3,308.0711432,253.89,2,fallScene,TRUE,,,,,30,,
,,,,,html-keyboard-response,139,389272,0.0-18.0-1.5,5980128635fbf100017d0861,,,passed,,1149,,,,,,,,,,,,,,j,yesOrNo,,,,2,,,mid,3000,,,30,321.3,300
,,,,,html-keyboard-response,140,390830,0.0-18.0-0.6,5980128635fbf100017d0861,,,passed,,,,,,,,,,,,,,,,,ballFalling,604.4,575.4211432,266.76,12,fallScene,TRUE,,,,,31,,
,,,,,html-keyboard-response,141,393831,0.0-18.0-1.6,5980128635fbf100017d0861,,,passed,,1092,,,,,,,,,,,,,,j,yesOrNo,,,,12,,,lp,3000,,,31,603.4,151
,,,,,html-keyboard-response,142,395489,0.0-18.0-0.7,5980128635fbf100017d0861,,,passed,,,,,,,,,,,,,,,,,ballFalling,500,479.9211432,330.87,6,fallScene,TRUE,,,,,32,,
,,,,,html-keyboard-response,143,398491,0.0-18.0-1.7,5980128635fbf100017d0861,,,passed,,812,,,,,,,,,,,,,,j,yesOrNo,,,,6,,,lp,3000,,,32,499,189.9290983
,,,,,html-keyboard-response,144,400047,0.0-18.0-0.8,5980128635fbf100017d0861,,,passed,,,,,,,,,,,,,,,,,ballFalling,322.3,379.3711432,245.25,1,fallScene,FALSE,,,,,33,,
,,,,,html-keyboard-response,145,403049,0.0-18.0-1.8,5980128635fbf100017d0861,,,passed,,590,,,,,,,,,,,,,,j,yesOrNo,,,,1,,,gt,3000,,,33,379.3711432,245.25
,,,,,html-keyboard-response,146,405062,0.0-18.0-0.9,5980128635fbf100017d0861,,,passed,,,,,,,,,,,,,,,,,ballFalling,500,510.8711432,369.03,8,fallScene,TRUE,,,,,34,,
,,,,,html-keyboard-response,147,408063,0.0-18.0-1.9,5980128635fbf100017d0861,,,passed,,1484,,,,,,,,,,,,,,f,yesOrNo,,,,8,,,gt,3000,,,34,510.8711432,369.03
,,,,,html-keyboard-response,148,409624,0.0-18.0-0.10,5980128635fbf100017d0861,,,passed,,,,,,,,,,,,,,,,,ballFalling,604.4,650.0211432,404.58,11,fallScene,TRUE,,,,,35,,
,,,,,html-keyboard-response,149,412625,0.0-18.0-1.10,5980128635fbf100017d0861,,,passed,,1076,,,,,,,,,,,,,,j,yesOrNo,,,,11,,,gt,3000,,,35,650.0211432,404.58
,,,,,html-keyboard-response,150,414199,0.0-18.0-0.11,5980128635fbf100017d0861,,,passed,,,,,,,,,,,,,,,,,ballFalling,500,553.4711432,282.51,7,fallScene,FALSE,,,,,36,,
,,,,,html-keyboard-response,151,417201,0.0-18.0-1.11,5980128635fbf100017d0861,,,passed,,1064,,,,,,,,,,,,,,j,yesOrNo,,,,7,,,gt,3000,,,36,553.4711432,282.51
,,,,,html-keyboard-response,152,418758,0.0-18.0-0.12,5980128635fbf100017d0861,,,passed,,,,,,,,,,,,,,,,,ballFalling,322.3,379.3711432,245.25,1,fallScene,TRUE,,,,,37,,
,,,,,html-keyboard-response,153,421760,0.0-18.0-1.12,5980128635fbf100017d0861,,,passed,,619,,,,,,,,,,,,,,j,yesOrNo,,,,1,,,gt,3000,,,37,379.3711432,245.25
,,,,,html-keyboard-response,154,423321,0.0-18.0-0.13,5980128635fbf100017d0861,,,passed,,,,,,,,,,,,,,,,,ballFalling,322.3,296.0711432,371.46,3,fallScene,TRUE,,,,,38,,
,,,,,html-keyboard-response,155,426323,0.0-18.0-1.13,5980128635fbf100017d0861,,,passed,,1633,,,,,,,,,,,,,,j,yesOrNo,,,,3,,,mid,3000,,,38,321.3,300
,,,,,html-keyboard-response,156,428125,0.0-18.0-0.14,5980128635fbf100017d0861,,,passed,,,,,,,,,,,,,,,,,ballFalling,322.3,308.0711432,253.89,2,fallScene,TRUE,,,,,39,,
,,,,,html-keyboard-response,157,431128,0.0-18.0-1.14,5980128635fbf100017d0861,,,passed,,728,,,,,,,,,,,,,,j,yesOrNo,,,,2,,,mid,3000,,,39,321.3,300
,,,,,html-keyboard-response,158,432689,0.0-18.0-0.15,5980128635fbf100017d0861,,,passed,,,,,,,,,,,,,,,,,ballFalling,322.3,356.4211432,357.87,4,fallScene,FALSE,,,,,40,,
,,,,,html-keyboard-response,159,435691,0.0-18.0-1.15,5980128635fbf100017d0861,,,passed,,597,,,,,,,,,,,,,,j,yesOrNo,,,,4,,,mid,3000,,,40,390.2711432,300
,,,,,html-keyboard-response,160,437251,0.0-18.0-0.16,5980128635fbf100017d0861,,,passed,,,,,,,,,,,,,,,,,ballFalling,500,453.6711432,210.33,5,fallScene,FALSE,,,,,41,,
,,,,,html-keyboard-response,161,440253,0.0-18.0-1.16,5980128635fbf100017d0861,,,passed,,924,,,,,,,,,,,,,,f,yesOrNo,,,,5,,,lp,3000,,,41,499,151
,,,,,html-keyboard-response,162,442265,0.0-18.0-0.17,5980128635fbf100017d0861,,,passed,,,,,,,,,,,,,,,,,ballFalling,500,510.8711432,369.03,8,fallScene,TRUE,,,,,42,,
,,,,,html-keyboard-response,163,445267,0.0-18.0-1.17,5980128635fbf100017d0861,,,passed,,591,,,,,,,,,,,,,,j,yesOrNo,,,,8,,,mid,3000,,,42,501,300
,,,,,html-keyboard-response,164,447279,0.0-18.0-0.18,5980128635fbf100017d0861,,,passed,,,,,,,,,,,,,,,,,ballFalling,500,510.8711432,369.03,8,fallScene,TRUE,,,,,43,,
,,,,,html-keyboard-response,165,450280,0.0-18.0-1.18,5980128635fbf100017d0861,,,passed,,672,,,,,,,,,,,,,,j,yesOrNo,,,,8,,,gt,3000,,,43,510.8711432,369.03
,,,,,html-keyboard-response,166,451837,0.0-18.0-0.19,5980128635fbf100017d0861,,,passed,,,,,,,,,,,,,,,,,ballFalling,322.3,296.0711432,371.46,3,fallScene,FALSE,,,,,44,,
,,,,,html-keyboard-response,167,454838,0.0-18.0-1.19,5980128635fbf100017d0861,,,passed,,1215,,,,,,,,,,,,,,j,yesOrNo,,,,3,,,lp,3000,,,44,321.3,287.3327097
,,,,,html-keyboard-response,168,456847,0.0-18.0-0.20,5980128635fbf100017d0861,,,passed,,,,,,,,,,,,,,,,,ballFalling,604.4,596.8711432,394.5,10,fallScene,FALSE,,,,,45,,
,,,,,html-keyboard-response,169,459851,0.0-18.0-1.20,5980128635fbf100017d0861,,,passed,,617,,,,,,,,,,,,,,j,yesOrNo,,,,10,,,lp,3000,,,45,603.4,215.5021436
,,,,,html-keyboard-response,170,461409,0.0-18.0-0.21,5980128635fbf100017d0861,,,passed,,,,,,,,,,,,,,,,,ballFalling,322.3,296.0711432,371.46,3,fallScene,FALSE,,,,,46,,
,,,,,html-keyboard-response,171,464411,0.0-18.0-1.21,5980128635fbf100017d0861,,,passed,,871,,,,,,,,,,,,,,j,yesOrNo,,,,3,,,gt,3000,,,46,296.0711432,371.46
,,,,,html-keyboard-response,172,465968,0.0-18.0-0.22,5980128635fbf100017d0861,,,passed,,,,,,,,,,,,,,,,,ballFalling,322.3,296.0711432,371.46,3,fallScene,TRUE,,,,,47,,
,,,,,html-keyboard-response,173,468970,0.0-18.0-1.22,5980128635fbf100017d0861,,,passed,,1452,,,,,,,,,,,,,,j,yesOrNo,,,,3,,,mid,3000,,,47,321.3,300
,,,,,html-keyboard-response,174,470531,0.0-18.0-0.23,5980128635fbf100017d0861,,,passed,,,,,,,,,,,,,,,,,ballFalling,604.4,650.0211432,404.58,11,fallScene,FALSE,,,,,48,,
,,,,,html-keyboard-response,175,473533,0.0-18.0-1.23,5980128635fbf100017d0861,,,passed,,566,,,,,,,,,,,,,,j,yesOrNo,,,,11,,,gt,3000,,,48,650.0211432,404.58
,,,,,html-keyboard-response,176,483585,0.0-19.0,5980128635fbf100017d0861,,,passed,,10052,,,,,,,,,,,,,"<p><span style=""font-size:40px;"">BLOCK 3</span></p><p><span style=""font-size:25px;"">You have <b style=""color: #FF644F;""><strong>3 second(s)</strong></b> to respond to the following trials.</span><br></p><p></p> <!-- Blank line -->
                <p id=""blinking-text"" style=""font-weight; animation: blink 2s infinite;"">Press Space to continue</p>
                <style>
                    @keyframes blink {
                        50% {
                            opacity: 0;
                        }
                    }
                </style></p>", ,,,,,,,,,,,,,,
,,,,,html-keyboard-response,177,485162,0.0-20.0-0.0,5980128635fbf100017d0861,,,passed,,,,,,,,,,,,,,,,,ballFalling,500,553.4711432,282.51,7,fallScene,FALSE,,,,,49,,
,,,,,html-keyboard-response,178,488164,0.0-20.0-1.0,5980128635fbf100017d0861,,,passed,,516,,,,,,,,,,,,,,j,yesOrNo,,,,7,,,gt,3000,,,49,553.4711432,282.51
,,,,,html-keyboard-response,179,489658,0.0-20.0-0.1,5980128635fbf100017d0861,,,passed,,,,,,,,,,,,,,,,,ballFalling,604.4,667.6211432,201.78,9,fallScene,FALSE,,,,,50,,
,,,,,html-keyboard-response,180,492661,0.0-20.0-1.1,5980128635fbf100017d0861,,,passed,,712,,,,,,,,,,,,,,f,yesOrNo,,,,9,,,lp,3000,,,50,605.4,151
,,,,,html-keyboard-response,181,494221,0.0-20.0-0.2,5980128635fbf100017d0861,,,passed,,,,,,,,,,,,,,,,,ballFalling,604.4,650.0211432,404.58,11,fallScene,TRUE,,,,,51,,
,,,,,html-keyboard-response,182,497224,0.0-20.0-1.2,5980128635fbf100017d0861,,,passed,,696,,,,,,,,,,,,,,j,yesOrNo,,,,11,,,lp,3000,,,51,605.4,372.6340973
,,,,,html-keyboard-response,183,498717,0.0-20.0-0.3,5980128635fbf100017d0861,,,passed,,,,,,,,,,,,,,,,,ballFalling,604.4,667.6211432,201.78,9,fallScene,FALSE,,,,,52,,
,,,,,html-keyboard-response,184,501719,0.0-20.0-1.3,5980128635fbf100017d0861,,,passed,,1023,,,,,,,,,,,,,,j,yesOrNo,,,,9,,,gt,3000,,,52,667.6211432,201.78
,,,,,html-keyboard-response,185,503209,0.0-20.0-0.4,5980128635fbf100017d0861,,,passed,,,,,,,,,,,,,,,,,ballFalling,604.4,667.6211432,201.78,9,fallScene,TRUE,,,,,53,,
,,,,,html-keyboard-response,186,506211,0.0-20.0-1.4,5980128635fbf100017d0861,,,passed,,670,,,,,,,,,,,,,,j,yesOrNo,,,,9,,,mid,3000,,,53,605.4,300
,,,,,html-keyboard-response,187,507784,0.0-20.0-0.5,5980128635fbf100017d0861,,,passed,,,,,,,,,,,,,,,,,ballFalling,500,553.4711432,282.51,7,fallScene,TRUE,,,,,54,,
,,,,,html-keyboard-response,188,510785,0.0-20.0-1.5,5980128635fbf100017d0861,,,passed,,679,,,,,,,,,,,,,,j,yesOrNo,,,,7,,,lp,3000,,,54,501,227.2843296
,,,,,html-keyboard-response,189,512577,0.0-20.0-0.6,5980128635fbf100017d0861,,,passed,,,,,,,,,,,,,,,,,ballFalling,322.3,308.0711432,253.89,2,fallScene,FALSE,,,,,55,,
,,,,,html-keyboard-response,190,515579,0.0-20.0-1.6,5980128635fbf100017d0861,,,passed,,645,,,,,,,,,,,,,,j,yesOrNo,,,,2,,,lp,3000,,,55,321.3,151
,,,,,html-keyboard-response,191,517591,0.0-20.0-0.7,5980128635fbf100017d0861,,,passed,,,,,,,,,,,,,,,,,ballFalling,500,510.8711432,369.03,8,fallScene,FALSE,,,,,56,,
,,,,,html-keyboard-response,192,520593,0.0-20.0-1.7,5980128635fbf100017d0861,,,passed,,680,,,,,,,,,,,,,,j,yesOrNo,,,,8,,,lp,3000,,,56,501,151
,,,,,html-keyboard-response,193,522604,0.0-20.0-0.8,5980128635fbf100017d0861,,,passed,,,,,,,,,,,,,,,,,ballFalling,604.4,596.8711432,394.5,10,fallScene,FALSE,,,,,57,,
,,,,,html-keyboard-response,194,525606,0.0-20.0-1.8,5980128635fbf100017d0861,,,passed,,549,,,,,,,,,,,,,,j,yesOrNo,,,,10,,,mid,3000,,,57,536.4288568,300
,,,,,html-keyboard-response,195,527613,0.0-20.0-0.9,5980128635fbf100017d0861,,,passed,,,,,,,,,,,,,,,,,ballFalling,604.4,596.8711432,394.5,10,fallScene,FALSE,,,,,58,,
,,,,,html-keyboard-response,196,530615,0.0-20.0-1.9,5980128635fbf100017d0861,,,passed,,1300,,,,,,,,,,,,,,j,yesOrNo,,,,10,,,lp,3000,,,58,603.4,215.5021436
,,,,,html-keyboard-response,197,532273,0.0-20.0-0.10,5980128635fbf100017d0861,,,passed,,,,,,,,,,,,,,,,,ballFalling,500,479.9211432,330.87,6,fallScene,FALSE,,,,,59,,
,,,,,html-keyboard-response,198,535274,0.0-20.0-1.10,5980128635fbf100017d0861,,,passed,,959,,,,,,,,,,,,,,f,yesOrNo,,,,6,,,lp,3000,,,59,499,189.9290983
,,,,,html-keyboard-response,199,536835,0.0-20.0-0.11,5980128635fbf100017d0861,,,passed,,,,,,,,,,,,,,,,,ballFalling,322.3,356.4211432,357.87,4,fallScene,TRUE,,,,,60,,
,,,,,html-keyboard-response,200,539836,0.0-20.0-1.11,5980128635fbf100017d0861,,,passed,,723,,,,,,,,,,,,,,j,yesOrNo,,,,4,,,lp,3000,,,60,323.3,297.4070552
,,,,,html-keyboard-response,201,541494,0.0-20.0-0.12,5980128635fbf100017d0861,,,passed,,,,,,,,,,,,,,,,,ballFalling,500,479.9211432,330.87,6,fallScene,TRUE,,,,,61,,
,,,,,html-keyboard-response,202,544496,0.0-20.0-1.12,5980128635fbf100017d0861,,,passed,,1017,,,,,,,,,,,,,,j,yesOrNo,,,,6,,,mid,3000,,,61,499,300
,,,,,html-keyboard-response,203,546057,0.0-20.0-0.13,5980128635fbf100017d0861,,,passed,,,,,,,,,,,,,,,,,ballFalling,322.3,356.4211432,357.87,4,fallScene,FALSE,,,,,62,,
,,,,,html-keyboard-response,204,549059,0.0-20.0-1.13,5980128635fbf100017d0861,,,passed,,1218,,,,,,,,,,,,,,f,yesOrNo,,,,4,,,mid,3000,,,62,390.2711432,300
,,,,,html-keyboard-response,205,550636,0.0-20.0-0.14,5980128635fbf100017d0861,,,passed,,,,,,,,,,,,,,,,,ballFalling,500,553.4711432,282.51,7,fallScene,TRUE,,,,,63,,
,,,,,html-keyboard-response,206,553638,0.0-20.0-1.14,5980128635fbf100017d0861,,,passed,,707,,,,,,,,,,,,,,j,yesOrNo,,,,7,,,mid,3000,,,63,501,300
,,,,,html-keyboard-response,207,555199,0.0-20.0-0.15,5980128635fbf100017d0861,,,passed,,,,,,,,,,,,,,,,,ballFalling,322.3,356.4211432,357.87,4,fallScene,TRUE,,,,,64,,
,,,,,html-keyboard-response,208,558201,0.0-20.0-1.15,5980128635fbf100017d0861,,,passed,,1703,,,,,,,,,,,,,,f,yesOrNo,,,,4,,,gt,3000,,,64,356.4211432,357.87
,,,,,html-keyboard-response,209,560212,0.0-20.0-0.16,5980128635fbf100017d0861,,,passed,,,,,,,,,,,,,,,,,ballFalling,604.4,596.8711432,394.5,10,fallScene,TRUE,,,,,65,,
,,,,,html-keyboard-response,210,563215,0.0-20.0-1.16,5980128635fbf100017d0861,,,passed,,600,,,,,,,,,,,,,,j,yesOrNo,,,,10,,,mid,3000,,,65,536.4288568,300
,,,,,html-keyboard-response,211,564775,0.0-20.0-0.17,5980128635fbf100017d0861,,,passed,,,,,,,,,,,,,,,,,ballFalling,500,453.6711432,210.33,5,fallScene,FALSE,,,,,66,,
,,,,,html-keyboard-response,212,567778,0.0-20.0-1.17,5980128635fbf100017d0861,,,passed,,935,,,,,,,,,,,,,,j,yesOrNo,,,,5,,,mid,3000,,,66,499,300
,,,,,html-keyboard-response,213,569338,0.0-20.0-0.18,5980128635fbf100017d0861,,,passed,,,,,,,,,,,,,,,,,ballFalling,500,453.6711432,210.33,5,fallScene,TRUE,,,,,67,,
,,,,,html-keyboard-response,214,572340,0.0-20.0-1.18,5980128635fbf100017d0861,,,passed,,1319,,,,,,,,,,,,,,j,yesOrNo,,,,5,,,lp,3000,,,67,499,151
,,,,,html-keyboard-response,215,573901,0.0-20.0-0.19,5980128635fbf100017d0861,,,passed,,,,,,,,,,,,,,,,,ballFalling,604.4,650.0211432,404.58,11,fallScene,TRUE,,,,,68,,
,,,,,html-keyboard-response,216,576903,0.0-20.0-1.19,5980128635fbf100017d0861,,,passed,,1454,,,,,,,,,,,,,,j,yesOrNo,,,,11,,,mid,3000,,,68,605.4,300
,,,,,html-keyboard-response,217,578485,0.0-20.0-0.20,5980128635fbf100017d0861,,,passed,,,,,,,,,,,,,,,,,ballFalling,500,553.4711432,282.51,7,fallScene,FALSE,,,,,69,,
,,,,,html-keyboard-response,218,581486,0.0-20.0-1.20,5980128635fbf100017d0861,,,passed,,1058,,,,,,,,,,,,,,j,yesOrNo,,,,7,,,mid,3000,,,69,501,300
,,,,,html-keyboard-response,219,583047,0.0-20.0-0.21,5980128635fbf100017d0861,,,passed,,,,,,,,,,,,,,,,,ballFalling,322.3,379.3711432,245.25,1,fallScene,TRUE,,,,,70,,
,,,,,html-keyboard-response,220,586049,0.0-20.0-1.21,5980128635fbf100017d0861,,,passed,,943,,,,,,,,,,,,,,f,yesOrNo,,,,1,,,mid,3000,,,70,390.2711432,300
,,,,,html-keyboard-response,221,587611,0.0-20.0-0.22,5980128635fbf100017d0861,,,passed,,,,,,,,,,,,,,,,,ballFalling,604.4,575.4211432,266.76,12,fallScene,FALSE,,,,,71,,
,,,,,html-keyboard-response,222,590613,0.0-20.0-1.22,5980128635fbf100017d0861,,,passed,,1076,,,,,,,,,,,,,,f,yesOrNo,,,,12,,,lp,3000,,,71,603.4,151
,,,,,html-keyboard-response,223,592106,0.0-20.0-0.23,5980128635fbf100017d0861,,,passed,,,,,,,,,,,,,,,,,ballFalling,604.4,667.6211432,201.78,9,fallScene,FALSE,,,,,72,,
,,,,,html-keyboard-response,224,595108,0.0-20.0-1.23,5980128635fbf100017d0861,,,passed,,1097,,,,,,,,,,,,,,f,yesOrNo,,,,9,,,lp,3000,,,72,605.4,151
,,,,,html-keyboard-response,225,596580,0.0-21.0,5980128635fbf100017d0861,,,passed,,1472,,,,,,,,,,,,,"<p><span style=""font-size:40px;"">BLOCK 4</span></p><p><span style=""font-size:25px;"">You have <b style=""color: #FF644F;""><strong>3 second(s)</strong></b> to respond to the following trials.</span><br></p><p></p> <!-- Blank line -->
                <p id=""blinking-text"" style=""font-weight; animation: blink 2s infinite;"">Press Space to continue</p>
                <style>
                    @keyframes blink {
                        50% {
                            opacity: 0;
                        }
                    }
                </style></p>", ,,,,,,,,,,,,,,
,,,,,html-keyboard-response,226,598071,0.0-22.0-0.0,5980128635fbf100017d0861,,,passed,,,,,,,,,,,,,,,,,ballFalling,604.4,667.6211432,201.78,9,fallScene,FALSE,,,,,73,,
,,,,,html-keyboard-response,227,601073,0.0-22.0-1.0,5980128635fbf100017d0861,,,passed,,424,,,,,,,,,,,,,,j,yesOrNo,,,,9,,,gt,3000,,,73,667.6211432,201.78
,,,,,html-keyboard-response,228,602634,0.0-22.0-0.1,5980128635fbf100017d0861,,,passed,,,,,,,,,,,,,,,,,ballFalling,322.3,296.0711432,371.46,3,fallScene,FALSE,,,,,74,,
,,,,,html-keyboard-response,229,605636,0.0-22.0-1.1,5980128635fbf100017d0861,,,passed,,758,,,,,,,,,,,,,,j,yesOrNo,,,,3,,,lp,3000,,,74,321.3,287.3327097
,,,,,html-keyboard-response,230,607198,0.0-22.0-0.2,5980128635fbf100017d0861,,,passed,,,,,,,,,,,,,,,,,ballFalling,500,453.6711432,210.33,5,fallScene,FALSE,,,,,75,,
,,,,,html-keyboard-response,231,610199,0.0-22.0-1.2,5980128635fbf100017d0861,,,passed,,728,,,,,,,,,,,,,,j,yesOrNo,,,,5,,,gt,3000,,,75,453.6711432,210.33
,,,,,html-keyboard-response,232,611760,0.0-22.0-0.3,5980128635fbf100017d0861,,,passed,,,,,,,,,,,,,,,,,ballFalling,322.3,379.3711432,245.25,1,fallScene,TRUE,,,,,76,,
,,,,,html-keyboard-response,233,614762,0.0-22.0-1.3,5980128635fbf100017d0861,,,passed,,605,,,,,,,,,,,,,,j,yesOrNo,,,,1,,,lp,3000,,,76,323.3,217.7455167
,,,,,html-keyboard-response,234,616252,0.0-22.0-0.4,5980128635fbf100017d0861,,,passed,,,,,,,,,,,,,,,,,ballFalling,604.4,667.6211432,201.78,9,fallScene,TRUE,,,,,77,,
,,,,,html-keyboard-response,235,619254,0.0-22.0-1.4,5980128635fbf100017d0861,,,passed,,730,,,,,,,,,,,,,,j,yesOrNo,,,,9,,,mid,3000,,,77,605.4,300
,,,,,html-keyboard-response,236,620815,0.0-22.0-0.5,5980128635fbf100017d0861,,,passed,,,,,,,,,,,,,,,,,ballFalling,500,453.6711432,210.33,5,fallScene,FALSE,,,,,78,,
,,,,,html-keyboard-response,237,623816,0.0-22.0-1.5,5980128635fbf100017d0861,,,passed,,608,,,,,,,,,,,,,,j,yesOrNo,,,,5,,,mid,3000,,,78,499,300
,,,,,html-keyboard-response,238,625395,0.0-22.0-0.6,5980128635fbf100017d0861,,,passed,,,,,,,,,,,,,,,,,ballFalling,500,553.4711432,282.51,7,fallScene,TRUE,,,,,79,,
,,,,,html-keyboard-response,239,628396,0.0-22.0-1.6,5980128635fbf100017d0861,,,passed,,556,,,,,,,,,,,,,,j,yesOrNo,,,,7,,,lp,3000,,,79,501,227.2843296
,,,,,html-keyboard-response,240,630057,0.0-22.0-0.7,5980128635fbf100017d0861,,,passed,,,,,,,,,,,,,,,,,ballFalling,500,479.9211432,330.87,6,fallScene,FALSE,,,,,80,,
,,,,,html-keyboard-response,241,633058,0.0-22.0-1.7,5980128635fbf100017d0861,,,passed,,361,,,,,,,,,,,,,,j,yesOrNo,,,,6,,,mid,3000,,,80,499,300
,,,,,html-keyboard-response,242,634716,0.0-22.0-0.8,5980128635fbf100017d0861,,,passed,,,,,,,,,,,,,,,,,ballFalling,500,479.9211432,330.87,6,fallScene,FALSE,,,,,81,,
,,,,,html-keyboard-response,243,637718,0.0-22.0-1.8,5980128635fbf100017d0861,,,passed,,544,,,,,,,,,,,,,,j,yesOrNo,,,,6,,,gt,3000,,,81,479.9211432,330.87
,,,,,html-keyboard-response,244,639730,0.0-22.0-0.9,5980128635fbf100017d0861,,,passed,,,,,,,,,,,,,,,,,ballFalling,604.4,596.8711432,394.5,10,fallScene,TRUE,,,,,82,,
,,,,,html-keyboard-response,245,642732,0.0-22.0-1.9,5980128635fbf100017d0861,,,passed,,608,,,,,,,,,,,,,,j,yesOrNo,,,,10,,,gt,3000,,,82,596.8711432,394.5
,,,,,html-keyboard-response,246,644526,0.0-22.0-0.10,5980128635fbf100017d0861,,,passed,,,,,,,,,,,,,,,,,ballFalling,322.3,308.0711432,253.89,2,fallScene,TRUE,,,,,83,,
,,,,,html-keyboard-response,247,647528,0.0-22.0-1.10,5980128635fbf100017d0861,,,passed,,920,,,,,,,,,,,,,,j,yesOrNo,,,,2,,,lp,3000,,,83,321.3,151
,,,,,html-keyboard-response,248,649089,0.0-22.0-0.11,5980128635fbf100017d0861,,,passed,,,,,,,,,,,,,,,,,ballFalling,322.3,296.0711432,371.46,3,fallScene,TRUE,,,,,84,,
,,,,,html-keyboard-response,249,652091,0.0-22.0-1.11,5980128635fbf100017d0861,,,passed,,1250,,,,,,,,,,,,,,j,yesOrNo,,,,3,,,gt,3000,,,84,296.0711432,371.46
,,,,,html-keyboard-response,250,653651,0.0-22.0-0.12,5980128635fbf100017d0861,,,passed,,,,,,,,,,,,,,,,,ballFalling,322.3,379.3711432,245.25,1,fallScene,FALSE,,,,,85,,
,,,,,html-keyboard-response,251,656653,0.0-22.0-1.12,5980128635fbf100017d0861,,,passed,,998,,,,,,,,,,,,,,f,yesOrNo,,,,1,,,mid,3000,,,85,390.2711432,300
,,,,,html-keyboard-response,252,658210,0.0-22.0-0.13,5980128635fbf100017d0861,,,passed,,,,,,,,,,,,,,,,,ballFalling,604.4,575.4211432,266.76,12,fallScene,FALSE,,,,,86,,
,,,,,html-keyboard-response,253,661212,0.0-22.0-1.13,5980128635fbf100017d0861,,,passed,,694,,,,,,,,,,,,,,j,yesOrNo,,,,12,,,gt,3000,,,86,575.4211432,266.76
,,,,,html-keyboard-response,254,662773,0.0-22.0-0.14,5980128635fbf100017d0861,,,passed,,,,,,,,,,,,,,,,,ballFalling,604.4,575.4211432,266.76,12,fallScene,TRUE,,,,,87,,
,,,,,html-keyboard-response,255,665774,0.0-22.0-1.14,5980128635fbf100017d0861,,,passed,,1466,,,,,,,,,,,,,,f,yesOrNo,,,,12,,,mid,3000,,,87,536.4288568,300
,,,,,html-keyboard-response,256,667783,0.0-22.0-0.15,5980128635fbf100017d0861,,,passed,,,,,,,,,,,,,,,,,ballFalling,500,510.8711432,369.03,8,fallScene,FALSE,,,,,88,,
,,,,,html-keyboard-response,257,670785,0.0-22.0-1.15,5980128635fbf100017d0861,,,passed,,1162,,,,,,,,,,,,,,f,yesOrNo,,,,8,,,lp,3000,,,88,501,151
,,,,,html-keyboard-response,258,672345,0.0-22.0-0.16,5980128635fbf100017d0861,,,passed,,,,,,,,,,,,,,,,,ballFalling,604.4,575.4211432,266.76,12,fallScene,FALSE,,,,,89,,
,,,,,html-keyboard-response,259,675347,0.0-22.0-1.16,5980128635fbf100017d0861,,,passed,,1128,,,,,,,,,,,,,,f,yesOrNo,,,,12,,,mid,3000,,,89,536.4288568,300
,,,,,html-keyboard-response,260,676908,0.0-22.0-0.17,5980128635fbf100017d0861,,,passed,,,,,,,,,,,,,,,,,ballFalling,500,453.6711432,210.33,5,fallScene,FALSE,,,,,90,,
,,,,,html-keyboard-response,261,679910,0.0-22.0-1.17,5980128635fbf100017d0861,,,passed,,572,,,,,,,,,,,,,,j,yesOrNo,,,,5,,,gt,3000,,,90,453.6711432,210.33
,,,,,html-keyboard-response,262,681471,0.0-22.0-0.18,5980128635fbf100017d0861,,,passed,,,,,,,,,,,,,,,,,ballFalling,322.3,356.4211432,357.87,4,fallScene,TRUE,,,,,91,,
,,,,,html-keyboard-response,263,684473,0.0-22.0-1.18,5980128635fbf100017d0861,,,passed,,935,,,,,,,,,,,,,,f,yesOrNo,,,,4,,,gt,3000,,,91,356.4211432,357.87
,,,,,html-keyboard-response,264,686134,0.0-22.0-0.19,5980128635fbf100017d0861,,,passed,,,,,,,,,,,,,,,,,ballFalling,500,479.9211432,330.87,6,fallScene,FALSE,,,,,92,,
,,,,,html-keyboard-response,265,689136,0.0-22.0-1.19,5980128635fbf100017d0861,,,passed,,1215,,,,,,,,,,,,,,j,yesOrNo,,,,6,,,gt,3000,,,92,479.9211432,330.87
,,,,,html-keyboard-response,266,691147,0.0-22.0-0.20,5980128635fbf100017d0861,,,passed,,,,,,,,,,,,,,,,,ballFalling,500,510.8711432,369.03,8,fallScene,TRUE,,,,,93,,
,,,,,html-keyboard-response,267,694149,0.0-22.0-1.20,5980128635fbf100017d0861,,,passed,,728,,,,,,,,,,,,,,j,yesOrNo,,,,8,,,mid,3000,,,93,501,300
,,,,,html-keyboard-response,268,695706,0.0-22.0-0.21,5980128635fbf100017d0861,,,passed,,,,,,,,,,,,,,,,,ballFalling,604.4,650.0211432,404.58,11,fallScene,FALSE,,,,,94,,
,,,,,html-keyboard-response,269,698707,0.0-22.0-1.21,5980128635fbf100017d0861,,,passed,,1059,,,,,,,,,,,,,,j,yesOrNo,,,,11,,,mid,3000,,,94,605.4,300
,,,,,html-keyboard-response,270,700265,0.0-22.0-0.22,5980128635fbf100017d0861,,,passed,,,,,,,,,,,,,,,,,ballFalling,322.3,379.3711432,245.25,1,fallScene,FALSE,,,,,95,,
,,,,,html-keyboard-response,271,703267,0.0-22.0-1.22,5980128635fbf100017d0861,,,passed,,630,,,,,,,,,,,,,,j,yesOrNo,,,,1,,,lp,3000,,,95,323.3,217.7455167
,,,,,html-keyboard-response,272,704828,0.0-22.0-0.23,5980128635fbf100017d0861,,,passed,,,,,,,,,,,,,,,,,ballFalling,322.3,356.4211432,357.87,4,fallScene,FALSE,,,,,96,,
,,,,,html-keyboard-response,273,707830,0.0-22.0-1.23,5980128635fbf100017d0861,,,passed,,615,,,,,,,,,,,,,,j,yesOrNo,,,,4,,,lp,3000,,,96,323.3,297.4070552
,,,,,html-keyboard-response,274,709870,0.0-23.0,5980128635fbf100017d0861,,,passed,,2040,,,,,,,,,,,,,"<p><span style=""font-size:40px;"">BLOCK 5</span></p><p><span style=""font-size:25px;"">You have <b style=""color: #FF644F;""><strong>1 second(s)</strong></b> to respond to the following trials.</span><br></p><p></p> <!-- Blank line -->
                <p id=""blinking-text"" style=""font-weight; animation: blink 2s infinite;"">Press Space to continue</p>
                <style>
                    @keyframes blink {
                        50% {
                            opacity: 0;
                        }
                    }
                </style></p>", ,,,,,,,,,,,,,,
,,,,,html-keyboard-response,275,711878,0.0-24.0-0.0,5980128635fbf100017d0861,,,passed,,,,,,,,,,,,,,,,,ballFalling,500,510.8711432,369.03,8,fallScene,TRUE,,,,,97,,
,,,,,html-keyboard-response,276,712881,0.0-24.0-1.0,5980128635fbf100017d0861,,,passed,,493,,,,,,,,,,,,,,j,yesOrNo,,,,8,,,mid,1000,,,97,501,300
,,,,,html-keyboard-response,277,714542,0.0-24.0-0.1,5980128635fbf100017d0861,,,passed,,,,,,,,,,,,,,,,,ballFalling,500,479.9211432,330.87,6,fallScene,FALSE,,,,,98,,
,,,,,html-keyboard-response,278,715543,0.0-24.0-1.1,5980128635fbf100017d0861,,,passed,,494,,,,,,,,,,,,,,j,yesOrNo,,,,6,,,gt,1000,,,98,479.9211432,330.87
,,,,,html-keyboard-response,279,717100,0.0-24.0-0.2,5980128635fbf100017d0861,,,passed,,,,,,,,,,,,,,,,,ballFalling,322.3,296.0711432,371.46,3,fallScene,TRUE,,,,,99,,
,,,,,html-keyboard-response,280,718102,0.0-24.0-1.2,5980128635fbf100017d0861,,,passed,,593,,,,,,,,,,,,,,j,yesOrNo,,,,3,,,mid,1000,,,99,321.3,300
,,,,,html-keyboard-response,281,719660,0.0-24.0-0.3,5980128635fbf100017d0861,,,passed,,,,,,,,,,,,,,,,,ballFalling,604.4,650.0211432,404.58,11,fallScene,TRUE,,,,,100,,
,,,,,html-keyboard-response,282,720661,0.0-24.0-1.3,5980128635fbf100017d0861,,,passed,,792,,,,,,,,,,,,,,f,yesOrNo,,,,11,,,lp,1000,,,100,605.4,372.6340973
,,,,,html-keyboard-response,283,722235,0.0-24.0-0.4,5980128635fbf100017d0861,,,passed,,,,,,,,,,,,,,,,,ballFalling,500,553.4711432,282.51,7,fallScene,FALSE,,,,,101,,
,,,,,html-keyboard-response,284,723238,0.0-24.0-1.4,5980128635fbf100017d0861,,,passed,,513,,,,,,,,,,,,,,j,yesOrNo,,,,7,,,lp,1000,,,101,501,227.2843296
,,,,,html-keyboard-response,285,724799,0.0-24.0-0.5,5980128635fbf100017d0861,,,passed,,,,,,,,,,,,,,,,,ballFalling,604.4,575.4211432,266.76,12,fallScene,FALSE,,,,,102,,
,,,,,html-keyboard-response,286,725801,0.0-24.0-1.5,5980128635fbf100017d0861,,,passed,,623,,,,,,,,,,,,,,f,yesOrNo,,,,12,,,mid,1000,,,102,536.4288568,300
,,,,,html-keyboard-response,287,727462,0.0-24.0-0.6,5980128635fbf100017d0861,,,passed,,,,,,,,,,,,,,,,,ballFalling,500,479.9211432,330.87,6,fallScene,TRUE,,,,,103,,
,,,,,html-keyboard-response,288,728464,0.0-24.0-1.6,5980128635fbf100017d0861,,,passed,,879,,,,,,,,,,,,,,f,yesOrNo,,,,6,,,lp,1000,,,103,499,189.9290983
,,,,,html-keyboard-response,289,730021,0.0-24.0-0.7,5980128635fbf100017d0861,,,passed,,,,,,,,,,,,,,,,,ballFalling,604.4,575.4211432,266.76,12,fallScene,FALSE,,,,,104,,
,,,,,html-keyboard-response,290,731023,0.0-24.0-1.7,5980128635fbf100017d0861,,,passed,,693,,,,,,,,,,,,,,f,yesOrNo,,,,12,,,gt,1000,,,104,575.4211432,266.76
,,,,,html-keyboard-response,291,733035,0.0-24.0-0.8,5980128635fbf100017d0861,,,passed,,,,,,,,,,,,,,,,,ballFalling,500,510.8711432,369.03,8,fallScene,FALSE,,,,,105,,
,,,,,html-keyboard-response,292,734037,0.0-24.0-1.8,5980128635fbf100017d0861,,,passed,,820,,,,,,,,,,,,,,f,yesOrNo,,,,8,,,gt,1000,,,105,510.8711432,369.03
,,,,,html-keyboard-response,293,735599,0.0-24.0-0.9,5980128635fbf100017d0861,,,passed,,,,,,,,,,,,,,,,,ballFalling,322.3,296.0711432,371.46,3,fallScene,FALSE,,,,,106,,
,,,,,html-keyboard-response,294,736600,0.0-24.0-1.9,5980128635fbf100017d0861,,,passed,,718,,,,,,,,,,,,,,f,yesOrNo,,,,3,,,lp,1000,,,106,321.3,287.3327097
,,,,,html-keyboard-response,295,738608,0.0-24.0-0.10,5980128635fbf100017d0861,,,passed,,,,,,,,,,,,,,,,,ballFalling,500,510.8711432,369.03,8,fallScene,FALSE,,,,,107,,
,,,,,html-keyboard-response,296,739610,0.0-24.0-1.10,5980128635fbf100017d0861,,,passed,,789,,,,,,,,,,,,,,j,yesOrNo,,,,8,,,lp,1000,,,107,501,151
,,,,,html-keyboard-response,297,741188,0.0-24.0-0.11,5980128635fbf100017d0861,,,passed,,,,,,,,,,,,,,,,,ballFalling,500,553.4711432,282.51,7,fallScene,FALSE,,,,,108,,
,,,,,html-keyboard-response,298,742190,0.0-24.0-1.11,5980128635fbf100017d0861,,,passed,,512,,,,,,,,,,,,,,j,yesOrNo,,,,7,,,lp,1000,,,108,501,227.2843296
,,,,,html-keyboard-response,299,743768,0.0-24.0-0.12,5980128635fbf100017d0861,,,passed,,,,,,,,,,,,,,,,,ballFalling,500,553.4711432,282.51,7,fallScene,FALSE,,,,,109,,
,,,,,html-keyboard-response,300,744770,0.0-24.0-1.12,5980128635fbf100017d0861,,,passed,,679,,,,,,,,,,,,,,j,yesOrNo,,,,7,,,mid,1000,,,109,501,300
,,,,,html-keyboard-response,301,746348,0.0-24.0-0.13,5980128635fbf100017d0861,,,passed,,,,,,,,,,,,,,,,,ballFalling,500,553.4711432,282.51,7,fallScene,TRUE,,,,,110,,
,,,,,html-keyboard-response,302,747350,0.0-24.0-1.13,5980128635fbf100017d0861,,,passed,,596,,,,,,,,,,,,,,j,yesOrNo,,,,7,,,gt,1000,,,110,553.4711432,282.51
,,,,,html-keyboard-response,303,748911,0.0-24.0-0.14,5980128635fbf100017d0861,,,passed,,,,,,,,,,,,,,,,,ballFalling,322.3,379.3711432,245.25,1,fallScene,FALSE,,,,,111,,
,,,,,html-keyboard-response,304,749913,0.0-24.0-1.14,5980128635fbf100017d0861,,,passed,,431,,,,,,,,,,,,,,j,yesOrNo,,,,1,,,lp,1000,,,111,323.3,217.7455167
,,,,,html-keyboard-response,305,751474,0.0-24.0-0.15,5980128635fbf100017d0861,,,passed,,,,,,,,,,,,,,,,,ballFalling,322.3,379.3711432,245.25,1,fallScene,TRUE,,,,,112,,
,,,,,html-keyboard-response,306,752475,0.0-24.0-1.15,5980128635fbf100017d0861,,,passed,,455,,,,,,,,,,,,,,j,yesOrNo,,,,1,,,lp,1000,,,112,323.3,217.7455167
,,,,,html-keyboard-response,307,754033,0.0-24.0-0.16,5980128635fbf100017d0861,,,passed,,,,,,,,,,,,,,,,,ballFalling,500,453.6711432,210.33,5,fallScene,TRUE,,,,,113,,
,,,,,html-keyboard-response,308,755034,0.0-24.0-1.16,5980128635fbf100017d0861,,,passed,,394,,,,,,,,,,,,,,j,yesOrNo,,,,5,,,mid,1000,,,113,499,300
,,,,,html-keyboard-response,309,756592,0.0-24.0-0.17,5980128635fbf100017d0861,,,passed,,,,,,,,,,,,,,,,,ballFalling,322.3,296.0711432,371.46,3,fallScene,FALSE,,,,,114,,
,,,,,html-keyboard-response,310,757593,0.0-24.0-1.17,5980128635fbf100017d0861,,,passed,,769,,,,,,,,,,,,,,f,yesOrNo,,,,3,,,gt,1000,,,114,296.0711432,371.46
,,,,,html-keyboard-response,311,759151,0.0-24.0-0.18,5980128635fbf100017d0861,,,passed,,,,,,,,,,,,,,,,,ballFalling,604.4,650.0211432,404.58,11,fallScene,FALSE,,,,,115,,
,,,,,html-keyboard-response,312,760152,0.0-24.0-1.18,5980128635fbf100017d0861,,,passed,,null,,,,,,,,,,,,,,null,yesOrNo,,,,11,,,gt,1000,,,115,650.0211432,404.58
,,,,,html-keyboard-response,313,761710,0.0-24.0-0.19,5980128635fbf100017d0861,,,passed,,,,,,,,,,,,,,,,,ballFalling,604.4,575.4211432,266.76,12,fallScene,TRUE,,,,,116,,
,,,,,html-keyboard-response,314,762712,0.0-24.0-1.19,5980128635fbf100017d0861,,,passed,,326,,,,,,,,,,,,,,j,yesOrNo,,,,12,,,mid,1000,,,116,536.4288568,300
,,,,,html-keyboard-response,315,764269,0.0-24.0-0.20,5980128635fbf100017d0861,,,passed,,,,,,,,,,,,,,,,,ballFalling,604.4,650.0211432,404.58,11,fallScene,FALSE,,,,,117,,
,,,,,html-keyboard-response,316,765271,0.0-24.0-1.20,5980128635fbf100017d0861,,,passed,,624,,,,,,,,,,,,,,f,yesOrNo,,,,11,,,mid,1000,,,117,605.4,300
,,,,,html-keyboard-response,317,766828,0.0-24.0-0.21,5980128635fbf100017d0861,,,passed,,,,,,,,,,,,,,,,,ballFalling,604.4,575.4211432,266.76,12,fallScene,FALSE,,,,,118,,
,,,,,html-keyboard-response,318,767830,0.0-24.0-1.21,5980128635fbf100017d0861,,,passed,,420,,,,,,,,,,,,,,j,yesOrNo,,,,12,,,gt,1000,,,118,575.4211432,266.76
,,,,,html-keyboard-response,319,769387,0.0-24.0-0.22,5980128635fbf100017d0861,,,passed,,,,,,,,,,,,,,,,,ballFalling,322.3,296.0711432,371.46,3,fallScene,TRUE,,,,,119,,
,,,,,html-keyboard-response,320,770389,0.0-24.0-1.22,5980128635fbf100017d0861,,,passed,,564,,,,,,,,,,,,,,j,yesOrNo,,,,3,,,gt,1000,,,119,296.0711432,371.46
,,,,,html-keyboard-response,321,771883,0.0-24.0-0.23,5980128635fbf100017d0861,,,passed,,,,,,,,,,,,,,,,,ballFalling,604.4,667.6211432,201.78,9,fallScene,TRUE,,,,,120,,
,,,,,html-keyboard-response,322,772885,0.0-24.0-1.23,5980128635fbf100017d0861,,,passed,,565,,,,,,,,,,,,,,j,yesOrNo,,,,9,,,lp,1000,,,120,605.4,151
,,,,,html-keyboard-response,323,774515,0.0-25.0,5980128635fbf100017d0861,,,passed,,1629,,,,,,,,,,,,,"<p><span style=""font-size:40px;"">BLOCK 6</span></p><p><span style=""font-size:25px;"">You have <b style=""color: #FF644F;""><strong>1 second(s)</strong></b> to respond to the following trials.</span><br></p><p></p> <!-- Blank line -->
                <p id=""blinking-text"" style=""font-weight; animation: blink 2s infinite;"">Press Space to continue</p>
                <style>
                    @keyframes blink {
                        50% {
                            opacity: 0;
                        }
                    }
                </style></p>", ,,,,,,,,,,,,,,
,,,,,html-keyboard-response,324,776174,0.0-26.0-0.0,5980128635fbf100017d0861,,,passed,,,,,,,,,,,,,,,,,ballFalling,500,479.9211432,330.87,6,fallScene,FALSE,,,,,121,,
,,,,,html-keyboard-response,325,777176,0.0-26.0-1.0,5980128635fbf100017d0861,,,passed,,429,,,,,,,,,,,,,,j,yesOrNo,,,,6,,,gt,1000,,,121,479.9211432,330.87
,,,,,html-keyboard-response,326,778733,0.0-26.0-0.1,5980128635fbf100017d0861,,,passed,,,,,,,,,,,,,,,,,ballFalling,322.3,296.0711432,371.46,3,fallScene,TRUE,,,,,122,,
,,,,,html-keyboard-response,327,779735,0.0-26.0-1.1,5980128635fbf100017d0861,,,passed,,489,,,,,,,,,,,,,,j,yesOrNo,,,,3,,,mid,1000,,,122,321.3,300
,,,,,html-keyboard-response,328,781292,0.0-26.0-0.2,5980128635fbf100017d0861,,,passed,,,,,,,,,,,,,,,,,ballFalling,322.3,356.4211432,357.87,4,fallScene,FALSE,,,,,123,,
,,,,,html-keyboard-response,329,782294,0.0-26.0-1.2,5980128635fbf100017d0861,,,passed,,393,,,,,,,,,,,,,,j,yesOrNo,,,,4,,,lp,1000,,,123,323.3,297.4070552
,,,,,html-keyboard-response,330,783952,0.0-26.0-0.3,5980128635fbf100017d0861,,,passed,,,,,,,,,,,,,,,,,ballFalling,500,479.9211432,330.87,6,fallScene,FALSE,,,,,124,,
,,,,,html-keyboard-response,331,784953,0.0-26.0-1.3,5980128635fbf100017d0861,,,passed,,539,,,,,,,,,,,,,,j,yesOrNo,,,,6,,,mid,1000,,,124,499,300
,,,,,html-keyboard-response,332,786962,0.0-26.0-0.4,5980128635fbf100017d0861,,,passed,,,,,,,,,,,,,,,,,ballFalling,604.4,596.8711432,394.5,10,fallScene,FALSE,,,,,125,,
,,,,,html-keyboard-response,333,787963,0.0-26.0-1.4,5980128635fbf100017d0861,,,passed,,898,,,,,,,,,,,,,,f,yesOrNo,,,,10,,,gt,1000,,,125,596.8711432,394.5
,,,,,html-keyboard-response,334,789754,0.0-26.0-0.5,5980128635fbf100017d0861,,,passed,,,,,,,,,,,,,,,,,ballFalling,322.3,308.0711432,253.89,2,fallScene,FALSE,,,,,126,,
,,,,,html-keyboard-response,335,790755,0.0-26.0-1.5,5980128635fbf100017d0861,,,passed,,848,,,,,,,,,,,,,,f,yesOrNo,,,,2,,,lp,1000,,,126,321.3,151
,,,,,html-keyboard-response,336,792313,0.0-26.0-0.6,5980128635fbf100017d0861,,,passed,,,,,,,,,,,,,,,,,ballFalling,500,453.6711432,210.33,5,fallScene,TRUE,,,,,127,,
,,,,,html-keyboard-response,337,793315,0.0-26.0-1.6,5980128635fbf100017d0861,,,passed,,449,,,,,,,,,,,,,,j,yesOrNo,,,,5,,,gt,1000,,,127,453.6711432,210.33
,,,,,html-keyboard-response,338,794806,0.0-26.0-0.7,5980128635fbf100017d0861,,,passed,,,,,,,,,,,,,,,,,ballFalling,604.4,667.6211432,201.78,9,fallScene,TRUE,,,,,128,,
,,,,,html-keyboard-response,339,795808,0.0-26.0-1.7,5980128635fbf100017d0861,,,passed,,785,,,,,,,,,,,,,,f,yesOrNo,,,,9,,,gt,1000,,,128,667.6211432,201.78
,,,,,html-keyboard-response,340,797365,0.0-26.0-0.8,5980128635fbf100017d0861,,,passed,,,,,,,,,,,,,,,,,ballFalling,604.4,575.4211432,266.76,12,fallScene,FALSE,,,,,129,,
,,,,,html-keyboard-response,341,798366,0.0-26.0-1.8,5980128635fbf100017d0861,,,passed,,590,,,,,,,,,,,,,,j,yesOrNo,,,,12,,,lp,1000,,,129,603.4,151
,,,,,html-keyboard-response,342,799923,0.0-26.0-0.9,5980128635fbf100017d0861,,,passed,,,,,,,,,,,,,,,,,ballFalling,322.3,356.4211432,357.87,4,fallScene,TRUE,,,,,130,,
,,,,,html-keyboard-response,343,800925,0.0-26.0-1.9,5980128635fbf100017d0861,,,passed,,null,,,,,,,,,,,,,,null,yesOrNo,,,,4,,,mid,1000,,,130,390.2711432,300
,,,,,html-keyboard-response,344,802716,0.0-26.0-0.10,5980128635fbf100017d0861,,,passed,,,,,,,,,,,,,,,,,ballFalling,322.3,308.0711432,253.89,2,fallScene,TRUE,,,,,131,,
,,,,,html-keyboard-response,345,803718,0.0-26.0-1.10,5980128635fbf100017d0861,,,passed,,444,,,,,,,,,,,,,,j,yesOrNo,,,,2,,,lp,1000,,,131,321.3,151
,,,,,html-keyboard-response,346,805275,0.0-26.0-0.11,5980128635fbf100017d0861,,,passed,,,,,,,,,,,,,,,,,ballFalling,322.3,356.4211432,357.87,4,fallScene,TRUE,,,,,132,,
,,,,,html-keyboard-response,347,806277,0.0-26.0-1.11,5980128635fbf100017d0861,,,passed,,758,,,,,,,,,,,,,,j,yesOrNo,,,,4,,,mid,1000,,,132,390.2711432,300
,,,,,html-keyboard-response,348,807834,0.0-26.0-0.12,5980128635fbf100017d0861,,,passed,,,,,,,,,,,,,,,,,ballFalling,500,453.6711432,210.33,5,fallScene,FALSE,,,,,133,,
,,,,,html-keyboard-response,349,808837,0.0-26.0-1.12,5980128635fbf100017d0861,,,passed,,714,,,,,,,,,,,,,,j,yesOrNo,,,,5,,,mid,1000,,,133,499,300
,,,,,html-keyboard-response,350,810493,0.0-26.0-0.13,5980128635fbf100017d0861,,,passed,,,,,,,,,,,,,,,,,ballFalling,500,479.9211432,330.87,6,fallScene,FALSE,,,,,134,,
,,,,,html-keyboard-response,351,811495,0.0-26.0-1.13,5980128635fbf100017d0861,,,passed,,526,,,,,,,,,,,,,,j,yesOrNo,,,,6,,,mid,1000,,,134,499,300
,,,,,html-keyboard-response,352,813070,0.0-26.0-0.14,5980128635fbf100017d0861,,,passed,,,,,,,,,,,,,,,,,ballFalling,500,553.4711432,282.51,7,fallScene,FALSE,,,,,135,,
,,,,,html-keyboard-response,353,814072,0.0-26.0-1.14,5980128635fbf100017d0861,,,passed,,837,,,,,,,,,,,,,,j,yesOrNo,,,,7,,,gt,1000,,,135,553.4711432,282.51
,,,,,html-keyboard-response,354,816083,0.0-26.0-0.15,5980128635fbf100017d0861,,,passed,,,,,,,,,,,,,,,,,ballFalling,500,510.8711432,369.03,8,fallScene,FALSE,,,,,136,,
,,,,,html-keyboard-response,355,817085,0.0-26.0-1.15,5980128635fbf100017d0861,,,passed,,661,,,,,,,,,,,,,,j,yesOrNo,,,,8,,,gt,1000,,,136,510.8711432,369.03
,,,,,html-keyboard-response,356,818643,0.0-26.0-0.16,5980128635fbf100017d0861,,,passed,,,,,,,,,,,,,,,,,ballFalling,604.4,650.0211432,404.58,11,fallScene,TRUE,,,,,137,,
,,,,,html-keyboard-response,357,819644,0.0-26.0-1.16,5980128635fbf100017d0861,,,passed,,599,,,,,,,,,,,,,,j,yesOrNo,,,,11,,,gt,1000,,,137,650.0211432,404.58
,,,,,html-keyboard-response,358,821652,0.0-26.0-0.17,5980128635fbf100017d0861,,,passed,,,,,,,,,,,,,,,,,ballFalling,500,510.8711432,369.03,8,fallScene,FALSE,,,,,138,,
,,,,,html-keyboard-response,359,822654,0.0-26.0-1.17,5980128635fbf100017d0861,,,passed,,615,,,,,,,,,,,,,,j,yesOrNo,,,,8,,,mid,1000,,,138,501,300
,,,,,html-keyboard-response,360,824662,0.0-26.0-0.18,5980128635fbf100017d0861,,,passed,,,,,,,,,,,,,,,,,ballFalling,604.4,596.8711432,394.5,10,fallScene,FALSE,,,,,139,,
,,,,,html-keyboard-response,361,825664,0.0-26.0-1.18,5980128635fbf100017d0861,,,passed,,721,,,,,,,,,,,,,,j,yesOrNo,,,,10,,,lp,1000,,,139,603.4,215.5021436
,,,,,html-keyboard-response,362,827455,0.0-26.0-0.19,5980128635fbf100017d0861,,,passed,,,,,,,,,,,,,,,,,ballFalling,322.3,308.0711432,253.89,2,fallScene,TRUE,,,,,140,,
,,,,,html-keyboard-response,363,828457,0.0-26.0-1.19,5980128635fbf100017d0861,,,passed,,686,,,,,,,,,,,,,,j,yesOrNo,,,,2,,,mid,1000,,,140,321.3,300
,,,,,html-keyboard-response,364,829947,0.0-26.0-0.20,5980128635fbf100017d0861,,,passed,,,,,,,,,,,,,,,,,ballFalling,604.4,667.6211432,201.78,9,fallScene,TRUE,,,,,141,,
,,,,,html-keyboard-response,365,830948,0.0-26.0-1.20,5980128635fbf100017d0861,,,passed,,938,,,,,,,,,,,,,,j,yesOrNo,,,,9,,,gt,1000,,,141,667.6211432,201.78
,,,,,html-keyboard-response,366,832506,0.0-26.0-0.21,5980128635fbf100017d0861,,,passed,,,,,,,,,,,,,,,,,ballFalling,322.3,296.0711432,371.46,3,fallScene,FALSE,,,,,142,,
,,,,,html-keyboard-response,367,833508,0.0-26.0-1.21,5980128635fbf100017d0861,,,passed,,741,,,,,,,,,,,,,,f,yesOrNo,,,,3,,,lp,1000,,,142,321.3,287.3327097
,,,,,html-keyboard-response,368,835516,0.0-26.0-0.22,5980128635fbf100017d0861,,,passed,,,,,,,,,,,,,,,,,ballFalling,604.4,596.8711432,394.5,10,fallScene,FALSE,,,,,143,,
,,,,,html-keyboard-response,369,836518,0.0-26.0-1.22,5980128635fbf100017d0861,,,passed,,363,,,,,,,,,,,,,,j,yesOrNo,,,,10,,,lp,1000,,,143,603.4,215.5021436
,,,,,html-keyboard-response,370,838079,0.0-26.0-0.23,5980128635fbf100017d0861,,,passed,,,,,,,,,,,,,,,,,ballFalling,322.3,379.3711432,245.25,1,fallScene,FALSE,,,,,144,,
,,,,,html-keyboard-response,371,839081,0.0-26.0-1.23,5980128635fbf100017d0861,,,passed,,612,,,,,,,,,,,,,,f,yesOrNo,,,,1,,,mid,1000,,,144,390.2711432,300
,,,,,survey-text,372,856530,0.0-27.0,5980128635fbf100017d0861,,,passed,,17448,,,,,,,,,,,,,,"{""Summary"":""good""}",,,,,,,,,,,,,,
,,,,,survey-text,373,863290,0.0-28.0,5980128635fbf100017d0861,,,passed,,6758,,,,,,,,,,,,,,"{""Comments"":""none""}",,,,,,,,,,,,,,