participant_ID,currentTrial,subject_id,study_id,session_id,rt,response,task,ball_X,obstacle_groundTruth_x,obstacle_groundTruth_y,stimulus_idx,trial_name,flipped,choice,timeLimit,obstacle_choice_x,obstacle_choice_y,ball_X_final,obstacle_groundTruth_x_final,obstacle_choice_x_final,is_accurate
6762abbea62dc4c2acf59fe0_result,1.0,6762abbea62dc4c2acf59fe0,6796e1c0ff24ca17c453c51c,67c715ba04b522cea8f2ad0a,487.0,j,ballFalling,604.4000000000001,650.0211431702996,404.58,11.0,fallScene,True,mid,3000.0,605.4000000000001,300.0,395.5999999999999,349.97885682970036,394.5999999999999,False
6762abbea62dc4c2acf59fe0_result,2.0,6762abbea62dc4c2acf59fe0,6796e1c0ff24ca17c453c51c,67c715ba04b522cea8f2ad0a,814.0,j,ballFalling,604.4000000000001,650.0211431702996,404.58,11.0,fallScene,True,gt,3000.0,650.0211431702996,404.58,395.5999999999999,349.97885682970036,349.97885682970036,True
6762abbea62dc4c2acf59fe0_result,3.0,6762abbea62dc4c2acf59fe0,6796e1c0ff24ca17c453c51c,67c715ba04b522cea8f2ad0a,1197.0,f,ballFalling,604.4000000000001,667.6211431702998,201.78,9.0,fallScene,False,gt,3000.0,667.6211431702998,201.78,604.4000000000001,667.6211431702998,667.6211431702998,False
6762abbea62dc4c2acf59fe0_result,4.0,6762abbea62dc4c2acf59fe0,6796e1c0ff24ca17c453c51c,67c715ba04b522cea8f2ad0a,1033.0,j,ballFalling,322.3,296.07114317029976,371.46,3.0,fallScene,False,lp,3000.0,321.3,287.3327096511259,322.3,296.07114317029976,321.3,False
6762abbea62dc4c2acf59fe0_result,5.0,6762abbea62dc4c2acf59fe0,6796e1c0ff24ca17c453c51c,67c715ba04b522cea8f2ad0a,903.0,f,ballFalling,500.0,453.6711431702998,210.33,5.0,fallScene,True,mid,3000.0,499.0,300.0,500.0,546.3288568297003,501.0,True
6762abbea62dc4c2acf59fe0_result,6.0,6762abbea62dc4c2acf59fe0,6796e1c0ff24ca17c453c51c,67c715ba04b522cea8f2ad0a,1159.0,f,ballFalling,500.0,510.8711431702997,369.03,8.0,fallScene,False,lp,3000.0,501.0,151.0,500.0,510.8711431702997,501.0,True
6762abbea62dc4c2acf59fe0_result,7.0,6762abbea62dc4c2acf59fe0,6796e1c0ff24ca17c453c51c,67c715ba04b522cea8f2ad0a,880.0,f,ballFalling,500.0,479.9211431702998,330.87,6.0,fallScene,True,lp,3000.0,499.0,189.92909825697632,500.0,520.0788568297003,501.0,True
6762abbea62dc4c2acf59fe0_result,8.0,6762abbea62dc4c2acf59fe0,6796e1c0ff24ca17c453c51c,67c715ba04b522cea8f2ad0a,801.0,j,ballFalling,604.4000000000001,667.6211431702998,201.78,9.0,fallScene,True,mid,3000.0,605.4000000000001,300.0,395.5999999999999,332.3788568297002,394.5999999999999,False
6762abbea62dc4c2acf59fe0_result,9.0,6762abbea62dc4c2acf59fe0,6796e1c0ff24ca17c453c51c,67c715ba04b522cea8f2ad0a,788.0,j,ballFalling,322.3,356.42114317029973,357.87,4.0,fallScene,True,gt,3000.0,356.42114317029973,357.87,677.7,643.5788568297003,643.5788568297003,True
6762abbea62dc4c2acf59fe0_result,10.0,6762abbea62dc4c2acf59fe0,6796e1c0ff24ca17c453c51c,67c715ba04b522cea8f2ad0a,343.0,j,ballFalling,500.0,453.6711431702998,210.33,5.0,fallScene,False,mid,3000.0,499.0,300.0,500.0,453.6711431702998,499.0,False
6762abbea62dc4c2acf59fe0_result,11.0,6762abbea62dc4c2acf59fe0,6796e1c0ff24ca17c453c51c,67c715ba04b522cea8f2ad0a,875.0,f,ballFalling,500.0,453.6711431702998,210.33,5.0,fallScene,True,lp,3000.0,499.0,151.0,500.0,546.3288568297003,501.0,True
6762abbea62dc4c2acf59fe0_result,12.0,6762abbea62dc4c2acf59fe0,6796e1c0ff24ca17c453c51c,67c715ba04b522cea8f2ad0a,509.0,j,ballFalling,500.0,553.4711431702997,282.51,7.0,fallScene,True,mid,3000.0,501.0,300.0,500.0,446.5288568297003,499.0,False
6762abbea62dc4c2acf59fe0_result,13.0,6762abbea62dc4c2acf59fe0,6796e1c0ff24ca17c453c51c,67c715ba04b522cea8f2ad0a,557.0,j,ballFalling,500.0,479.9211431702998,330.87,6.0,fallScene,False,gt,3000.0,479.9211431702998,330.87,500.0,479.9211431702998,479.9211431702998,True
6762abbea62dc4c2acf59fe0_result,14.0,6762abbea62dc4c2acf59fe0,6796e1c0ff24ca17c453c51c,67c715ba04b522cea8f2ad0a,462.0,f,ballFalling,322.3,308.07114317029976,253.89,2.0,fallScene,True,lp,3000.0,321.3,151.0,677.7,691.9288568297002,678.7,True
6762abbea62dc4c2acf59fe0_result,15.0,6762abbea62dc4c2acf59fe0,6796e1c0ff24ca17c453c51c,67c715ba04b522cea8f2ad0a,415.0,j,ballFalling,604.4000000000001,596.8711431702998,394.5,10.0,fallScene,True,lp,3000.0,603.4000000000001,215.50214355555383,395.5999999999999,403.1288568297002,396.5999999999999,False
6762abbea62dc4c2acf59fe0_result,16.0,6762abbea62dc4c2acf59fe0,6796e1c0ff24ca17c453c51c,67c715ba04b522cea8f2ad0a,399.0,j,ballFalling,500.0,510.8711431702997,369.03,8.0,fallScene,True,gt,3000.0,510.8711431702997,369.03,500.0,489.1288568297003,489.1288568297003,True
6762abbea62dc4c2acf59fe0_result,17.0,6762abbea62dc4c2acf59fe0,6796e1c0ff24ca17c453c51c,67c715ba04b522cea8f2ad0a,980.0,j,ballFalling,322.3,356.42114317029973,357.87,4.0,fallScene,True,mid,3000.0,390.27114317029975,300.0,677.7,643.5788568297003,609.7288568297002,False
6762abbea62dc4c2acf59fe0_result,18.0,6762abbea62dc4c2acf59fe0,6796e1c0ff24ca17c453c51c,67c715ba04b522cea8f2ad0a,554.0,j,ballFalling,500.0,479.9211431702998,330.87,6.0,fallScene,False,gt,3000.0,479.9211431702998,330.87,500.0,479.9211431702998,479.9211431702998,True
6762abbea62dc4c2acf59fe0_result,19.0,6762abbea62dc4c2acf59fe0,6796e1c0ff24ca17c453c51c,67c715ba04b522cea8f2ad0a,573.0,f,ballFalling,322.3,308.07114317029976,253.89,2.0,fallScene,True,lp,3000.0,321.3,151.0,677.7,691.9288568297002,678.7,True
6762abbea62dc4c2acf59fe0_result,20.0,6762abbea62dc4c2acf59fe0,6796e1c0ff24ca17c453c51c,67c715ba04b522cea8f2ad0a,1570.0,j,ballFalling,322.3,356.42114317029973,357.87,4.0,fallScene,False,gt,3000.0,356.42114317029973,357.87,322.3,356.42114317029973,356.42114317029973,True
6762abbea62dc4c2acf59fe0_result,21.0,6762abbea62dc4c2acf59fe0,6796e1c0ff24ca17c453c51c,67c715ba04b522cea8f2ad0a,345.0,f,ballFalling,500.0,510.8711431702997,369.03,8.0,fallScene,False,mid,3000.0,501.0,300.0,500.0,510.8711431702997,501.0,True
6762abbea62dc4c2acf59fe0_result,22.0,6762abbea62dc4c2acf59fe0,6796e1c0ff24ca17c453c51c,67c715ba04b522cea8f2ad0a,2469.0,j,ballFalling,500.0,510.8711431702997,369.03,8.0,fallScene,True,lp,3000.0,501.0,151.0,500.0,489.1288568297003,499.0,False
6762abbea62dc4c2acf59fe0_result,23.0,6762abbea62dc4c2acf59fe0,6796e1c0ff24ca17c453c51c,67c715ba04b522cea8f2ad0a,1072.0,f,ballFalling,604.4000000000001,575.4211431702997,266.76,12.0,fallScene,False,mid,3000.0,536.4288568297004,300.0,604.4000000000001,575.4211431702997,536.4288568297004,True
6762abbea62dc4c2acf59fe0_result,24.0,6762abbea62dc4c2acf59fe0,6796e1c0ff24ca17c453c51c,67c715ba04b522cea8f2ad0a,536.0,j,ballFalling,500.0,479.9211431702998,330.87,6.0,fallScene,True,mid,3000.0,499.0,300.0,500.0,520.0788568297003,501.0,False
6762abbea62dc4c2acf59fe0_result,25.0,6762abbea62dc4c2acf59fe0,6796e1c0ff24ca17c453c51c,67c715ba04b522cea8f2ad0a,421.0,j,ballFalling,322.3,296.07114317029976,371.46,3.0,fallScene,True,lp,3000.0,321.3,287.3327096511259,677.7,703.9288568297002,678.7,False
6762abbea62dc4c2acf59fe0_result,26.0,6762abbea62dc4c2acf59fe0,6796e1c0ff24ca17c453c51c,67c715ba04b522cea8f2ad0a,518.0,j,ballFalling,604.4000000000001,650.0211431702996,404.58,11.0,fallScene,False,gt,3000.0,650.0211431702996,404.58,604.4000000000001,650.0211431702996,650.0211431702996,True
6762abbea62dc4c2acf59fe0_result,27.0,6762abbea62dc4c2acf59fe0,6796e1c0ff24ca17c453c51c,67c715ba04b522cea8f2ad0a,,,ballFalling,322.3,356.42114317029973,357.87,4.0,fallScene,False,lp,3000.0,323.3,297.4070551689986,322.3,356.42114317029973,323.3,
6762abbea62dc4c2acf59fe0_result,28.0,6762abbea62dc4c2acf59fe0,6796e1c0ff24ca17c453c51c,67c715ba04b522cea8f2ad0a,,,ballFalling,500.0,553.4711431702997,282.51,7.0,fallScene,False,lp,3000.0,501.0,227.2843295913261,500.0,553.4711431702997,501.0,
6762abbea62dc4c2acf59fe0_result,29.0,6762abbea62dc4c2acf59fe0,6796e1c0ff24ca17c453c51c,67c715ba04b522cea8f2ad0a,,,ballFalling,500.0,553.4711431702997,282.51,7.0,fallScene,True,lp,3000.0,501.0,227.2843295913261,500.0,446.5288568297003,499.0,
6762abbea62dc4c2acf59fe0_result,30.0,6762abbea62dc4c2acf59fe0,6796e1c0ff24ca17c453c51c,67c715ba04b522cea8f2ad0a,533.0,j,ballFalling,604.4000000000001,575.4211431702997,266.76,12.0,fallScene,True,lp,3000.0,603.4000000000001,151.0,395.5999999999999,424.57885682970027,396.5999999999999,False
6762abbea62dc4c2acf59fe0_result,31.0,6762abbea62dc4c2acf59fe0,6796e1c0ff24ca17c453c51c,67c715ba04b522cea8f2ad0a,515.0,j,ballFalling,322.3,379.3711431702997,245.25,1.0,fallScene,False,lp,3000.0,323.3,217.74551669457017,322.3,379.3711431702997,323.3,False
6762abbea62dc4c2acf59fe0_result,32.0,6762abbea62dc4c2acf59fe0,6796e1c0ff24ca17c453c51c,67c715ba04b522cea8f2ad0a,971.0,f,ballFalling,322.3,379.3711431702997,245.25,1.0,fallScene,False,lp,3000.0,323.3,217.74551669457017,322.3,379.3711431702997,323.3,True
6762abbea62dc4c2acf59fe0_result,33.0,6762abbea62dc4c2acf59fe0,6796e1c0ff24ca17c453c51c,67c715ba04b522cea8f2ad0a,178.0,j,ballFalling,322.3,296.07114317029976,371.46,3.0,fallScene,True,gt,3000.0,296.07114317029976,371.46,677.7,703.9288568297002,703.9288568297002,True
6762abbea62dc4c2acf59fe0_result,34.0,6762abbea62dc4c2acf59fe0,6796e1c0ff24ca17c453c51c,67c715ba04b522cea8f2ad0a,1357.0,j,ballFalling,604.4000000000001,596.8711431702998,394.5,10.0,fallScene,False,gt,3000.0,596.8711431702998,394.5,604.4000000000001,596.8711431702998,596.8711431702998,True
6762abbea62dc4c2acf59fe0_result,35.0,6762abbea62dc4c2acf59fe0,6796e1c0ff24ca17c453c51c,67c715ba04b522cea8f2ad0a,641.0,j,ballFalling,322.3,296.07114317029976,371.46,3.0,fallScene,False,mid,3000.0,321.3,300.0,322.3,296.07114317029976,321.3,False
6762abbea62dc4c2acf59fe0_result,36.0,6762abbea62dc4c2acf59fe0,6796e1c0ff24ca17c453c51c,67c715ba04b522cea8f2ad0a,786.0,f,ballFalling,604.4000000000001,650.0211431702996,404.58,11.0,fallScene,False,lp,3000.0,605.4000000000001,372.6340973215488,604.4000000000001,650.0211431702996,605.4000000000001,True
6762abbea62dc4c2acf59fe0_result,37.0,6762abbea62dc4c2acf59fe0,6796e1c0ff24ca17c453c51c,67c715ba04b522cea8f2ad0a,661.0,j,ballFalling,604.4000000000001,650.0211431702996,404.58,11.0,fallScene,True,mid,3000.0,605.4000000000001,300.0,395.5999999999999,349.97885682970036,394.5999999999999,False
6762abbea62dc4c2acf59fe0_result,38.0,6762abbea62dc4c2acf59fe0,6796e1c0ff24ca17c453c51c,67c715ba04b522cea8f2ad0a,882.0,j,ballFalling,322.3,296.07114317029976,371.46,3.0,fallScene,True,mid,3000.0,321.3,300.0,677.7,703.9288568297002,678.7,False
6762abbea62dc4c2acf59fe0_result,39.0,6762abbea62dc4c2acf59fe0,6796e1c0ff24ca17c453c51c,67c715ba04b522cea8f2ad0a,610.0,f,ballFalling,500.0,510.8711431702997,369.03,8.0,fallScene,False,gt,3000.0,510.8711431702997,369.03,500.0,510.8711431702997,510.8711431702997,False
6762abbea62dc4c2acf59fe0_result,40.0,6762abbea62dc4c2acf59fe0,6796e1c0ff24ca17c453c51c,67c715ba04b522cea8f2ad0a,1233.0,j,ballFalling,322.3,379.3711431702997,245.25,1.0,fallScene,True,gt,3000.0,379.3711431702997,245.25,677.7,620.6288568297002,620.6288568297002,True
6762abbea62dc4c2acf59fe0_result,41.0,6762abbea62dc4c2acf59fe0,6796e1c0ff24ca17c453c51c,67c715ba04b522cea8f2ad0a,1089.0,f,ballFalling,604.4000000000001,667.6211431702998,201.78,9.0,fallScene,False,lp,3000.0,605.4000000000001,151.0,604.4000000000001,667.6211431702998,605.4000000000001,True
6762abbea62dc4c2acf59fe0_result,42.0,6762abbea62dc4c2acf59fe0,6796e1c0ff24ca17c453c51c,67c715ba04b522cea8f2ad0a,798.0,f,ballFalling,604.4000000000001,667.6211431702998,201.78,9.0,fallScene,False,lp,3000.0,605.4000000000001,151.0,604.4000000000001,667.6211431702998,605.4000000000001,True
6762abbea62dc4c2acf59fe0_result,43.0,6762abbea62dc4c2acf59fe0,6796e1c0ff24ca17c453c51c,67c715ba04b522cea8f2ad0a,1132.0,f,ballFalling,604.4000000000001,596.8711431702998,394.5,10.0,fallScene,True,mid,3000.0,536.4288568297004,300.0,395.5999999999999,403.1288568297002,463.5711431702996,True
6762abbea62dc4c2acf59fe0_result,44.0,6762abbea62dc4c2acf59fe0,6796e1c0ff24ca17c453c51c,67c715ba04b522cea8f2ad0a,794.0,j,ballFalling,604.4000000000001,667.6211431702998,201.78,9.0,fallScene,False,gt,3000.0,667.6211431702998,201.78,604.4000000000001,667.6211431702998,667.6211431702998,True
6762abbea62dc4c2acf59fe0_result,45.0,6762abbea62dc4c2acf59fe0,6796e1c0ff24ca17c453c51c,67c715ba04b522cea8f2ad0a,717.0,j,ballFalling,604.4000000000001,667.6211431702998,201.78,9.0,fallScene,False,mid,3000.0,605.4000000000001,300.0,604.4000000000001,667.6211431702998,605.4000000000001,False
6762abbea62dc4c2acf59fe0_result,46.0,6762abbea62dc4c2acf59fe0,6796e1c0ff24ca17c453c51c,67c715ba04b522cea8f2ad0a,408.0,j,ballFalling,604.4000000000001,575.4211431702997,266.76,12.0,fallScene,True,lp,3000.0,603.4000000000001,151.0,395.5999999999999,424.57885682970027,396.5999999999999,False
6762abbea62dc4c2acf59fe0_result,47.0,6762abbea62dc4c2acf59fe0,6796e1c0ff24ca17c453c51c,67c715ba04b522cea8f2ad0a,617.0,f,ballFalling,322.3,308.07114317029976,253.89,2.0,fallScene,False,mid,3000.0,321.3,300.0,322.3,308.07114317029976,321.3,True
6762abbea62dc4c2acf59fe0_result,48.0,6762abbea62dc4c2acf59fe0,6796e1c0ff24ca17c453c51c,67c715ba04b522cea8f2ad0a,488.0,j,ballFalling,500.0,453.6711431702998,210.33,5.0,fallScene,True,gt,3000.0,453.6711431702998,210.33,500.0,546.3288568297003,546.3288568297003,True
6762abbea62dc4c2acf59fe0_result,49.0,6762abbea62dc4c2acf59fe0,6796e1c0ff24ca17c453c51c,67c715ba04b522cea8f2ad0a,580.0,f,ballFalling,322.3,296.07114317029976,371.46,3.0,fallScene,True,mid,700.0,321.3,300.0,677.7,703.9288568297002,678.7,True
6762abbea62dc4c2acf59fe0_result,50.0,6762abbea62dc4c2acf59fe0,6796e1c0ff24ca17c453c51c,67c715ba04b522cea8f2ad0a,,,ballFalling,500.0,453.6711431702998,210.33,5.0,fallScene,False,lp,700.0,499.0,151.0,500.0,453.6711431702998,499.0,
6762abbea62dc4c2acf59fe0_result,51.0,6762abbea62dc4c2acf59fe0,6796e1c0ff24ca17c453c51c,67c715ba04b522cea8f2ad0a,435.0,f,ballFalling,322.3,296.07114317029976,371.46,3.0,fallScene,True,gt,700.0,296.07114317029976,371.46,677.7,703.9288568297002,703.9288568297002,False
6762abbea62dc4c2acf59fe0_result,52.0,6762abbea62dc4c2acf59fe0,6796e1c0ff24ca17c453c51c,67c715ba04b522cea8f2ad0a,,,ballFalling,604.4000000000001,596.8711431702998,394.5,10.0,fallScene,False,lp,700.0,603.4000000000001,215.50214355555383,604.4000000000001,596.8711431702998,603.4000000000001,
6762abbea62dc4c2acf59fe0_result,53.0,6762abbea62dc4c2acf59fe0,6796e1c0ff24ca17c453c51c,67c715ba04b522cea8f2ad0a,,,ballFalling,604.4000000000001,596.8711431702998,394.5,10.0,fallScene,False,lp,700.0,603.4000000000001,215.50214355555383,604.4000000000001,596.8711431702998,603.4000000000001,
6762abbea62dc4c2acf59fe0_result,54.0,6762abbea62dc4c2acf59fe0,6796e1c0ff24ca17c453c51c,67c715ba04b522cea8f2ad0a,554.0,f,ballFalling,322.3,356.42114317029973,357.87,4.0,fallScene,False,mid,700.0,390.27114317029975,300.0,322.3,356.42114317029973,390.27114317029975,True
6762abbea62dc4c2acf59fe0_result,55.0,6762abbea62dc4c2acf59fe0,6796e1c0ff24ca17c453c51c,67c715ba04b522cea8f2ad0a,543.0,j,ballFalling,322.3,379.3711431702997,245.25,1.0,fallScene,True,gt,700.0,379.3711431702997,245.25,677.7,620.6288568297002,620.6288568297002,True
6762abbea62dc4c2acf59fe0_result,56.0,6762abbea62dc4c2acf59fe0,6796e1c0ff24ca17c453c51c,67c715ba04b522cea8f2ad0a,,,ballFalling,322.3,308.07114317029976,253.89,2.0,fallScene,True,lp,700.0,321.3,151.0,677.7,691.9288568297002,678.7,
6762abbea62dc4c2acf59fe0_result,57.0,6762abbea62dc4c2acf59fe0,6796e1c0ff24ca17c453c51c,67c715ba04b522cea8f2ad0a,425.0,f,ballFalling,500.0,479.9211431702998,330.87,6.0,fallScene,True,mid,700.0,499.0,300.0,500.0,520.0788568297003,501.0,True
6762abbea62dc4c2acf59fe0_result,58.0,6762abbea62dc4c2acf59fe0,6796e1c0ff24ca17c453c51c,67c715ba04b522cea8f2ad0a,316.0,j,ballFalling,500.0,553.4711431702997,282.51,7.0,fallScene,False,lp,700.0,501.0,227.2843295913261,500.0,553.4711431702997,501.0,False
6762abbea62dc4c2acf59fe0_result,59.0,6762abbea62dc4c2acf59fe0,6796e1c0ff24ca17c453c51c,67c715ba04b522cea8f2ad0a,662.0,j,ballFalling,322.3,308.07114317029976,253.89,2.0,fallScene,True,mid,700.0,321.3,300.0,677.7,691.9288568297002,678.7,False
6762abbea62dc4c2acf59fe0_result,60.0,6762abbea62dc4c2acf59fe0,6796e1c0ff24ca17c453c51c,67c715ba04b522cea8f2ad0a,402.0,j,ballFalling,322.3,296.07114317029976,371.46,3.0,fallScene,False,gt,700.0,296.07114317029976,371.46,322.3,296.07114317029976,296.07114317029976,True
6762abbea62dc4c2acf59fe0_result,61.0,6762abbea62dc4c2acf59fe0,6796e1c0ff24ca17c453c51c,67c715ba04b522cea8f2ad0a,510.0,f,ballFalling,500.0,510.8711431702997,369.03,8.0,fallScene,True,mid,700.0,501.0,300.0,500.0,489.1288568297003,499.0,True
6762abbea62dc4c2acf59fe0_result,62.0,6762abbea62dc4c2acf59fe0,6796e1c0ff24ca17c453c51c,67c715ba04b522cea8f2ad0a,342.0,j,ballFalling,322.3,308.07114317029976,253.89,2.0,fallScene,True,lp,700.0,321.3,151.0,677.7,691.9288568297002,678.7,False
6762abbea62dc4c2acf59fe0_result,63.0,6762abbea62dc4c2acf59fe0,6796e1c0ff24ca17c453c51c,67c715ba04b522cea8f2ad0a,17.0,f,ballFalling,500.0,510.8711431702997,369.03,8.0,fallScene,True,lp,700.0,501.0,151.0,500.0,489.1288568297003,499.0,True
6762abbea62dc4c2acf59fe0_result,64.0,6762abbea62dc4c2acf59fe0,6796e1c0ff24ca17c453c51c,67c715ba04b522cea8f2ad0a,311.0,j,ballFalling,500.0,479.9211431702998,330.87,6.0,fallScene,False,gt,700.0,479.9211431702998,330.87,500.0,479.9211431702998,479.9211431702998,True
6762abbea62dc4c2acf59fe0_result,65.0,6762abbea62dc4c2acf59fe0,6796e1c0ff24ca17c453c51c,67c715ba04b522cea8f2ad0a,315.0,f,ballFalling,604.4000000000001,667.6211431702998,201.78,9.0,fallScene,True,gt,700.0,667.6211431702998,201.78,395.5999999999999,332.3788568297002,332.3788568297002,False
6762abbea62dc4c2acf59fe0_result,66.0,6762abbea62dc4c2acf59fe0,6796e1c0ff24ca17c453c51c,67c715ba04b522cea8f2ad0a,328.0,j,ballFalling,500.0,479.9211431702998,330.87,6.0,fallScene,False,gt,700.0,479.9211431702998,330.87,500.0,479.9211431702998,479.9211431702998,True
6762abbea62dc4c2acf59fe0_result,67.0,6762abbea62dc4c2acf59fe0,6796e1c0ff24ca17c453c51c,67c715ba04b522cea8f2ad0a,380.0,j,ballFalling,500.0,553.4711431702997,282.51,7.0,fallScene,True,gt,700.0,553.4711431702997,282.51,500.0,446.5288568297003,446.5288568297003,True
6762abbea62dc4c2acf59fe0_result,68.0,6762abbea62dc4c2acf59fe0,6796e1c0ff24ca17c453c51c,67c715ba04b522cea8f2ad0a,,,ballFalling,322.3,296.07114317029976,371.46,3.0,fallScene,True,mid,700.0,321.3,300.0,677.7,703.9288568297002,678.7,
6762abbea62dc4c2acf59fe0_result,69.0,6762abbea62dc4c2acf59fe0,6796e1c0ff24ca17c453c51c,67c715ba04b522cea8f2ad0a,364.0,f,ballFalling,500.0,453.6711431702998,210.33,5.0,fallScene,True,mid,700.0,499.0,300.0,500.0,546.3288568297003,501.0,True
6762abbea62dc4c2acf59fe0_result,70.0,6762abbea62dc4c2acf59fe0,6796e1c0ff24ca17c453c51c,67c715ba04b522cea8f2ad0a,111.0,j,ballFalling,500.0,553.4711431702997,282.51,7.0,fallScene,True,mid,700.0,501.0,300.0,500.0,446.5288568297003,499.0,False
6762abbea62dc4c2acf59fe0_result,71.0,6762abbea62dc4c2acf59fe0,6796e1c0ff24ca17c453c51c,67c715ba04b522cea8f2ad0a,265.0,j,ballFalling,604.4000000000001,650.0211431702996,404.58,11.0,fallScene,True,mid,700.0,605.4000000000001,300.0,395.5999999999999,349.97885682970036,394.5999999999999,False
6762abbea62dc4c2acf59fe0_result,72.0,6762abbea62dc4c2acf59fe0,6796e1c0ff24ca17c453c51c,67c715ba04b522cea8f2ad0a,106.0,j,ballFalling,322.3,356.42114317029973,357.87,4.0,fallScene,False,gt,700.0,356.42114317029973,357.87,322.3,356.42114317029973,356.42114317029973,True
6762abbea62dc4c2acf59fe0_result,73.0,6762abbea62dc4c2acf59fe0,6796e1c0ff24ca17c453c51c,67c715ba04b522cea8f2ad0a,,,ballFalling,604.4000000000001,596.8711431702998,394.5,10.0,fallScene,True,gt,700.0,596.8711431702998,394.5,395.5999999999999,403.1288568297002,403.1288568297002,
6762abbea62dc4c2acf59fe0_result,74.0,6762abbea62dc4c2acf59fe0,6796e1c0ff24ca17c453c51c,67c715ba04b522cea8f2ad0a,613.0,j,ballFalling,322.3,308.07114317029976,253.89,2.0,fallScene,True,gt,700.0,308.07114317029976,253.89,677.7,691.9288568297002,691.9288568297002,True
6762abbea62dc4c2acf59fe0_result,75.0,6762abbea62dc4c2acf59fe0,6796e1c0ff24ca17c453c51c,67c715ba04b522cea8f2ad0a,,,ballFalling,322.3,296.07114317029976,371.46,3.0,fallScene,False,lp,700.0,321.3,287.3327096511259,322.3,296.07114317029976,321.3,
6762abbea62dc4c2acf59fe0_result,76.0,6762abbea62dc4c2acf59fe0,6796e1c0ff24ca17c453c51c,67c715ba04b522cea8f2ad0a,452.0,j,ballFalling,604.4000000000001,667.6211431702998,201.78,9.0,fallScene,False,gt,700.0,667.6211431702998,201.78,604.4000000000001,667.6211431702998,667.6211431702998,True
6762abbea62dc4c2acf59fe0_result,77.0,6762abbea62dc4c2acf59fe0,6796e1c0ff24ca17c453c51c,67c715ba04b522cea8f2ad0a,475.0,j,ballFalling,500.0,479.9211431702998,330.87,6.0,fallScene,False,mid,700.0,499.0,300.0,500.0,479.9211431702998,499.0,False
6762abbea62dc4c2acf59fe0_result,78.0,6762abbea62dc4c2acf59fe0,6796e1c0ff24ca17c453c51c,67c715ba04b522cea8f2ad0a,306.0,j,ballFalling,322.3,356.42114317029973,357.87,4.0,fallScene,False,mid,700.0,390.27114317029975,300.0,322.3,356.42114317029973,390.27114317029975,False
6762abbea62dc4c2acf59fe0_result,79.0,6762abbea62dc4c2acf59fe0,6796e1c0ff24ca17c453c51c,67c715ba04b522cea8f2ad0a,,,ballFalling,500.0,510.8711431702997,369.03,8.0,fallScene,False,lp,700.0,501.0,151.0,500.0,510.8711431702997,501.0,
6762abbea62dc4c2acf59fe0_result,80.0,6762abbea62dc4c2acf59fe0,6796e1c0ff24ca17c453c51c,67c715ba04b522cea8f2ad0a,375.0,f,ballFalling,322.3,379.3711431702997,245.25,1.0,fallScene,True,mid,700.0,390.27114317029975,300.0,677.7,620.6288568297002,609.7288568297002,True
6762abbea62dc4c2acf59fe0_result,81.0,6762abbea62dc4c2acf59fe0,6796e1c0ff24ca17c453c51c,67c715ba04b522cea8f2ad0a,528.0,j,ballFalling,500.0,453.6711431702998,210.33,5.0,fallScene,False,gt,700.0,453.6711431702998,210.33,500.0,453.6711431702998,453.6711431702998,True
6762abbea62dc4c2acf59fe0_result,82.0,6762abbea62dc4c2acf59fe0,6796e1c0ff24ca17c453c51c,67c715ba04b522cea8f2ad0a,,,ballFalling,604.4000000000001,667.6211431702998,201.78,9.0,fallScene,True,mid,700.0,605.4000000000001,300.0,395.5999999999999,332.3788568297002,394.5999999999999,
6762abbea62dc4c2acf59fe0_result,83.0,6762abbea62dc4c2acf59fe0,6796e1c0ff24ca17c453c51c,67c715ba04b522cea8f2ad0a,,,ballFalling,500.0,553.4711431702997,282.51,7.0,fallScene,False,gt,700.0,553.4711431702997,282.51,500.0,553.4711431702997,553.4711431702997,
6762abbea62dc4c2acf59fe0_result,84.0,6762abbea62dc4c2acf59fe0,6796e1c0ff24ca17c453c51c,67c715ba04b522cea8f2ad0a,442.0,j,ballFalling,604.4000000000001,575.4211431702997,266.76,12.0,fallScene,False,mid,700.0,536.4288568297004,300.0,604.4000000000001,575.4211431702997,536.4288568297004,False
6762abbea62dc4c2acf59fe0_result,85.0,6762abbea62dc4c2acf59fe0,6796e1c0ff24ca17c453c51c,67c715ba04b522cea8f2ad0a,551.0,j,ballFalling,604.4000000000001,575.4211431702997,266.76,12.0,fallScene,True,lp,700.0,603.4000000000001,151.0,395.5999999999999,424.57885682970027,396.5999999999999,False
6762abbea62dc4c2acf59fe0_result,86.0,6762abbea62dc4c2acf59fe0,6796e1c0ff24ca17c453c51c,67c715ba04b522cea8f2ad0a,252.0,j,ballFalling,322.3,379.3711431702997,245.25,1.0,fallScene,False,lp,700.0,323.3,217.74551669457017,322.3,379.3711431702997,323.3,False
6762abbea62dc4c2acf59fe0_result,87.0,6762abbea62dc4c2acf59fe0,6796e1c0ff24ca17c453c51c,67c715ba04b522cea8f2ad0a,382.0,j,ballFalling,500.0,510.8711431702997,369.03,8.0,fallScene,True,gt,700.0,510.8711431702997,369.03,500.0,489.1288568297003,489.1288568297003,True
6762abbea62dc4c2acf59fe0_result,88.0,6762abbea62dc4c2acf59fe0,6796e1c0ff24ca17c453c51c,67c715ba04b522cea8f2ad0a,,,ballFalling,604.4000000000001,575.4211431702997,266.76,12.0,fallScene,True,lp,700.0,603.4000000000001,151.0,395.5999999999999,424.57885682970027,396.5999999999999,
6762abbea62dc4c2acf59fe0_result,89.0,6762abbea62dc4c2acf59fe0,6796e1c0ff24ca17c453c51c,67c715ba04b522cea8f2ad0a,491.0,f,ballFalling,322.3,379.3711431702997,245.25,1.0,fallScene,False,lp,700.0,323.3,217.74551669457017,322.3,379.3711431702997,323.3,True
6762abbea62dc4c2acf59fe0_result,90.0,6762abbea62dc4c2acf59fe0,6796e1c0ff24ca17c453c51c,67c715ba04b522cea8f2ad0a,453.0,j,ballFalling,322.3,296.07114317029976,371.46,3.0,fallScene,False,lp,700.0,321.3,287.3327096511259,322.3,296.07114317029976,321.3,False
6762abbea62dc4c2acf59fe0_result,91.0,6762abbea62dc4c2acf59fe0,6796e1c0ff24ca17c453c51c,67c715ba04b522cea8f2ad0a,14.0,j,ballFalling,500.0,479.9211431702998,330.87,6.0,fallScene,False,lp,700.0,499.0,189.92909825697632,500.0,479.9211431702998,499.0,False
6762abbea62dc4c2acf59fe0_result,92.0,6762abbea62dc4c2acf59fe0,6796e1c0ff24ca17c453c51c,67c715ba04b522cea8f2ad0a,,,ballFalling,604.4000000000001,667.6211431702998,201.78,9.0,fallScene,True,lp,700.0,605.4000000000001,151.0,395.5999999999999,332.3788568297002,394.5999999999999,
6762abbea62dc4c2acf59fe0_result,93.0,6762abbea62dc4c2acf59fe0,6796e1c0ff24ca17c453c51c,67c715ba04b522cea8f2ad0a,432.0,f,ballFalling,604.4000000000001,667.6211431702998,201.78,9.0,fallScene,True,lp,700.0,605.4000000000001,151.0,395.5999999999999,332.3788568297002,394.5999999999999,True
6762abbea62dc4c2acf59fe0_result,94.0,6762abbea62dc4c2acf59fe0,6796e1c0ff24ca17c453c51c,67c715ba04b522cea8f2ad0a,,,ballFalling,604.4000000000001,596.8711431702998,394.5,10.0,fallScene,True,gt,700.0,596.8711431702998,394.5,395.5999999999999,403.1288568297002,403.1288568297002,
6762abbea62dc4c2acf59fe0_result,95.0,6762abbea62dc4c2acf59fe0,6796e1c0ff24ca17c453c51c,67c715ba04b522cea8f2ad0a,549.0,j,ballFalling,500.0,453.6711431702998,210.33,5.0,fallScene,False,mid,700.0,499.0,300.0,500.0,453.6711431702998,499.0,False
6762abbea62dc4c2acf59fe0_result,96.0,6762abbea62dc4c2acf59fe0,6796e1c0ff24ca17c453c51c,67c715ba04b522cea8f2ad0a,,,ballFalling,322.3,356.42114317029973,357.87,4.0,fallScene,False,lp,700.0,323.3,297.4070551689986,322.3,356.42114317029973,323.3,
6762abbea62dc4c2acf59fe0_result,97.0,6762abbea62dc4c2acf59fe0,6796e1c0ff24ca17c453c51c,67c715ba04b522cea8f2ad0a,,,ballFalling,322.3,308.07114317029976,253.89,2.0,fallScene,True,gt,3000.0,308.07114317029976,253.89,677.7,691.9288568297002,691.9288568297002,
6762abbea62dc4c2acf59fe0_result,98.0,6762abbea62dc4c2acf59fe0,6796e1c0ff24ca17c453c51c,67c715ba04b522cea8f2ad0a,599.0,j,ballFalling,604.4000000000001,596.8711431702998,394.5,10.0,fallScene,False,gt,3000.0,596.8711431702998,394.5,604.4000000000001,596.8711431702998,596.8711431702998,True
6762abbea62dc4c2acf59fe0_result,99.0,6762abbea62dc4c2acf59fe0,6796e1c0ff24ca17c453c51c,67c715ba04b522cea8f2ad0a,656.0,j,ballFalling,500.0,453.6711431702998,210.33,5.0,fallScene,False,gt,3000.0,453.6711431702998,210.33,500.0,453.6711431702998,453.6711431702998,True
6762abbea62dc4c2acf59fe0_result,100.0,6762abbea62dc4c2acf59fe0,6796e1c0ff24ca17c453c51c,67c715ba04b522cea8f2ad0a,366.0,j,ballFalling,500.0,479.9211431702998,330.87,6.0,fallScene,False,lp,3000.0,499.0,189.92909825697632,500.0,479.9211431702998,499.0,False
6762abbea62dc4c2acf59fe0_result,101.0,6762abbea62dc4c2acf59fe0,6796e1c0ff24ca17c453c51c,67c715ba04b522cea8f2ad0a,454.0,j,ballFalling,500.0,553.4711431702997,282.51,7.0,fallScene,False,gt,3000.0,553.4711431702997,282.51,500.0,553.4711431702997,553.4711431702997,True
6762abbea62dc4c2acf59fe0_result,102.0,6762abbea62dc4c2acf59fe0,6796e1c0ff24ca17c453c51c,67c715ba04b522cea8f2ad0a,371.0,j,ballFalling,500.0,453.6711431702998,210.33,5.0,fallScene,True,lp,3000.0,499.0,151.0,500.0,546.3288568297003,501.0,False
6762abbea62dc4c2acf59fe0_result,103.0,6762abbea62dc4c2acf59fe0,6796e1c0ff24ca17c453c51c,67c715ba04b522cea8f2ad0a,174.0,f,ballFalling,322.3,308.07114317029976,253.89,2.0,fallScene,True,gt,3000.0,308.07114317029976,253.89,677.7,691.9288568297002,691.9288568297002,False
6762abbea62dc4c2acf59fe0_result,104.0,6762abbea62dc4c2acf59fe0,6796e1c0ff24ca17c453c51c,67c715ba04b522cea8f2ad0a,344.0,f,ballFalling,604.4000000000001,575.4211431702997,266.76,12.0,fallScene,False,gt,3000.0,575.4211431702997,266.76,604.4000000000001,575.4211431702997,575.4211431702997,False
6762abbea62dc4c2acf59fe0_result,105.0,6762abbea62dc4c2acf59fe0,6796e1c0ff24ca17c453c51c,67c715ba04b522cea8f2ad0a,306.0,f,ballFalling,604.4000000000001,596.8711431702998,394.5,10.0,fallScene,False,lp,3000.0,603.4000000000001,215.50214355555383,604.4000000000001,596.8711431702998,603.4000000000001,True
6762abbea62dc4c2acf59fe0_result,106.0,6762abbea62dc4c2acf59fe0,6796e1c0ff24ca17c453c51c,67c715ba04b522cea8f2ad0a,343.0,j,ballFalling,500.0,553.4711431702997,282.51,7.0,fallScene,True,mid,3000.0,501.0,300.0,500.0,446.5288568297003,499.0,False
6762abbea62dc4c2acf59fe0_result,107.0,6762abbea62dc4c2acf59fe0,6796e1c0ff24ca17c453c51c,67c715ba04b522cea8f2ad0a,446.0,j,ballFalling,604.4000000000001,575.4211431702997,266.76,12.0,fallScene,False,gt,3000.0,575.4211431702997,266.76,604.4000000000001,575.4211431702997,575.4211431702997,True
6762abbea62dc4c2acf59fe0_result,108.0,6762abbea62dc4c2acf59fe0,6796e1c0ff24ca17c453c51c,67c715ba04b522cea8f2ad0a,358.0,j,ballFalling,604.4000000000001,650.0211431702996,404.58,11.0,fallScene,True,lp,3000.0,605.4000000000001,372.6340973215488,395.5999999999999,349.97885682970036,394.5999999999999,False
6762abbea62dc4c2acf59fe0_result,109.0,6762abbea62dc4c2acf59fe0,6796e1c0ff24ca17c453c51c,67c715ba04b522cea8f2ad0a,298.0,j,ballFalling,322.3,379.3711431702997,245.25,1.0,fallScene,True,mid,3000.0,390.27114317029975,300.0,677.7,620.6288568297002,609.7288568297002,False
6762abbea62dc4c2acf59fe0_result,110.0,6762abbea62dc4c2acf59fe0,6796e1c0ff24ca17c453c51c,67c715ba04b522cea8f2ad0a,408.0,j,ballFalling,322.3,356.42114317029973,357.87,4.0,fallScene,True,lp,3000.0,323.3,297.4070551689986,677.7,643.5788568297003,676.7,False
6762abbea62dc4c2acf59fe0_result,111.0,6762abbea62dc4c2acf59fe0,6796e1c0ff24ca17c453c51c,67c715ba04b522cea8f2ad0a,197.0,j,ballFalling,500.0,479.9211431702998,330.87,6.0,fallScene,False,mid,3000.0,499.0,300.0,500.0,479.9211431702998,499.0,False
6762abbea62dc4c2acf59fe0_result,112.0,6762abbea62dc4c2acf59fe0,6796e1c0ff24ca17c453c51c,67c715ba04b522cea8f2ad0a,365.0,f,ballFalling,322.3,356.42114317029973,357.87,4.0,fallScene,False,mid,3000.0,390.27114317029975,300.0,322.3,356.42114317029973,390.27114317029975,True
6762abbea62dc4c2acf59fe0_result,113.0,6762abbea62dc4c2acf59fe0,6796e1c0ff24ca17c453c51c,67c715ba04b522cea8f2ad0a,371.0,j,ballFalling,604.4000000000001,575.4211431702997,266.76,12.0,fallScene,False,mid,3000.0,536.4288568297004,300.0,604.4000000000001,575.4211431702997,536.4288568297004,False
6762abbea62dc4c2acf59fe0_result,114.0,6762abbea62dc4c2acf59fe0,6796e1c0ff24ca17c453c51c,67c715ba04b522cea8f2ad0a,590.0,j,ballFalling,322.3,296.07114317029976,371.46,3.0,fallScene,True,gt,3000.0,296.07114317029976,371.46,677.7,703.9288568297002,703.9288568297002,True
6762abbea62dc4c2acf59fe0_result,115.0,6762abbea62dc4c2acf59fe0,6796e1c0ff24ca17c453c51c,67c715ba04b522cea8f2ad0a,687.0,j,ballFalling,500.0,510.8711431702997,369.03,8.0,fallScene,True,mid,3000.0,501.0,300.0,500.0,489.1288568297003,499.0,False
6762abbea62dc4c2acf59fe0_result,116.0,6762abbea62dc4c2acf59fe0,6796e1c0ff24ca17c453c51c,67c715ba04b522cea8f2ad0a,469.0,j,ballFalling,322.3,379.3711431702997,245.25,1.0,fallScene,False,mid,3000.0,390.27114317029975,300.0,322.3,379.3711431702997,390.27114317029975,False
6762abbea62dc4c2acf59fe0_result,117.0,6762abbea62dc4c2acf59fe0,6796e1c0ff24ca17c453c51c,67c715ba04b522cea8f2ad0a,795.0,j,ballFalling,604.4000000000001,596.8711431702998,394.5,10.0,fallScene,True,mid,3000.0,536.4288568297004,300.0,395.5999999999999,403.1288568297002,463.5711431702996,False
6762abbea62dc4c2acf59fe0_result,118.0,6762abbea62dc4c2acf59fe0,6796e1c0ff24ca17c453c51c,67c715ba04b522cea8f2ad0a,745.0,j,ballFalling,500.0,553.4711431702997,282.51,7.0,fallScene,False,gt,3000.0,553.4711431702997,282.51,500.0,553.4711431702997,553.4711431702997,True
6762abbea62dc4c2acf59fe0_result,119.0,6762abbea62dc4c2acf59fe0,6796e1c0ff24ca17c453c51c,67c715ba04b522cea8f2ad0a,647.0,f,ballFalling,322.3,308.07114317029976,253.89,2.0,fallScene,True,mid,3000.0,321.3,300.0,677.7,691.9288568297002,678.7,True
6762abbea62dc4c2acf59fe0_result,120.0,6762abbea62dc4c2acf59fe0,6796e1c0ff24ca17c453c51c,67c715ba04b522cea8f2ad0a,537.0,j,ballFalling,322.3,379.3711431702997,245.25,1.0,fallScene,True,gt,3000.0,379.3711431702997,245.25,677.7,620.6288568297002,620.6288568297002,True
6762abbea62dc4c2acf59fe0_result,121.0,6762abbea62dc4c2acf59fe0,6796e1c0ff24ca17c453c51c,67c715ba04b522cea8f2ad0a,476.0,j,ballFalling,604.4000000000001,650.0211431702996,404.58,11.0,fallScene,True,mid,700.0,605.4000000000001,300.0,395.5999999999999,349.97885682970036,394.5999999999999,False
6762abbea62dc4c2acf59fe0_result,122.0,6762abbea62dc4c2acf59fe0,6796e1c0ff24ca17c453c51c,67c715ba04b522cea8f2ad0a,,,ballFalling,322.3,356.42114317029973,357.87,4.0,fallScene,False,gt,700.0,356.42114317029973,357.87,322.3,356.42114317029973,356.42114317029973,
6762abbea62dc4c2acf59fe0_result,123.0,6762abbea62dc4c2acf59fe0,6796e1c0ff24ca17c453c51c,67c715ba04b522cea8f2ad0a,120.0,j,ballFalling,604.4000000000001,650.0211431702996,404.58,11.0,fallScene,True,gt,700.0,650.0211431702996,404.58,395.5999999999999,349.97885682970036,349.97885682970036,True
6762abbea62dc4c2acf59fe0_result,124.0,6762abbea62dc4c2acf59fe0,6796e1c0ff24ca17c453c51c,67c715ba04b522cea8f2ad0a,442.0,j,ballFalling,500.0,510.8711431702997,369.03,8.0,fallScene,True,gt,700.0,510.8711431702997,369.03,500.0,489.1288568297003,489.1288568297003,True
6762abbea62dc4c2acf59fe0_result,125.0,6762abbea62dc4c2acf59fe0,6796e1c0ff24ca17c453c51c,67c715ba04b522cea8f2ad0a,354.0,f,ballFalling,500.0,510.8711431702997,369.03,8.0,fallScene,False,mid,700.0,501.0,300.0,500.0,510.8711431702997,501.0,True
6762abbea62dc4c2acf59fe0_result,126.0,6762abbea62dc4c2acf59fe0,6796e1c0ff24ca17c453c51c,67c715ba04b522cea8f2ad0a,289.0,j,ballFalling,500.0,553.4711431702997,282.51,7.0,fallScene,True,mid,700.0,501.0,300.0,500.0,446.5288568297003,499.0,False
6762abbea62dc4c2acf59fe0_result,127.0,6762abbea62dc4c2acf59fe0,6796e1c0ff24ca17c453c51c,67c715ba04b522cea8f2ad0a,319.0,f,ballFalling,604.4000000000001,596.8711431702998,394.5,10.0,fallScene,False,mid,700.0,536.4288568297004,300.0,604.4000000000001,596.8711431702998,536.4288568297004,True
6762abbea62dc4c2acf59fe0_result,128.0,6762abbea62dc4c2acf59fe0,6796e1c0ff24ca17c453c51c,67c715ba04b522cea8f2ad0a,85.0,j,ballFalling,604.4000000000001,575.4211431702997,266.76,12.0,fallScene,False,gt,700.0,575.4211431702997,266.76,604.4000000000001,575.4211431702997,575.4211431702997,True
6762abbea62dc4c2acf59fe0_result,129.0,6762abbea62dc4c2acf59fe0,6796e1c0ff24ca17c453c51c,67c715ba04b522cea8f2ad0a,332.0,j,ballFalling,604.4000000000001,650.0211431702996,404.58,11.0,fallScene,False,lp,700.0,605.4000000000001,372.6340973215488,604.4000000000001,650.0211431702996,605.4000000000001,False
6762abbea62dc4c2acf59fe0_result,130.0,6762abbea62dc4c2acf59fe0,6796e1c0ff24ca17c453c51c,67c715ba04b522cea8f2ad0a,,,ballFalling,322.3,379.3711431702997,245.25,1.0,fallScene,True,gt,700.0,379.3711431702997,245.25,677.7,620.6288568297002,620.6288568297002,
6762abbea62dc4c2acf59fe0_result,131.0,6762abbea62dc4c2acf59fe0,6796e1c0ff24ca17c453c51c,67c715ba04b522cea8f2ad0a,177.0,f,ballFalling,322.3,308.07114317029976,253.89,2.0,fallScene,False,mid,700.0,321.3,300.0,322.3,308.07114317029976,321.3,True
6762abbea62dc4c2acf59fe0_result,132.0,6762abbea62dc4c2acf59fe0,6796e1c0ff24ca17c453c51c,67c715ba04b522cea8f2ad0a,433.0,j,ballFalling,604.4000000000001,575.4211431702997,266.76,12.0,fallScene,True,mid,700.0,536.4288568297004,300.0,395.5999999999999,424.57885682970027,463.5711431702996,False
6762abbea62dc4c2acf59fe0_result,133.0,6762abbea62dc4c2acf59fe0,6796e1c0ff24ca17c453c51c,67c715ba04b522cea8f2ad0a,484.0,f,ballFalling,500.0,479.9211431702998,330.87,6.0,fallScene,True,lp,700.0,499.0,189.92909825697632,500.0,520.0788568297003,501.0,True
6762abbea62dc4c2acf59fe0_result,134.0,6762abbea62dc4c2acf59fe0,6796e1c0ff24ca17c453c51c,67c715ba04b522cea8f2ad0a,387.0,f,ballFalling,604.4000000000001,575.4211431702997,266.76,12.0,fallScene,True,gt,700.0,575.4211431702997,266.76,395.5999999999999,424.57885682970027,424.57885682970027,False
6762abbea62dc4c2acf59fe0_result,135.0,6762abbea62dc4c2acf59fe0,6796e1c0ff24ca17c453c51c,67c715ba04b522cea8f2ad0a,,,ballFalling,500.0,453.6711431702998,210.33,5.0,fallScene,True,gt,700.0,453.6711431702998,210.33,500.0,546.3288568297003,546.3288568297003,
6762abbea62dc4c2acf59fe0_result,136.0,6762abbea62dc4c2acf59fe0,6796e1c0ff24ca17c453c51c,67c715ba04b522cea8f2ad0a,,,ballFalling,500.0,553.4711431702997,282.51,7.0,fallScene,True,lp,700.0,501.0,227.2843295913261,500.0,446.5288568297003,499.0,
6762abbea62dc4c2acf59fe0_result,137.0,6762abbea62dc4c2acf59fe0,6796e1c0ff24ca17c453c51c,67c715ba04b522cea8f2ad0a,329.0,f,ballFalling,322.3,379.3711431702997,245.25,1.0,fallScene,True,mid,700.0,390.27114317029975,300.0,677.7,620.6288568297002,609.7288568297002,True
6762abbea62dc4c2acf59fe0_result,138.0,6762abbea62dc4c2acf59fe0,6796e1c0ff24ca17c453c51c,67c715ba04b522cea8f2ad0a,258.0,j,ballFalling,322.3,356.42114317029973,357.87,4.0,fallScene,True,lp,700.0,323.3,297.4070551689986,677.7,643.5788568297003,676.7,False
6762abbea62dc4c2acf59fe0_result,139.0,6762abbea62dc4c2acf59fe0,6796e1c0ff24ca17c453c51c,67c715ba04b522cea8f2ad0a,477.0,j,ballFalling,604.4000000000001,650.0211431702996,404.58,11.0,fallScene,False,gt,700.0,650.0211431702996,404.58,604.4000000000001,650.0211431702996,650.0211431702996,True
6762abbea62dc4c2acf59fe0_result,140.0,6762abbea62dc4c2acf59fe0,6796e1c0ff24ca17c453c51c,67c715ba04b522cea8f2ad0a,,,ballFalling,604.4000000000001,667.6211431702998,201.78,9.0,fallScene,True,mid,700.0,605.4000000000001,300.0,395.5999999999999,332.3788568297002,394.5999999999999,
6762abbea62dc4c2acf59fe0_result,141.0,6762abbea62dc4c2acf59fe0,6796e1c0ff24ca17c453c51c,67c715ba04b522cea8f2ad0a,423.0,j,ballFalling,604.4000000000001,596.8711431702998,394.5,10.0,fallScene,False,mid,700.0,536.4288568297004,300.0,604.4000000000001,596.8711431702998,536.4288568297004,False
6762abbea62dc4c2acf59fe0_result,142.0,6762abbea62dc4c2acf59fe0,6796e1c0ff24ca17c453c51c,67c715ba04b522cea8f2ad0a,410.0,j,ballFalling,500.0,453.6711431702998,210.33,5.0,fallScene,True,lp,700.0,499.0,151.0,500.0,546.3288568297003,501.0,False
6762abbea62dc4c2acf59fe0_result,143.0,6762abbea62dc4c2acf59fe0,6796e1c0ff24ca17c453c51c,67c715ba04b522cea8f2ad0a,495.0,j,ballFalling,322.3,308.07114317029976,253.89,2.0,fallScene,True,gt,700.0,308.07114317029976,253.89,677.7,691.9288568297002,691.9288568297002,True
6762abbea62dc4c2acf59fe0_result,144.0,6762abbea62dc4c2acf59fe0,6796e1c0ff24ca17c453c51c,67c715ba04b522cea8f2ad0a,354.0,j,ballFalling,604.4000000000001,650.0211431702996,404.58,11.0,fallScene,True,lp,700.0,605.4000000000001,372.6340973215488,395.5999999999999,349.97885682970036,394.5999999999999,False
5fd95f2691ac2024f8a883dd_result,1.0,5fd95f2691ac2024f8a883dd,6796e1c0ff24ca17c453c51c,67c70b634e342d44d3e8c7bd,1139.0,f,ballFalling,500.0,453.6711431702998,210.33,5.0,fallScene,True,lp,3000.0,499.0,151.0,500.0,546.3288568297003,501.0,True
5fd95f2691ac2024f8a883dd_result,2.0,5fd95f2691ac2024f8a883dd,6796e1c0ff24ca17c453c51c,67c70b634e342d44d3e8c7bd,1120.0,j,ballFalling,500.0,510.8711431702997,369.03,8.0,fallScene,True,mid,3000.0,501.0,300.0,500.0,489.1288568297003,499.0,False
5fd95f2691ac2024f8a883dd_result,3.0,5fd95f2691ac2024f8a883dd,6796e1c0ff24ca17c453c51c,67c70b634e342d44d3e8c7bd,836.0,f,ballFalling,604.4000000000001,667.6211431702998,201.78,9.0,fallScene,False,lp,3000.0,605.4000000000001,151.0,604.4000000000001,667.6211431702998,605.4000000000001,True
5fd95f2691ac2024f8a883dd_result,4.0,5fd95f2691ac2024f8a883dd,6796e1c0ff24ca17c453c51c,67c70b634e342d44d3e8c7bd,972.0,f,ballFalling,322.3,379.3711431702997,245.25,1.0,fallScene,False,gt,3000.0,379.3711431702997,245.25,322.3,379.3711431702997,379.3711431702997,False
5fd95f2691ac2024f8a883dd_result,5.0,5fd95f2691ac2024f8a883dd,6796e1c0ff24ca17c453c51c,67c70b634e342d44d3e8c7bd,425.0,j,ballFalling,322.3,296.07114317029976,371.46,3.0,fallScene,True,lp,3000.0,321.3,287.3327096511259,677.7,703.9288568297002,678.7,False
5fd95f2691ac2024f8a883dd_result,6.0,5fd95f2691ac2024f8a883dd,6796e1c0ff24ca17c453c51c,67c70b634e342d44d3e8c7bd,986.0,f,ballFalling,322.3,356.42114317029973,357.87,4.0,fallScene,False,gt,3000.0,356.42114317029973,357.87,322.3,356.42114317029973,356.42114317029973,False
5fd95f2691ac2024f8a883dd_result,7.0,5fd95f2691ac2024f8a883dd,6796e1c0ff24ca17c453c51c,67c70b634e342d44d3e8c7bd,792.0,f,ballFalling,322.3,379.3711431702997,245.25,1.0,fallScene,True,lp,3000.0,323.3,217.74551669457017,677.7,620.6288568297002,676.7,True
5fd95f2691ac2024f8a883dd_result,8.0,5fd95f2691ac2024f8a883dd,6796e1c0ff24ca17c453c51c,67c70b634e342d44d3e8c7bd,1366.0,j,ballFalling,500.0,553.4711431702997,282.51,7.0,fallScene,False,gt,3000.0,553.4711431702997,282.51,500.0,553.4711431702997,553.4711431702997,True
5fd95f2691ac2024f8a883dd_result,9.0,5fd95f2691ac2024f8a883dd,6796e1c0ff24ca17c453c51c,67c70b634e342d44d3e8c7bd,601.0,f,ballFalling,604.4000000000001,575.4211431702997,266.76,12.0,fallScene,True,lp,3000.0,603.4000000000001,151.0,395.5999999999999,424.57885682970027,396.5999999999999,True
5fd95f2691ac2024f8a883dd_result,10.0,5fd95f2691ac2024f8a883dd,6796e1c0ff24ca17c453c51c,67c70b634e342d44d3e8c7bd,1031.0,f,ballFalling,322.3,379.3711431702997,245.25,1.0,fallScene,True,mid,3000.0,390.27114317029975,300.0,677.7,620.6288568297002,609.7288568297002,True
5fd95f2691ac2024f8a883dd_result,11.0,5fd95f2691ac2024f8a883dd,6796e1c0ff24ca17c453c51c,67c70b634e342d44d3e8c7bd,1047.0,f,ballFalling,604.4000000000001,650.0211431702996,404.58,11.0,fallScene,True,mid,3000.0,605.4000000000001,300.0,395.5999999999999,349.97885682970036,394.5999999999999,True
5fd95f2691ac2024f8a883dd_result,12.0,5fd95f2691ac2024f8a883dd,6796e1c0ff24ca17c453c51c,67c70b634e342d44d3e8c7bd,602.0,f,ballFalling,322.3,379.3711431702997,245.25,1.0,fallScene,False,lp,3000.0,323.3,217.74551669457017,322.3,379.3711431702997,323.3,True
5fd95f2691ac2024f8a883dd_result,13.0,5fd95f2691ac2024f8a883dd,6796e1c0ff24ca17c453c51c,67c70b634e342d44d3e8c7bd,1418.0,j,ballFalling,604.4000000000001,650.0211431702996,404.58,11.0,fallScene,False,lp,3000.0,605.4000000000001,372.6340973215488,604.4000000000001,650.0211431702996,605.4000000000001,False
5fd95f2691ac2024f8a883dd_result,14.0,5fd95f2691ac2024f8a883dd,6796e1c0ff24ca17c453c51c,67c70b634e342d44d3e8c7bd,900.0,j,ballFalling,500.0,479.9211431702998,330.87,6.0,fallScene,False,gt,3000.0,479.9211431702998,330.87,500.0,479.9211431702998,479.9211431702998,True
5fd95f2691ac2024f8a883dd_result,15.0,5fd95f2691ac2024f8a883dd,6796e1c0ff24ca17c453c51c,67c70b634e342d44d3e8c7bd,1050.0,f,ballFalling,322.3,308.07114317029976,253.89,2.0,fallScene,True,mid,3000.0,321.3,300.0,677.7,691.9288568297002,678.7,True
5fd95f2691ac2024f8a883dd_result,16.0,5fd95f2691ac2024f8a883dd,6796e1c0ff24ca17c453c51c,67c70b634e342d44d3e8c7bd,1026.0,f,ballFalling,500.0,510.8711431702997,369.03,8.0,fallScene,False,lp,3000.0,501.0,151.0,500.0,510.8711431702997,501.0,True
5fd95f2691ac2024f8a883dd_result,17.0,5fd95f2691ac2024f8a883dd,6796e1c0ff24ca17c453c51c,67c70b634e342d44d3e8c7bd,1045.0,f,ballFalling,500.0,453.6711431702998,210.33,5.0,fallScene,True,gt,3000.0,453.6711431702998,210.33,500.0,546.3288568297003,546.3288568297003,False
5fd95f2691ac2024f8a883dd_result,18.0,5fd95f2691ac2024f8a883dd,6796e1c0ff24ca17c453c51c,67c70b634e342d44d3e8c7bd,1051.0,f,ballFalling,500.0,510.8711431702997,369.03,8.0,fallScene,False,gt,3000.0,510.8711431702997,369.03,500.0,510.8711431702997,510.8711431702997,False
5fd95f2691ac2024f8a883dd_result,19.0,5fd95f2691ac2024f8a883dd,6796e1c0ff24ca17c453c51c,67c70b634e342d44d3e8c7bd,1008.0,j,ballFalling,500.0,553.4711431702997,282.51,7.0,fallScene,False,lp,3000.0,501.0,227.2843295913261,500.0,553.4711431702997,501.0,False
5fd95f2691ac2024f8a883dd_result,20.0,5fd95f2691ac2024f8a883dd,6796e1c0ff24ca17c453c51c,67c70b634e342d44d3e8c7bd,721.0,j,ballFalling,500.0,553.4711431702997,282.51,7.0,fallScene,False,mid,3000.0,501.0,300.0,500.0,553.4711431702997,501.0,False
5fd95f2691ac2024f8a883dd_result,21.0,5fd95f2691ac2024f8a883dd,6796e1c0ff24ca17c453c51c,67c70b634e342d44d3e8c7bd,854.0,f,ballFalling,604.4000000000001,596.8711431702998,394.5,10.0,fallScene,True,gt,3000.0,596.8711431702998,394.5,395.5999999999999,403.1288568297002,403.1288568297002,False
5fd95f2691ac2024f8a883dd_result,22.0,5fd95f2691ac2024f8a883dd,6796e1c0ff24ca17c453c51c,67c70b634e342d44d3e8c7bd,1285.0,j,ballFalling,500.0,510.8711431702997,369.03,8.0,fallScene,False,lp,3000.0,501.0,151.0,500.0,510.8711431702997,501.0,False
5fd95f2691ac2024f8a883dd_result,23.0,5fd95f2691ac2024f8a883dd,6796e1c0ff24ca17c453c51c,67c70b634e342d44d3e8c7bd,747.0,j,ballFalling,604.4000000000001,575.4211431702997,266.76,12.0,fallScene,False,gt,3000.0,575.4211431702997,266.76,604.4000000000001,575.4211431702997,575.4211431702997,True
5fd95f2691ac2024f8a883dd_result,24.0,5fd95f2691ac2024f8a883dd,6796e1c0ff24ca17c453c51c,67c70b634e342d44d3e8c7bd,678.0,f,ballFalling,322.3,379.3711431702997,245.25,1.0,fallScene,True,mid,3000.0,390.27114317029975,300.0,677.7,620.6288568297002,609.7288568297002,True
5fd95f2691ac2024f8a883dd_result,25.0,5fd95f2691ac2024f8a883dd,6796e1c0ff24ca17c453c51c,67c70b634e342d44d3e8c7bd,814.0,f,ballFalling,322.3,308.07114317029976,253.89,2.0,fallScene,False,lp,3000.0,321.3,151.0,322.3,308.07114317029976,321.3,True
5fd95f2691ac2024f8a883dd_result,26.0,5fd95f2691ac2024f8a883dd,6796e1c0ff24ca17c453c51c,67c70b634e342d44d3e8c7bd,849.0,f,ballFalling,604.4000000000001,575.4211431702997,266.76,12.0,fallScene,False,mid,3000.0,536.4288568297004,300.0,604.4000000000001,575.4211431702997,536.4288568297004,True
5fd95f2691ac2024f8a883dd_result,27.0,5fd95f2691ac2024f8a883dd,6796e1c0ff24ca17c453c51c,67c70b634e342d44d3e8c7bd,937.0,f,ballFalling,500.0,553.4711431702997,282.51,7.0,fallScene,False,gt,3000.0,553.4711431702997,282.51,500.0,553.4711431702997,553.4711431702997,False
5fd95f2691ac2024f8a883dd_result,28.0,5fd95f2691ac2024f8a883dd,6796e1c0ff24ca17c453c51c,67c70b634e342d44d3e8c7bd,789.0,f,ballFalling,604.4000000000001,596.8711431702998,394.5,10.0,fallScene,True,mid,3000.0,536.4288568297004,300.0,395.5999999999999,403.1288568297002,463.5711431702996,True
5fd95f2691ac2024f8a883dd_result,29.0,5fd95f2691ac2024f8a883dd,6796e1c0ff24ca17c453c51c,67c70b634e342d44d3e8c7bd,1550.0,f,ballFalling,500.0,553.4711431702997,282.51,7.0,fallScene,False,lp,3000.0,501.0,227.2843295913261,500.0,553.4711431702997,501.0,True
5fd95f2691ac2024f8a883dd_result,30.0,5fd95f2691ac2024f8a883dd,6796e1c0ff24ca17c453c51c,67c70b634e342d44d3e8c7bd,1360.0,j,ballFalling,322.3,356.42114317029973,357.87,4.0,fallScene,False,mid,3000.0,390.27114317029975,300.0,322.3,356.42114317029973,390.27114317029975,False
5fd95f2691ac2024f8a883dd_result,31.0,5fd95f2691ac2024f8a883dd,6796e1c0ff24ca17c453c51c,67c70b634e342d44d3e8c7bd,884.0,j,ballFalling,604.4000000000001,575.4211431702997,266.76,12.0,fallScene,True,gt,3000.0,575.4211431702997,266.76,395.5999999999999,424.57885682970027,424.57885682970027,True
5fd95f2691ac2024f8a883dd_result,32.0,5fd95f2691ac2024f8a883dd,6796e1c0ff24ca17c453c51c,67c70b634e342d44d3e8c7bd,789.0,j,ballFalling,322.3,308.07114317029976,253.89,2.0,fallScene,True,mid,3000.0,321.3,300.0,677.7,691.9288568297002,678.7,False
5fd95f2691ac2024f8a883dd_result,33.0,5fd95f2691ac2024f8a883dd,6796e1c0ff24ca17c453c51c,67c70b634e342d44d3e8c7bd,844.0,j,ballFalling,500.0,510.8711431702997,369.03,8.0,fallScene,False,mid,3000.0,501.0,300.0,500.0,510.8711431702997,501.0,False
5fd95f2691ac2024f8a883dd_result,34.0,5fd95f2691ac2024f8a883dd,6796e1c0ff24ca17c453c51c,67c70b634e342d44d3e8c7bd,1076.0,f,ballFalling,604.4000000000001,596.8711431702998,394.5,10.0,fallScene,False,gt,3000.0,596.8711431702998,394.5,604.4000000000001,596.8711431702998,596.8711431702998,False
5fd95f2691ac2024f8a883dd_result,35.0,5fd95f2691ac2024f8a883dd,6796e1c0ff24ca17c453c51c,67c70b634e342d44d3e8c7bd,785.0,j,ballFalling,604.4000000000001,650.0211431702996,404.58,11.0,fallScene,False,gt,3000.0,650.0211431702996,404.58,604.4000000000001,650.0211431702996,650.0211431702996,True
5fd95f2691ac2024f8a883dd_result,36.0,5fd95f2691ac2024f8a883dd,6796e1c0ff24ca17c453c51c,67c70b634e342d44d3e8c7bd,798.0,j,ballFalling,500.0,553.4711431702997,282.51,7.0,fallScene,True,mid,3000.0,501.0,300.0,500.0,446.5288568297003,499.0,False
5fd95f2691ac2024f8a883dd_result,37.0,5fd95f2691ac2024f8a883dd,6796e1c0ff24ca17c453c51c,67c70b634e342d44d3e8c7bd,1099.0,j,ballFalling,604.4000000000001,650.0211431702996,404.58,11.0,fallScene,True,lp,3000.0,605.4000000000001,372.6340973215488,395.5999999999999,349.97885682970036,394.5999999999999,False
5fd95f2691ac2024f8a883dd_result,38.0,5fd95f2691ac2024f8a883dd,6796e1c0ff24ca17c453c51c,67c70b634e342d44d3e8c7bd,705.0,j,ballFalling,322.3,296.07114317029976,371.46,3.0,fallScene,False,lp,3000.0,321.3,287.3327096511259,322.3,296.07114317029976,321.3,False
5fd95f2691ac2024f8a883dd_result,39.0,5fd95f2691ac2024f8a883dd,6796e1c0ff24ca17c453c51c,67c70b634e342d44d3e8c7bd,632.0,f,ballFalling,604.4000000000001,650.0211431702996,404.58,11.0,fallScene,True,mid,3000.0,605.4000000000001,300.0,395.5999999999999,349.97885682970036,394.5999999999999,True
5fd95f2691ac2024f8a883dd_result,40.0,5fd95f2691ac2024f8a883dd,6796e1c0ff24ca17c453c51c,67c70b634e342d44d3e8c7bd,785.0,j,ballFalling,604.4000000000001,667.6211431702998,201.78,9.0,fallScene,True,mid,3000.0,605.4000000000001,300.0,395.5999999999999,332.3788568297002,394.5999999999999,False
5fd95f2691ac2024f8a883dd_result,41.0,5fd95f2691ac2024f8a883dd,6796e1c0ff24ca17c453c51c,67c70b634e342d44d3e8c7bd,499.0,j,ballFalling,500.0,453.6711431702998,210.33,5.0,fallScene,False,mid,3000.0,499.0,300.0,500.0,453.6711431702998,499.0,False
5fd95f2691ac2024f8a883dd_result,42.0,5fd95f2691ac2024f8a883dd,6796e1c0ff24ca17c453c51c,67c70b634e342d44d3e8c7bd,797.0,f,ballFalling,322.3,379.3711431702997,245.25,1.0,fallScene,False,gt,3000.0,379.3711431702997,245.25,322.3,379.3711431702997,379.3711431702997,False
5fd95f2691ac2024f8a883dd_result,43.0,5fd95f2691ac2024f8a883dd,6796e1c0ff24ca17c453c51c,67c70b634e342d44d3e8c7bd,1023.0,j,ballFalling,604.4000000000001,667.6211431702998,201.78,9.0,fallScene,False,gt,3000.0,667.6211431702998,201.78,604.4000000000001,667.6211431702998,667.6211431702998,True
5fd95f2691ac2024f8a883dd_result,44.0,5fd95f2691ac2024f8a883dd,6796e1c0ff24ca17c453c51c,67c70b634e342d44d3e8c7bd,953.0,f,ballFalling,322.3,296.07114317029976,371.46,3.0,fallScene,True,mid,3000.0,321.3,300.0,677.7,703.9288568297002,678.7,True
5fd95f2691ac2024f8a883dd_result,45.0,5fd95f2691ac2024f8a883dd,6796e1c0ff24ca17c453c51c,67c70b634e342d44d3e8c7bd,785.0,f,ballFalling,322.3,356.42114317029973,357.87,4.0,fallScene,True,lp,3000.0,323.3,297.4070551689986,677.7,643.5788568297003,676.7,True
5fd95f2691ac2024f8a883dd_result,46.0,5fd95f2691ac2024f8a883dd,6796e1c0ff24ca17c453c51c,67c70b634e342d44d3e8c7bd,976.0,f,ballFalling,322.3,356.42114317029973,357.87,4.0,fallScene,False,lp,3000.0,323.3,297.4070551689986,322.3,356.42114317029973,323.3,True
5fd95f2691ac2024f8a883dd_result,47.0,5fd95f2691ac2024f8a883dd,6796e1c0ff24ca17c453c51c,67c70b634e342d44d3e8c7bd,1603.0,j,ballFalling,500.0,479.9211431702998,330.87,6.0,fallScene,True,lp,3000.0,499.0,189.92909825697632,500.0,520.0788568297003,501.0,False
5fd95f2691ac2024f8a883dd_result,48.0,5fd95f2691ac2024f8a883dd,6796e1c0ff24ca17c453c51c,67c70b634e342d44d3e8c7bd,705.0,j,ballFalling,322.3,308.07114317029976,253.89,2.0,fallScene,True,gt,3000.0,308.07114317029976,253.89,677.7,691.9288568297002,691.9288568297002,True
5fd95f2691ac2024f8a883dd_result,49.0,5fd95f2691ac2024f8a883dd,6796e1c0ff24ca17c453c51c,67c70b634e342d44d3e8c7bd,423.0,f,ballFalling,500.0,553.4711431702997,282.51,7.0,fallScene,False,lp,700.0,501.0,227.2843295913261,500.0,553.4711431702997,501.0,True
5fd95f2691ac2024f8a883dd_result,50.0,5fd95f2691ac2024f8a883dd,6796e1c0ff24ca17c453c51c,67c70b634e342d44d3e8c7bd,492.0,j,ballFalling,604.4000000000001,667.6211431702998,201.78,9.0,fallScene,False,lp,700.0,605.4000000000001,151.0,604.4000000000001,667.6211431702998,605.4000000000001,False
5fd95f2691ac2024f8a883dd_result,51.0,5fd95f2691ac2024f8a883dd,6796e1c0ff24ca17c453c51c,67c70b634e342d44d3e8c7bd,451.0,j,ballFalling,500.0,510.8711431702997,369.03,8.0,fallScene,True,lp,700.0,501.0,151.0,500.0,489.1288568297003,499.0,False
5fd95f2691ac2024f8a883dd_result,52.0,5fd95f2691ac2024f8a883dd,6796e1c0ff24ca17c453c51c,67c70b634e342d44d3e8c7bd,519.0,f,ballFalling,604.4000000000001,667.6211431702998,201.78,9.0,fallScene,False,gt,700.0,667.6211431702998,201.78,604.4000000000001,667.6211431702998,667.6211431702998,False
5fd95f2691ac2024f8a883dd_result,53.0,5fd95f2691ac2024f8a883dd,6796e1c0ff24ca17c453c51c,67c70b634e342d44d3e8c7bd,552.0,j,ballFalling,322.3,356.42114317029973,357.87,4.0,fallScene,False,mid,700.0,390.27114317029975,300.0,322.3,356.42114317029973,390.27114317029975,False
5fd95f2691ac2024f8a883dd_result,54.0,5fd95f2691ac2024f8a883dd,6796e1c0ff24ca17c453c51c,67c70b634e342d44d3e8c7bd,400.0,f,ballFalling,604.4000000000001,650.0211431702996,404.58,11.0,fallScene,False,lp,700.0,605.4000000000001,372.6340973215488,604.4000000000001,650.0211431702996,605.4000000000001,True
5fd95f2691ac2024f8a883dd_result,55.0,5fd95f2691ac2024f8a883dd,6796e1c0ff24ca17c453c51c,67c70b634e342d44d3e8c7bd,,,ballFalling,322.3,308.07114317029976,253.89,2.0,fallScene,True,lp,700.0,321.3,151.0,677.7,691.9288568297002,678.7,
5fd95f2691ac2024f8a883dd_result,56.0,5fd95f2691ac2024f8a883dd,6796e1c0ff24ca17c453c51c,67c70b634e342d44d3e8c7bd,,,ballFalling,322.3,308.07114317029976,253.89,2.0,fallScene,False,lp,700.0,321.3,151.0,322.3,308.07114317029976,321.3,
5fd95f2691ac2024f8a883dd_result,57.0,5fd95f2691ac2024f8a883dd,6796e1c0ff24ca17c453c51c,67c70b634e342d44d3e8c7bd,483.0,f,ballFalling,604.4000000000001,575.4211431702997,266.76,12.0,fallScene,True,mid,700.0,536.4288568297004,300.0,395.5999999999999,424.57885682970027,463.5711431702996,True
5fd95f2691ac2024f8a883dd_result,58.0,5fd95f2691ac2024f8a883dd,6796e1c0ff24ca17c453c51c,67c70b634e342d44d3e8c7bd,400.0,j,ballFalling,604.4000000000001,575.4211431702997,266.76,12.0,fallScene,True,lp,700.0,603.4000000000001,151.0,395.5999999999999,424.57885682970027,396.5999999999999,False
5fd95f2691ac2024f8a883dd_result,59.0,5fd95f2691ac2024f8a883dd,6796e1c0ff24ca17c453c51c,67c70b634e342d44d3e8c7bd,365.0,f,ballFalling,500.0,453.6711431702998,210.33,5.0,fallScene,True,gt,700.0,453.6711431702998,210.33,500.0,546.3288568297003,546.3288568297003,False
5fd95f2691ac2024f8a883dd_result,60.0,5fd95f2691ac2024f8a883dd,6796e1c0ff24ca17c453c51c,67c70b634e342d44d3e8c7bd,539.0,j,ballFalling,322.3,296.07114317029976,371.46,3.0,fallScene,True,mid,700.0,321.3,300.0,677.7,703.9288568297002,678.7,False
5fd95f2691ac2024f8a883dd_result,61.0,5fd95f2691ac2024f8a883dd,6796e1c0ff24ca17c453c51c,67c70b634e342d44d3e8c7bd,283.0,j,ballFalling,604.4000000000001,596.8711431702998,394.5,10.0,fallScene,True,lp,700.0,603.4000000000001,215.50214355555383,395.5999999999999,403.1288568297002,396.5999999999999,False
5fd95f2691ac2024f8a883dd_result,62.0,5fd95f2691ac2024f8a883dd,6796e1c0ff24ca17c453c51c,67c70b634e342d44d3e8c7bd,383.0,j,ballFalling,604.4000000000001,596.8711431702998,394.5,10.0,fallScene,True,mid,700.0,536.4288568297004,300.0,395.5999999999999,403.1288568297002,463.5711431702996,False
5fd95f2691ac2024f8a883dd_result,63.0,5fd95f2691ac2024f8a883dd,6796e1c0ff24ca17c453c51c,67c70b634e342d44d3e8c7bd,516.0,f,ballFalling,604.4000000000001,667.6211431702998,201.78,9.0,fallScene,False,mid,700.0,605.4000000000001,300.0,604.4000000000001,667.6211431702998,605.4000000000001,True
5fd95f2691ac2024f8a883dd_result,64.0,5fd95f2691ac2024f8a883dd,6796e1c0ff24ca17c453c51c,67c70b634e342d44d3e8c7bd,533.0,j,ballFalling,500.0,453.6711431702998,210.33,5.0,fallScene,False,mid,700.0,499.0,300.0,500.0,453.6711431702998,499.0,False
5fd95f2691ac2024f8a883dd_result,65.0,5fd95f2691ac2024f8a883dd,6796e1c0ff24ca17c453c51c,67c70b634e342d44d3e8c7bd,535.0,j,ballFalling,322.3,308.07114317029976,253.89,2.0,fallScene,True,mid,700.0,321.3,300.0,677.7,691.9288568297002,678.7,False
5fd95f2691ac2024f8a883dd_result,66.0,5fd95f2691ac2024f8a883dd,6796e1c0ff24ca17c453c51c,67c70b634e342d44d3e8c7bd,468.0,f,ballFalling,322.3,296.07114317029976,371.46,3.0,fallScene,False,gt,700.0,296.07114317029976,371.46,322.3,296.07114317029976,296.07114317029976,False
5fd95f2691ac2024f8a883dd_result,67.0,5fd95f2691ac2024f8a883dd,6796e1c0ff24ca17c453c51c,67c70b634e342d44d3e8c7bd,647.0,f,ballFalling,604.4000000000001,650.0211431702996,404.58,11.0,fallScene,True,mid,700.0,605.4000000000001,300.0,395.5999999999999,349.97885682970036,394.5999999999999,True
5fd95f2691ac2024f8a883dd_result,68.0,5fd95f2691ac2024f8a883dd,6796e1c0ff24ca17c453c51c,67c70b634e342d44d3e8c7bd,,,ballFalling,604.4000000000001,667.6211431702998,201.78,9.0,fallScene,False,lp,700.0,605.4000000000001,151.0,604.4000000000001,667.6211431702998,605.4000000000001,
5fd95f2691ac2024f8a883dd_result,69.0,5fd95f2691ac2024f8a883dd,6796e1c0ff24ca17c453c51c,67c70b634e342d44d3e8c7bd,348.0,j,ballFalling,322.3,356.42114317029973,357.87,4.0,fallScene,False,lp,700.0,323.3,297.4070551689986,322.3,356.42114317029973,323.3,False
5fd95f2691ac2024f8a883dd_result,70.0,5fd95f2691ac2024f8a883dd,6796e1c0ff24ca17c453c51c,67c70b634e342d44d3e8c7bd,451.0,f,ballFalling,322.3,308.07114317029976,253.89,2.0,fallScene,False,mid,700.0,321.3,300.0,322.3,308.07114317029976,321.3,True
5fd95f2691ac2024f8a883dd_result,71.0,5fd95f2691ac2024f8a883dd,6796e1c0ff24ca17c453c51c,67c70b634e342d44d3e8c7bd,418.0,j,ballFalling,500.0,553.4711431702997,282.51,7.0,fallScene,True,mid,700.0,501.0,300.0,500.0,446.5288568297003,499.0,False
5fd95f2691ac2024f8a883dd_result,72.0,5fd95f2691ac2024f8a883dd,6796e1c0ff24ca17c453c51c,67c70b634e342d44d3e8c7bd,301.0,j,ballFalling,500.0,553.4711431702997,282.51,7.0,fallScene,False,lp,700.0,501.0,227.2843295913261,500.0,553.4711431702997,501.0,False
5fd95f2691ac2024f8a883dd_result,73.0,5fd95f2691ac2024f8a883dd,6796e1c0ff24ca17c453c51c,67c70b634e342d44d3e8c7bd,464.0,j,ballFalling,322.3,356.42114317029973,357.87,4.0,fallScene,False,lp,700.0,323.3,297.4070551689986,322.3,356.42114317029973,323.3,False
5fd95f2691ac2024f8a883dd_result,74.0,5fd95f2691ac2024f8a883dd,6796e1c0ff24ca17c453c51c,67c70b634e342d44d3e8c7bd,156.0,j,ballFalling,604.4000000000001,596.8711431702998,394.5,10.0,fallScene,False,gt,700.0,596.8711431702998,394.5,604.4000000000001,596.8711431702998,596.8711431702998,True
5fd95f2691ac2024f8a883dd_result,75.0,5fd95f2691ac2024f8a883dd,6796e1c0ff24ca17c453c51c,67c70b634e342d44d3e8c7bd,91.0,j,ballFalling,322.3,379.3711431702997,245.25,1.0,fallScene,True,lp,700.0,323.3,217.74551669457017,677.7,620.6288568297002,676.7,False
5fd95f2691ac2024f8a883dd_result,76.0,5fd95f2691ac2024f8a883dd,6796e1c0ff24ca17c453c51c,67c70b634e342d44d3e8c7bd,398.0,j,ballFalling,500.0,453.6711431702998,210.33,5.0,fallScene,True,mid,700.0,499.0,300.0,500.0,546.3288568297003,501.0,False
5fd95f2691ac2024f8a883dd_result,77.0,5fd95f2691ac2024f8a883dd,6796e1c0ff24ca17c453c51c,67c70b634e342d44d3e8c7bd,534.0,j,ballFalling,500.0,479.9211431702998,330.87,6.0,fallScene,True,mid,700.0,499.0,300.0,500.0,520.0788568297003,501.0,False
5fd95f2691ac2024f8a883dd_result,78.0,5fd95f2691ac2024f8a883dd,6796e1c0ff24ca17c453c51c,67c70b634e342d44d3e8c7bd,385.0,j,ballFalling,322.3,308.07114317029976,253.89,2.0,fallScene,False,gt,700.0,308.07114317029976,253.89,322.3,308.07114317029976,308.07114317029976,True
5fd95f2691ac2024f8a883dd_result,79.0,5fd95f2691ac2024f8a883dd,6796e1c0ff24ca17c453c51c,67c70b634e342d44d3e8c7bd,366.0,j,ballFalling,322.3,379.3711431702997,245.25,1.0,fallScene,True,gt,700.0,379.3711431702997,245.25,677.7,620.6288568297002,620.6288568297002,True
5fd95f2691ac2024f8a883dd_result,80.0,5fd95f2691ac2024f8a883dd,6796e1c0ff24ca17c453c51c,67c70b634e342d44d3e8c7bd,508.0,j,ballFalling,604.4000000000001,650.0211431702996,404.58,11.0,fallScene,True,lp,700.0,605.4000000000001,372.6340973215488,395.5999999999999,349.97885682970036,394.5999999999999,False
5fd95f2691ac2024f8a883dd_result,81.0,5fd95f2691ac2024f8a883dd,6796e1c0ff24ca17c453c51c,67c70b634e342d44d3e8c7bd,362.0,j,ballFalling,322.3,356.42114317029973,357.87,4.0,fallScene,True,gt,700.0,356.42114317029973,357.87,677.7,643.5788568297003,643.5788568297003,True
5fd95f2691ac2024f8a883dd_result,82.0,5fd95f2691ac2024f8a883dd,6796e1c0ff24ca17c453c51c,67c70b634e342d44d3e8c7bd,602.0,f,ballFalling,604.4000000000001,596.8711431702998,394.5,10.0,fallScene,False,lp,700.0,603.4000000000001,215.50214355555383,604.4000000000001,596.8711431702998,603.4000000000001,True
5fd95f2691ac2024f8a883dd_result,83.0,5fd95f2691ac2024f8a883dd,6796e1c0ff24ca17c453c51c,67c70b634e342d44d3e8c7bd,,,ballFalling,322.3,379.3711431702997,245.25,1.0,fallScene,False,mid,700.0,390.27114317029975,300.0,322.3,379.3711431702997,390.27114317029975,
5fd95f2691ac2024f8a883dd_result,84.0,5fd95f2691ac2024f8a883dd,6796e1c0ff24ca17c453c51c,67c70b634e342d44d3e8c7bd,636.0,j,ballFalling,604.4000000000001,575.4211431702997,266.76,12.0,fallScene,False,gt,700.0,575.4211431702997,266.76,604.4000000000001,575.4211431702997,575.4211431702997,True
5fd95f2691ac2024f8a883dd_result,85.0,5fd95f2691ac2024f8a883dd,6796e1c0ff24ca17c453c51c,67c70b634e342d44d3e8c7bd,595.0,f,ballFalling,604.4000000000001,650.0211431702996,404.58,11.0,fallScene,True,gt,700.0,650.0211431702996,404.58,395.5999999999999,349.97885682970036,349.97885682970036,False
5fd95f2691ac2024f8a883dd_result,86.0,5fd95f2691ac2024f8a883dd,6796e1c0ff24ca17c453c51c,67c70b634e342d44d3e8c7bd,667.0,j,ballFalling,500.0,479.9211431702998,330.87,6.0,fallScene,True,gt,700.0,479.9211431702998,330.87,500.0,520.0788568297003,520.0788568297003,True
5fd95f2691ac2024f8a883dd_result,87.0,5fd95f2691ac2024f8a883dd,6796e1c0ff24ca17c453c51c,67c70b634e342d44d3e8c7bd,366.0,j,ballFalling,604.4000000000001,650.0211431702996,404.58,11.0,fallScene,False,gt,700.0,650.0211431702996,404.58,604.4000000000001,650.0211431702996,650.0211431702996,True
5fd95f2691ac2024f8a883dd_result,88.0,5fd95f2691ac2024f8a883dd,6796e1c0ff24ca17c453c51c,67c70b634e342d44d3e8c7bd,548.0,j,ballFalling,604.4000000000001,650.0211431702996,404.58,11.0,fallScene,True,mid,700.0,605.4000000000001,300.0,395.5999999999999,349.97885682970036,394.5999999999999,False
5fd95f2691ac2024f8a883dd_result,89.0,5fd95f2691ac2024f8a883dd,6796e1c0ff24ca17c453c51c,67c70b634e342d44d3e8c7bd,,,ballFalling,322.3,296.07114317029976,371.46,3.0,fallScene,True,mid,700.0,321.3,300.0,677.7,703.9288568297002,678.7,
5fd95f2691ac2024f8a883dd_result,90.0,5fd95f2691ac2024f8a883dd,6796e1c0ff24ca17c453c51c,67c70b634e342d44d3e8c7bd,519.0,f,ballFalling,500.0,479.9211431702998,330.87,6.0,fallScene,True,lp,700.0,499.0,189.92909825697632,500.0,520.0788568297003,501.0,True
5fd95f2691ac2024f8a883dd_result,91.0,5fd95f2691ac2024f8a883dd,6796e1c0ff24ca17c453c51c,67c70b634e342d44d3e8c7bd,363.0,j,ballFalling,322.3,308.07114317029976,253.89,2.0,fallScene,False,gt,700.0,308.07114317029976,253.89,322.3,308.07114317029976,308.07114317029976,True
5fd95f2691ac2024f8a883dd_result,92.0,5fd95f2691ac2024f8a883dd,6796e1c0ff24ca17c453c51c,67c70b634e342d44d3e8c7bd,368.0,f,ballFalling,322.3,296.07114317029976,371.46,3.0,fallScene,False,gt,700.0,296.07114317029976,371.46,322.3,296.07114317029976,296.07114317029976,False
5fd95f2691ac2024f8a883dd_result,93.0,5fd95f2691ac2024f8a883dd,6796e1c0ff24ca17c453c51c,67c70b634e342d44d3e8c7bd,449.0,j,ballFalling,322.3,356.42114317029973,357.87,4.0,fallScene,False,gt,700.0,356.42114317029973,357.87,322.3,356.42114317029973,356.42114317029973,True
5fd95f2691ac2024f8a883dd_result,94.0,5fd95f2691ac2024f8a883dd,6796e1c0ff24ca17c453c51c,67c70b634e342d44d3e8c7bd,451.0,f,ballFalling,500.0,453.6711431702998,210.33,5.0,fallScene,False,lp,700.0,499.0,151.0,500.0,453.6711431702998,499.0,True
5fd95f2691ac2024f8a883dd_result,95.0,5fd95f2691ac2024f8a883dd,6796e1c0ff24ca17c453c51c,67c70b634e342d44d3e8c7bd,518.0,f,ballFalling,500.0,479.9211431702998,330.87,6.0,fallScene,False,lp,700.0,499.0,189.92909825697632,500.0,479.9211431702998,499.0,True
5fd95f2691ac2024f8a883dd_result,96.0,5fd95f2691ac2024f8a883dd,6796e1c0ff24ca17c453c51c,67c70b634e342d44d3e8c7bd,442.0,f,ballFalling,500.0,510.8711431702997,369.03,8.0,fallScene,True,mid,700.0,501.0,300.0,500.0,489.1288568297003,499.0,True
5fd95f2691ac2024f8a883dd_result,97.0,5fd95f2691ac2024f8a883dd,6796e1c0ff24ca17c453c51c,67c70b634e342d44d3e8c7bd,1751.0,j,ballFalling,604.4000000000001,667.6211431702998,201.78,9.0,fallScene,False,gt,3000.0,667.6211431702998,201.78,604.4000000000001,667.6211431702998,667.6211431702998,True
5fd95f2691ac2024f8a883dd_result,98.0,5fd95f2691ac2024f8a883dd,6796e1c0ff24ca17c453c51c,67c70b634e342d44d3e8c7bd,982.0,j,ballFalling,500.0,510.8711431702997,369.03,8.0,fallScene,False,gt,3000.0,510.8711431702997,369.03,500.0,510.8711431702997,510.8711431702997,True
5fd95f2691ac2024f8a883dd_result,99.0,5fd95f2691ac2024f8a883dd,6796e1c0ff24ca17c453c51c,67c70b634e342d44d3e8c7bd,867.0,j,ballFalling,322.3,296.07114317029976,371.46,3.0,fallScene,False,gt,3000.0,296.07114317029976,371.46,322.3,296.07114317029976,296.07114317029976,True
5fd95f2691ac2024f8a883dd_result,100.0,5fd95f2691ac2024f8a883dd,6796e1c0ff24ca17c453c51c,67c70b634e342d44d3e8c7bd,1020.0,j,ballFalling,500.0,453.6711431702998,210.33,5.0,fallScene,False,gt,3000.0,453.6711431702998,210.33,500.0,453.6711431702998,453.6711431702998,True
5fd95f2691ac2024f8a883dd_result,101.0,5fd95f2691ac2024f8a883dd,6796e1c0ff24ca17c453c51c,67c70b634e342d44d3e8c7bd,1323.0,f,ballFalling,604.4000000000001,596.8711431702998,394.5,10.0,fallScene,True,lp,3000.0,603.4000000000001,215.50214355555383,395.5999999999999,403.1288568297002,396.5999999999999,True
5fd95f2691ac2024f8a883dd_result,102.0,5fd95f2691ac2024f8a883dd,6796e1c0ff24ca17c453c51c,67c70b634e342d44d3e8c7bd,949.0,f,ballFalling,322.3,296.07114317029976,371.46,3.0,fallScene,True,mid,3000.0,321.3,300.0,677.7,703.9288568297002,678.7,True
5fd95f2691ac2024f8a883dd_result,103.0,5fd95f2691ac2024f8a883dd,6796e1c0ff24ca17c453c51c,67c70b634e342d44d3e8c7bd,602.0,f,ballFalling,604.4000000000001,575.4211431702997,266.76,12.0,fallScene,False,lp,3000.0,603.4000000000001,151.0,604.4000000000001,575.4211431702997,603.4000000000001,True
5fd95f2691ac2024f8a883dd_result,104.0,5fd95f2691ac2024f8a883dd,6796e1c0ff24ca17c453c51c,67c70b634e342d44d3e8c7bd,668.0,f,ballFalling,500.0,453.6711431702998,210.33,5.0,fallScene,True,lp,3000.0,499.0,151.0,500.0,546.3288568297003,501.0,True
5fd95f2691ac2024f8a883dd_result,105.0,5fd95f2691ac2024f8a883dd,6796e1c0ff24ca17c453c51c,67c70b634e342d44d3e8c7bd,854.0,f,ballFalling,500.0,479.9211431702998,330.87,6.0,fallScene,True,mid,3000.0,499.0,300.0,500.0,520.0788568297003,501.0,True
5fd95f2691ac2024f8a883dd_result,106.0,5fd95f2691ac2024f8a883dd,6796e1c0ff24ca17c453c51c,67c70b634e342d44d3e8c7bd,822.0,j,ballFalling,322.3,356.42114317029973,357.87,4.0,fallScene,True,gt,3000.0,356.42114317029973,357.87,677.7,643.5788568297003,643.5788568297003,True
5fd95f2691ac2024f8a883dd_result,107.0,5fd95f2691ac2024f8a883dd,6796e1c0ff24ca17c453c51c,67c70b634e342d44d3e8c7bd,1081.0,j,ballFalling,322.3,296.07114317029976,371.46,3.0,fallScene,False,gt,3000.0,296.07114317029976,371.46,322.3,296.07114317029976,296.07114317029976,True
5fd95f2691ac2024f8a883dd_result,108.0,5fd95f2691ac2024f8a883dd,6796e1c0ff24ca17c453c51c,67c70b634e342d44d3e8c7bd,708.0,f,ballFalling,604.4000000000001,667.6211431702998,201.78,9.0,fallScene,False,lp,3000.0,605.4000000000001,151.0,604.4000000000001,667.6211431702998,605.4000000000001,True
5fd95f2691ac2024f8a883dd_result,109.0,5fd95f2691ac2024f8a883dd,6796e1c0ff24ca17c453c51c,67c70b634e342d44d3e8c7bd,736.0,j,ballFalling,500.0,453.6711431702998,210.33,5.0,fallScene,True,mid,3000.0,499.0,300.0,500.0,546.3288568297003,501.0,False
5fd95f2691ac2024f8a883dd_result,110.0,5fd95f2691ac2024f8a883dd,6796e1c0ff24ca17c453c51c,67c70b634e342d44d3e8c7bd,567.0,j,ballFalling,500.0,479.9211431702998,330.87,6.0,fallScene,False,mid,3000.0,499.0,300.0,500.0,479.9211431702998,499.0,False
5fd95f2691ac2024f8a883dd_result,111.0,5fd95f2691ac2024f8a883dd,6796e1c0ff24ca17c453c51c,67c70b634e342d44d3e8c7bd,1290.0,f,ballFalling,604.4000000000001,596.8711431702998,394.5,10.0,fallScene,False,lp,3000.0,603.4000000000001,215.50214355555383,604.4000000000001,596.8711431702998,603.4000000000001,True
5fd95f2691ac2024f8a883dd_result,112.0,5fd95f2691ac2024f8a883dd,6796e1c0ff24ca17c453c51c,67c70b634e342d44d3e8c7bd,719.0,j,ballFalling,322.3,308.07114317029976,253.89,2.0,fallScene,False,gt,3000.0,308.07114317029976,253.89,322.3,308.07114317029976,308.07114317029976,True
5fd95f2691ac2024f8a883dd_result,113.0,5fd95f2691ac2024f8a883dd,6796e1c0ff24ca17c453c51c,67c70b634e342d44d3e8c7bd,1386.0,j,ballFalling,604.4000000000001,650.0211431702996,404.58,11.0,fallScene,False,gt,3000.0,650.0211431702996,404.58,604.4000000000001,650.0211431702996,650.0211431702996,True
5fd95f2691ac2024f8a883dd_result,114.0,5fd95f2691ac2024f8a883dd,6796e1c0ff24ca17c453c51c,67c70b634e342d44d3e8c7bd,671.0,f,ballFalling,604.4000000000001,596.8711431702998,394.5,10.0,fallScene,False,mid,3000.0,536.4288568297004,300.0,604.4000000000001,596.8711431702998,536.4288568297004,True
5fd95f2691ac2024f8a883dd_result,115.0,5fd95f2691ac2024f8a883dd,6796e1c0ff24ca17c453c51c,67c70b634e342d44d3e8c7bd,751.0,j,ballFalling,500.0,479.9211431702998,330.87,6.0,fallScene,False,gt,3000.0,479.9211431702998,330.87,500.0,479.9211431702998,479.9211431702998,True
5fd95f2691ac2024f8a883dd_result,116.0,5fd95f2691ac2024f8a883dd,6796e1c0ff24ca17c453c51c,67c70b634e342d44d3e8c7bd,1318.0,f,ballFalling,604.4000000000001,575.4211431702997,266.76,12.0,fallScene,False,mid,3000.0,536.4288568297004,300.0,604.4000000000001,575.4211431702997,536.4288568297004,True
5fd95f2691ac2024f8a883dd_result,117.0,5fd95f2691ac2024f8a883dd,6796e1c0ff24ca17c453c51c,67c70b634e342d44d3e8c7bd,752.0,f,ballFalling,500.0,479.9211431702998,330.87,6.0,fallScene,False,lp,3000.0,499.0,189.92909825697632,500.0,479.9211431702998,499.0,True
5fd95f2691ac2024f8a883dd_result,118.0,5fd95f2691ac2024f8a883dd,6796e1c0ff24ca17c453c51c,67c70b634e342d44d3e8c7bd,946.0,f,ballFalling,322.3,356.42114317029973,357.87,4.0,fallScene,False,mid,3000.0,390.27114317029975,300.0,322.3,356.42114317029973,390.27114317029975,True
5fd95f2691ac2024f8a883dd_result,119.0,5fd95f2691ac2024f8a883dd,6796e1c0ff24ca17c453c51c,67c70b634e342d44d3e8c7bd,1129.0,j,ballFalling,322.3,308.07114317029976,253.89,2.0,fallScene,False,lp,3000.0,321.3,151.0,322.3,308.07114317029976,321.3,False
5fd95f2691ac2024f8a883dd_result,120.0,5fd95f2691ac2024f8a883dd,6796e1c0ff24ca17c453c51c,67c70b634e342d44d3e8c7bd,998.0,f,ballFalling,604.4000000000001,667.6211431702998,201.78,9.0,fallScene,False,mid,3000.0,605.4000000000001,300.0,604.4000000000001,667.6211431702998,605.4000000000001,True
5fd95f2691ac2024f8a883dd_result,121.0,5fd95f2691ac2024f8a883dd,6796e1c0ff24ca17c453c51c,67c70b634e342d44d3e8c7bd,502.0,j,ballFalling,500.0,553.4711431702997,282.51,7.0,fallScene,True,mid,700.0,501.0,300.0,500.0,446.5288568297003,499.0,False
5fd95f2691ac2024f8a883dd_result,122.0,5fd95f2691ac2024f8a883dd,6796e1c0ff24ca17c453c51c,67c70b634e342d44d3e8c7bd,561.0,f,ballFalling,604.4000000000001,575.4211431702997,266.76,12.0,fallScene,True,mid,700.0,536.4288568297004,300.0,395.5999999999999,424.57885682970027,463.5711431702996,True
5fd95f2691ac2024f8a883dd_result,123.0,5fd95f2691ac2024f8a883dd,6796e1c0ff24ca17c453c51c,67c70b634e342d44d3e8c7bd,,,ballFalling,500.0,510.8711431702997,369.03,8.0,fallScene,False,gt,700.0,510.8711431702997,369.03,500.0,510.8711431702997,510.8711431702997,
5fd95f2691ac2024f8a883dd_result,124.0,5fd95f2691ac2024f8a883dd,6796e1c0ff24ca17c453c51c,67c70b634e342d44d3e8c7bd,365.0,f,ballFalling,500.0,553.4711431702997,282.51,7.0,fallScene,False,gt,700.0,553.4711431702997,282.51,500.0,553.4711431702997,553.4711431702997,False
5fd95f2691ac2024f8a883dd_result,125.0,5fd95f2691ac2024f8a883dd,6796e1c0ff24ca17c453c51c,67c70b634e342d44d3e8c7bd,401.0,j,ballFalling,604.4000000000001,667.6211431702998,201.78,9.0,fallScene,False,mid,700.0,605.4000000000001,300.0,604.4000000000001,667.6211431702998,605.4000000000001,False
5fd95f2691ac2024f8a883dd_result,126.0,5fd95f2691ac2024f8a883dd,6796e1c0ff24ca17c453c51c,67c70b634e342d44d3e8c7bd,401.0,j,ballFalling,322.3,379.3711431702997,245.25,1.0,fallScene,True,gt,700.0,379.3711431702997,245.25,677.7,620.6288568297002,620.6288568297002,True
5fd95f2691ac2024f8a883dd_result,127.0,5fd95f2691ac2024f8a883dd,6796e1c0ff24ca17c453c51c,67c70b634e342d44d3e8c7bd,498.0,f,ballFalling,604.4000000000001,575.4211431702997,266.76,12.0,fallScene,False,lp,700.0,603.4000000000001,151.0,604.4000000000001,575.4211431702997,603.4000000000001,True
5fd95f2691ac2024f8a883dd_result,128.0,5fd95f2691ac2024f8a883dd,6796e1c0ff24ca17c453c51c,67c70b634e342d44d3e8c7bd,,,ballFalling,500.0,510.8711431702997,369.03,8.0,fallScene,True,mid,700.0,501.0,300.0,500.0,489.1288568297003,499.0,
5fd95f2691ac2024f8a883dd_result,129.0,5fd95f2691ac2024f8a883dd,6796e1c0ff24ca17c453c51c,67c70b634e342d44d3e8c7bd,532.0,f,ballFalling,500.0,553.4711431702997,282.51,7.0,fallScene,True,gt,700.0,553.4711431702997,282.51,500.0,446.5288568297003,446.5288568297003,False
5fd95f2691ac2024f8a883dd_result,130.0,5fd95f2691ac2024f8a883dd,6796e1c0ff24ca17c453c51c,67c70b634e342d44d3e8c7bd,382.0,j,ballFalling,604.4000000000001,596.8711431702998,394.5,10.0,fallScene,False,mid,700.0,536.4288568297004,300.0,604.4000000000001,596.8711431702998,536.4288568297004,False
5fd95f2691ac2024f8a883dd_result,131.0,5fd95f2691ac2024f8a883dd,6796e1c0ff24ca17c453c51c,67c70b634e342d44d3e8c7bd,432.0,f,ballFalling,604.4000000000001,667.6211431702998,201.78,9.0,fallScene,False,gt,700.0,667.6211431702998,201.78,604.4000000000001,667.6211431702998,667.6211431702998,False
5fd95f2691ac2024f8a883dd_result,132.0,5fd95f2691ac2024f8a883dd,6796e1c0ff24ca17c453c51c,67c70b634e342d44d3e8c7bd,282.0,j,ballFalling,604.4000000000001,596.8711431702998,394.5,10.0,fallScene,True,gt,700.0,596.8711431702998,394.5,395.5999999999999,403.1288568297002,403.1288568297002,True
5fd95f2691ac2024f8a883dd_result,133.0,5fd95f2691ac2024f8a883dd,6796e1c0ff24ca17c453c51c,67c70b634e342d44d3e8c7bd,315.0,f,ballFalling,500.0,479.9211431702998,330.87,6.0,fallScene,False,gt,700.0,479.9211431702998,330.87,500.0,479.9211431702998,479.9211431702998,False
5fd95f2691ac2024f8a883dd_result,134.0,5fd95f2691ac2024f8a883dd,6796e1c0ff24ca17c453c51c,67c70b634e342d44d3e8c7bd,,,ballFalling,322.3,296.07114317029976,371.46,3.0,fallScene,False,lp,700.0,321.3,287.3327096511259,322.3,296.07114317029976,321.3,
5fd95f2691ac2024f8a883dd_result,135.0,5fd95f2691ac2024f8a883dd,6796e1c0ff24ca17c453c51c,67c70b634e342d44d3e8c7bd,384.0,j,ballFalling,322.3,379.3711431702997,245.25,1.0,fallScene,True,mid,700.0,390.27114317029975,300.0,677.7,620.6288568297002,609.7288568297002,False
5fd95f2691ac2024f8a883dd_result,136.0,5fd95f2691ac2024f8a883dd,6796e1c0ff24ca17c453c51c,67c70b634e342d44d3e8c7bd,,,ballFalling,322.3,296.07114317029976,371.46,3.0,fallScene,False,lp,700.0,321.3,287.3327096511259,322.3,296.07114317029976,321.3,
5fd95f2691ac2024f8a883dd_result,137.0,5fd95f2691ac2024f8a883dd,6796e1c0ff24ca17c453c51c,67c70b634e342d44d3e8c7bd,383.0,j,ballFalling,500.0,510.8711431702997,369.03,8.0,fallScene,False,gt,700.0,510.8711431702997,369.03,500.0,510.8711431702997,510.8711431702997,True
5fd95f2691ac2024f8a883dd_result,138.0,5fd95f2691ac2024f8a883dd,6796e1c0ff24ca17c453c51c,67c70b634e342d44d3e8c7bd,336.0,f,ballFalling,604.4000000000001,575.4211431702997,266.76,12.0,fallScene,True,gt,700.0,575.4211431702997,266.76,395.5999999999999,424.57885682970027,424.57885682970027,False
5fd95f2691ac2024f8a883dd_result,139.0,5fd95f2691ac2024f8a883dd,6796e1c0ff24ca17c453c51c,67c70b634e342d44d3e8c7bd,399.0,j,ballFalling,322.3,356.42114317029973,357.87,4.0,fallScene,True,mid,700.0,390.27114317029975,300.0,677.7,643.5788568297003,609.7288568297002,False
5fd95f2691ac2024f8a883dd_result,140.0,5fd95f2691ac2024f8a883dd,6796e1c0ff24ca17c453c51c,67c70b634e342d44d3e8c7bd,251.0,f,ballFalling,322.3,379.3711431702997,245.25,1.0,fallScene,False,lp,700.0,323.3,217.74551669457017,322.3,379.3711431702997,323.3,True
5fd95f2691ac2024f8a883dd_result,141.0,5fd95f2691ac2024f8a883dd,6796e1c0ff24ca17c453c51c,67c70b634e342d44d3e8c7bd,,,ballFalling,500.0,453.6711431702998,210.33,5.0,fallScene,True,lp,700.0,499.0,151.0,500.0,546.3288568297003,501.0,
5fd95f2691ac2024f8a883dd_result,142.0,5fd95f2691ac2024f8a883dd,6796e1c0ff24ca17c453c51c,67c70b634e342d44d3e8c7bd,372.0,j,ballFalling,500.0,510.8711431702997,369.03,8.0,fallScene,False,lp,700.0,501.0,151.0,500.0,510.8711431702997,501.0,False
5fd95f2691ac2024f8a883dd_result,143.0,5fd95f2691ac2024f8a883dd,6796e1c0ff24ca17c453c51c,67c70b634e342d44d3e8c7bd,198.0,j,ballFalling,500.0,479.9211431702998,330.87,6.0,fallScene,True,mid,700.0,499.0,300.0,500.0,520.0788568297003,501.0,False
5fd95f2691ac2024f8a883dd_result,144.0,5fd95f2691ac2024f8a883dd,6796e1c0ff24ca17c453c51c,67c70b634e342d44d3e8c7bd,540.0,f,ballFalling,500.0,453.6711431702998,210.33,5.0,fallScene,True,gt,700.0,453.6711431702998,210.33,500.0,546.3288568297003,546.3288568297003,False
671c6fad5a9935e94b3025fd_result,1.0,671c6fad5a9935e94b3025fd,6796e1c0ff24ca17c453c51c,67c7160b86c8488303c98404,889.0,f,ballFalling,322.3,356.42114317029973,357.87,4.0,fallScene,True,lp,3000.0,323.3,297.4070551689986,677.7,643.5788568297003,676.7,True
671c6fad5a9935e94b3025fd_result,2.0,671c6fad5a9935e94b3025fd,6796e1c0ff24ca17c453c51c,67c7160b86c8488303c98404,1485.0,f,ballFalling,322.3,296.07114317029976,371.46,3.0,fallScene,False,mid,3000.0,321.3,300.0,322.3,296.07114317029976,321.3,True
671c6fad5a9935e94b3025fd_result,3.0,671c6fad5a9935e94b3025fd,6796e1c0ff24ca17c453c51c,67c7160b86c8488303c98404,1233.0,j,ballFalling,604.4000000000001,667.6211431702998,201.78,9.0,fallScene,False,gt,3000.0,667.6211431702998,201.78,604.4000000000001,667.6211431702998,667.6211431702998,True
671c6fad5a9935e94b3025fd_result,4.0,671c6fad5a9935e94b3025fd,6796e1c0ff24ca17c453c51c,67c7160b86c8488303c98404,1332.0,j,ballFalling,500.0,479.9211431702998,330.87,6.0,fallScene,False,mid,3000.0,499.0,300.0,500.0,479.9211431702998,499.0,False
671c6fad5a9935e94b3025fd_result,5.0,671c6fad5a9935e94b3025fd,6796e1c0ff24ca17c453c51c,67c7160b86c8488303c98404,1334.0,j,ballFalling,500.0,479.9211431702998,330.87,6.0,fallScene,False,mid,3000.0,499.0,300.0,500.0,479.9211431702998,499.0,False
671c6fad5a9935e94b3025fd_result,6.0,671c6fad5a9935e94b3025fd,6796e1c0ff24ca17c453c51c,67c7160b86c8488303c98404,1506.0,j,ballFalling,604.4000000000001,650.0211431702996,404.58,11.0,fallScene,True,mid,3000.0,605.4000000000001,300.0,395.5999999999999,349.97885682970036,394.5999999999999,False
671c6fad5a9935e94b3025fd_result,7.0,671c6fad5a9935e94b3025fd,6796e1c0ff24ca17c453c51c,67c7160b86c8488303c98404,1493.0,j,ballFalling,322.3,308.07114317029976,253.89,2.0,fallScene,False,mid,3000.0,321.3,300.0,322.3,308.07114317029976,321.3,False
671c6fad5a9935e94b3025fd_result,8.0,671c6fad5a9935e94b3025fd,6796e1c0ff24ca17c453c51c,67c7160b86c8488303c98404,1457.0,f,ballFalling,604.4000000000001,650.0211431702996,404.58,11.0,fallScene,False,mid,3000.0,605.4000000000001,300.0,604.4000000000001,650.0211431702996,605.4000000000001,True
671c6fad5a9935e94b3025fd_result,9.0,671c6fad5a9935e94b3025fd,6796e1c0ff24ca17c453c51c,67c7160b86c8488303c98404,1461.0,f,ballFalling,604.4000000000001,667.6211431702998,201.78,9.0,fallScene,True,lp,3000.0,605.4000000000001,151.0,395.5999999999999,332.3788568297002,394.5999999999999,True
671c6fad5a9935e94b3025fd_result,10.0,671c6fad5a9935e94b3025fd,6796e1c0ff24ca17c453c51c,67c7160b86c8488303c98404,1296.0,f,ballFalling,604.4000000000001,575.4211431702997,266.76,12.0,fallScene,False,mid,3000.0,536.4288568297004,300.0,604.4000000000001,575.4211431702997,536.4288568297004,True
671c6fad5a9935e94b3025fd_result,11.0,671c6fad5a9935e94b3025fd,6796e1c0ff24ca17c453c51c,67c7160b86c8488303c98404,1081.0,j,ballFalling,322.3,308.07114317029976,253.89,2.0,fallScene,False,mid,3000.0,321.3,300.0,322.3,308.07114317029976,321.3,False
671c6fad5a9935e94b3025fd_result,12.0,671c6fad5a9935e94b3025fd,6796e1c0ff24ca17c453c51c,67c7160b86c8488303c98404,1208.0,f,ballFalling,500.0,510.8711431702997,369.03,8.0,fallScene,True,lp,3000.0,501.0,151.0,500.0,489.1288568297003,499.0,True
671c6fad5a9935e94b3025fd_result,13.0,671c6fad5a9935e94b3025fd,6796e1c0ff24ca17c453c51c,67c7160b86c8488303c98404,1056.0,j,ballFalling,604.4000000000001,650.0211431702996,404.58,11.0,fallScene,False,lp,3000.0,605.4000000000001,372.6340973215488,604.4000000000001,650.0211431702996,605.4000000000001,False
671c6fad5a9935e94b3025fd_result,14.0,671c6fad5a9935e94b3025fd,6796e1c0ff24ca17c453c51c,67c7160b86c8488303c98404,898.0,f,ballFalling,322.3,379.3711431702997,245.25,1.0,fallScene,True,lp,3000.0,323.3,217.74551669457017,677.7,620.6288568297002,676.7,True
671c6fad5a9935e94b3025fd_result,15.0,671c6fad5a9935e94b3025fd,6796e1c0ff24ca17c453c51c,67c7160b86c8488303c98404,1264.0,j,ballFalling,322.3,308.07114317029976,253.89,2.0,fallScene,False,gt,3000.0,308.07114317029976,253.89,322.3,308.07114317029976,308.07114317029976,True
671c6fad5a9935e94b3025fd_result,16.0,671c6fad5a9935e94b3025fd,6796e1c0ff24ca17c453c51c,67c7160b86c8488303c98404,1499.0,j,ballFalling,322.3,308.07114317029976,253.89,2.0,fallScene,True,gt,3000.0,308.07114317029976,253.89,677.7,691.9288568297002,691.9288568297002,True
671c6fad5a9935e94b3025fd_result,17.0,671c6fad5a9935e94b3025fd,6796e1c0ff24ca17c453c51c,67c7160b86c8488303c98404,1377.0,f,ballFalling,322.3,296.07114317029976,371.46,3.0,fallScene,True,lp,3000.0,321.3,287.3327096511259,677.7,703.9288568297002,678.7,True
671c6fad5a9935e94b3025fd_result,18.0,671c6fad5a9935e94b3025fd,6796e1c0ff24ca17c453c51c,67c7160b86c8488303c98404,976.0,f,ballFalling,604.4000000000001,667.6211431702998,201.78,9.0,fallScene,True,gt,3000.0,667.6211431702998,201.78,395.5999999999999,332.3788568297002,332.3788568297002,False
671c6fad5a9935e94b3025fd_result,19.0,671c6fad5a9935e94b3025fd,6796e1c0ff24ca17c453c51c,67c7160b86c8488303c98404,1821.0,f,ballFalling,500.0,479.9211431702998,330.87,6.0,fallScene,False,lp,3000.0,499.0,189.92909825697632,500.0,479.9211431702998,499.0,True
671c6fad5a9935e94b3025fd_result,20.0,671c6fad5a9935e94b3025fd,6796e1c0ff24ca17c453c51c,67c7160b86c8488303c98404,907.0,j,ballFalling,500.0,553.4711431702997,282.51,7.0,fallScene,True,mid,3000.0,501.0,300.0,500.0,446.5288568297003,499.0,False
671c6fad5a9935e94b3025fd_result,21.0,671c6fad5a9935e94b3025fd,6796e1c0ff24ca17c453c51c,67c7160b86c8488303c98404,1344.0,j,ballFalling,604.4000000000001,650.0211431702996,404.58,11.0,fallScene,True,gt,3000.0,650.0211431702996,404.58,395.5999999999999,349.97885682970036,349.97885682970036,True
671c6fad5a9935e94b3025fd_result,22.0,671c6fad5a9935e94b3025fd,6796e1c0ff24ca17c453c51c,67c7160b86c8488303c98404,773.0,f,ballFalling,500.0,453.6711431702998,210.33,5.0,fallScene,True,lp,3000.0,499.0,151.0,500.0,546.3288568297003,501.0,True
671c6fad5a9935e94b3025fd_result,23.0,671c6fad5a9935e94b3025fd,6796e1c0ff24ca17c453c51c,67c7160b86c8488303c98404,737.0,j,ballFalling,500.0,553.4711431702997,282.51,7.0,fallScene,True,mid,3000.0,501.0,300.0,500.0,446.5288568297003,499.0,False
671c6fad5a9935e94b3025fd_result,24.0,671c6fad5a9935e94b3025fd,6796e1c0ff24ca17c453c51c,67c7160b86c8488303c98404,821.0,j,ballFalling,500.0,453.6711431702998,210.33,5.0,fallScene,True,mid,3000.0,499.0,300.0,500.0,546.3288568297003,501.0,False
671c6fad5a9935e94b3025fd_result,25.0,671c6fad5a9935e94b3025fd,6796e1c0ff24ca17c453c51c,67c7160b86c8488303c98404,473.0,j,ballFalling,500.0,479.9211431702998,330.87,6.0,fallScene,False,gt,700.0,479.9211431702998,330.87,500.0,479.9211431702998,479.9211431702998,True
671c6fad5a9935e94b3025fd_result,26.0,671c6fad5a9935e94b3025fd,6796e1c0ff24ca17c453c51c,67c7160b86c8488303c98404,502.0,j,ballFalling,322.3,356.42114317029973,357.87,4.0,fallScene,False,gt,700.0,356.42114317029973,357.87,322.3,356.42114317029973,356.42114317029973,True
671c6fad5a9935e94b3025fd_result,27.0,671c6fad5a9935e94b3025fd,6796e1c0ff24ca17c453c51c,67c7160b86c8488303c98404,,,ballFalling,322.3,308.07114317029976,253.89,2.0,fallScene,True,lp,700.0,321.3,151.0,677.7,691.9288568297002,678.7,
671c6fad5a9935e94b3025fd_result,28.0,671c6fad5a9935e94b3025fd,6796e1c0ff24ca17c453c51c,67c7160b86c8488303c98404,507.0,j,ballFalling,500.0,453.6711431702998,210.33,5.0,fallScene,False,gt,700.0,453.6711431702998,210.33,500.0,453.6711431702998,453.6711431702998,True
671c6fad5a9935e94b3025fd_result,29.0,671c6fad5a9935e94b3025fd,6796e1c0ff24ca17c453c51c,67c7160b86c8488303c98404,640.0,f,ballFalling,322.3,308.07114317029976,253.89,2.0,fallScene,True,gt,700.0,308.07114317029976,253.89,677.7,691.9288568297002,691.9288568297002,False
671c6fad5a9935e94b3025fd_result,30.0,671c6fad5a9935e94b3025fd,6796e1c0ff24ca17c453c51c,67c7160b86c8488303c98404,702.0,j,ballFalling,500.0,453.6711431702998,210.33,5.0,fallScene,True,gt,700.0,453.6711431702998,210.33,500.0,546.3288568297003,546.3288568297003,True
671c6fad5a9935e94b3025fd_result,31.0,671c6fad5a9935e94b3025fd,6796e1c0ff24ca17c453c51c,67c7160b86c8488303c98404,,,ballFalling,322.3,296.07114317029976,371.46,3.0,fallScene,True,mid,700.0,321.3,300.0,677.7,703.9288568297002,678.7,
671c6fad5a9935e94b3025fd_result,32.0,671c6fad5a9935e94b3025fd,6796e1c0ff24ca17c453c51c,67c7160b86c8488303c98404,326.0,f,ballFalling,604.4000000000001,667.6211431702998,201.78,9.0,fallScene,False,gt,700.0,667.6211431702998,201.78,604.4000000000001,667.6211431702998,667.6211431702998,False
671c6fad5a9935e94b3025fd_result,33.0,671c6fad5a9935e94b3025fd,6796e1c0ff24ca17c453c51c,67c7160b86c8488303c98404,,,ballFalling,322.3,296.07114317029976,371.46,3.0,fallScene,False,gt,700.0,296.07114317029976,371.46,322.3,296.07114317029976,296.07114317029976,
671c6fad5a9935e94b3025fd_result,34.0,671c6fad5a9935e94b3025fd,6796e1c0ff24ca17c453c51c,67c7160b86c8488303c98404,605.0,j,ballFalling,500.0,553.4711431702997,282.51,7.0,fallScene,False,gt,700.0,553.4711431702997,282.51,500.0,553.4711431702997,553.4711431702997,True
671c6fad5a9935e94b3025fd_result,35.0,671c6fad5a9935e94b3025fd,6796e1c0ff24ca17c453c51c,67c7160b86c8488303c98404,599.0,f,ballFalling,500.0,479.9211431702998,330.87,6.0,fallScene,False,lp,700.0,499.0,189.92909825697632,500.0,479.9211431702998,499.0,True
671c6fad5a9935e94b3025fd_result,36.0,671c6fad5a9935e94b3025fd,6796e1c0ff24ca17c453c51c,67c7160b86c8488303c98404,,,ballFalling,500.0,479.9211431702998,330.87,6.0,fallScene,False,mid,700.0,499.0,300.0,500.0,479.9211431702998,499.0,
671c6fad5a9935e94b3025fd_result,37.0,671c6fad5a9935e94b3025fd,6796e1c0ff24ca17c453c51c,67c7160b86c8488303c98404,680.0,j,ballFalling,500.0,510.8711431702997,369.03,8.0,fallScene,False,gt,700.0,510.8711431702997,369.03,500.0,510.8711431702997,510.8711431702997,True
671c6fad5a9935e94b3025fd_result,38.0,671c6fad5a9935e94b3025fd,6796e1c0ff24ca17c453c51c,67c7160b86c8488303c98404,702.0,f,ballFalling,322.3,379.3711431702997,245.25,1.0,fallScene,False,gt,700.0,379.3711431702997,245.25,322.3,379.3711431702997,379.3711431702997,False
671c6fad5a9935e94b3025fd_result,39.0,671c6fad5a9935e94b3025fd,6796e1c0ff24ca17c453c51c,67c7160b86c8488303c98404,665.0,j,ballFalling,604.4000000000001,667.6211431702998,201.78,9.0,fallScene,True,mid,700.0,605.4000000000001,300.0,395.5999999999999,332.3788568297002,394.5999999999999,False
671c6fad5a9935e94b3025fd_result,40.0,671c6fad5a9935e94b3025fd,6796e1c0ff24ca17c453c51c,67c7160b86c8488303c98404,,,ballFalling,604.4000000000001,650.0211431702996,404.58,11.0,fallScene,False,lp,700.0,605.4000000000001,372.6340973215488,604.4000000000001,650.0211431702996,605.4000000000001,
671c6fad5a9935e94b3025fd_result,41.0,671c6fad5a9935e94b3025fd,6796e1c0ff24ca17c453c51c,67c7160b86c8488303c98404,497.0,j,ballFalling,322.3,379.3711431702997,245.25,1.0,fallScene,False,lp,700.0,323.3,217.74551669457017,322.3,379.3711431702997,323.3,False
671c6fad5a9935e94b3025fd_result,42.0,671c6fad5a9935e94b3025fd,6796e1c0ff24ca17c453c51c,67c7160b86c8488303c98404,611.0,f,ballFalling,604.4000000000001,667.6211431702998,201.78,9.0,fallScene,True,lp,700.0,605.4000000000001,151.0,395.5999999999999,332.3788568297002,394.5999999999999,True
671c6fad5a9935e94b3025fd_result,43.0,671c6fad5a9935e94b3025fd,6796e1c0ff24ca17c453c51c,67c7160b86c8488303c98404,422.0,j,ballFalling,604.4000000000001,650.0211431702996,404.58,11.0,fallScene,True,gt,700.0,650.0211431702996,404.58,395.5999999999999,349.97885682970036,349.97885682970036,True
671c6fad5a9935e94b3025fd_result,44.0,671c6fad5a9935e94b3025fd,6796e1c0ff24ca17c453c51c,67c7160b86c8488303c98404,697.0,j,ballFalling,500.0,553.4711431702997,282.51,7.0,fallScene,False,lp,700.0,501.0,227.2843295913261,500.0,553.4711431702997,501.0,False
671c6fad5a9935e94b3025fd_result,45.0,671c6fad5a9935e94b3025fd,6796e1c0ff24ca17c453c51c,67c7160b86c8488303c98404,528.0,j,ballFalling,322.3,308.07114317029976,253.89,2.0,fallScene,True,mid,700.0,321.3,300.0,677.7,691.9288568297002,678.7,False
671c6fad5a9935e94b3025fd_result,46.0,671c6fad5a9935e94b3025fd,6796e1c0ff24ca17c453c51c,67c7160b86c8488303c98404,545.0,j,ballFalling,322.3,356.42114317029973,357.87,4.0,fallScene,True,mid,700.0,390.27114317029975,300.0,677.7,643.5788568297003,609.7288568297002,False
671c6fad5a9935e94b3025fd_result,47.0,671c6fad5a9935e94b3025fd,6796e1c0ff24ca17c453c51c,67c7160b86c8488303c98404,586.0,j,ballFalling,322.3,296.07114317029976,371.46,3.0,fallScene,False,gt,700.0,296.07114317029976,371.46,322.3,296.07114317029976,296.07114317029976,True
671c6fad5a9935e94b3025fd_result,48.0,671c6fad5a9935e94b3025fd,6796e1c0ff24ca17c453c51c,67c7160b86c8488303c98404,628.0,f,ballFalling,500.0,479.9211431702998,330.87,6.0,fallScene,False,lp,700.0,499.0,189.92909825697632,500.0,479.9211431702998,499.0,True
671c6fad5a9935e94b3025fd_result,49.0,671c6fad5a9935e94b3025fd,6796e1c0ff24ca17c453c51c,67c7160b86c8488303c98404,601.0,j,ballFalling,604.4000000000001,650.0211431702996,404.58,11.0,fallScene,False,gt,3000.0,650.0211431702996,404.58,604.4000000000001,650.0211431702996,650.0211431702996,True
671c6fad5a9935e94b3025fd_result,50.0,671c6fad5a9935e94b3025fd,6796e1c0ff24ca17c453c51c,67c7160b86c8488303c98404,831.0,f,ballFalling,604.4000000000001,575.4211431702997,266.76,12.0,fallScene,False,lp,3000.0,603.4000000000001,151.0,604.4000000000001,575.4211431702997,603.4000000000001,True
671c6fad5a9935e94b3025fd_result,51.0,671c6fad5a9935e94b3025fd,6796e1c0ff24ca17c453c51c,67c7160b86c8488303c98404,513.0,j,ballFalling,322.3,296.07114317029976,371.46,3.0,fallScene,False,mid,3000.0,321.3,300.0,322.3,296.07114317029976,321.3,False
671c6fad5a9935e94b3025fd_result,52.0,671c6fad5a9935e94b3025fd,6796e1c0ff24ca17c453c51c,67c7160b86c8488303c98404,1107.0,j,ballFalling,500.0,453.6711431702998,210.33,5.0,fallScene,False,gt,3000.0,453.6711431702998,210.33,500.0,453.6711431702998,453.6711431702998,True
671c6fad5a9935e94b3025fd_result,53.0,671c6fad5a9935e94b3025fd,6796e1c0ff24ca17c453c51c,67c7160b86c8488303c98404,1153.0,f,ballFalling,322.3,356.42114317029973,357.87,4.0,fallScene,False,gt,3000.0,356.42114317029973,357.87,322.3,356.42114317029973,356.42114317029973,False
671c6fad5a9935e94b3025fd_result,54.0,671c6fad5a9935e94b3025fd,6796e1c0ff24ca17c453c51c,67c7160b86c8488303c98404,1069.0,j,ballFalling,322.3,379.3711431702997,245.25,1.0,fallScene,False,lp,3000.0,323.3,217.74551669457017,322.3,379.3711431702997,323.3,False
671c6fad5a9935e94b3025fd_result,55.0,671c6fad5a9935e94b3025fd,6796e1c0ff24ca17c453c51c,67c7160b86c8488303c98404,825.0,f,ballFalling,604.4000000000001,575.4211431702997,266.76,12.0,fallScene,False,mid,3000.0,536.4288568297004,300.0,604.4000000000001,575.4211431702997,536.4288568297004,True
671c6fad5a9935e94b3025fd_result,56.0,671c6fad5a9935e94b3025fd,6796e1c0ff24ca17c453c51c,67c7160b86c8488303c98404,1426.0,f,ballFalling,500.0,479.9211431702998,330.87,6.0,fallScene,True,lp,3000.0,499.0,189.92909825697632,500.0,520.0788568297003,501.0,True
671c6fad5a9935e94b3025fd_result,57.0,671c6fad5a9935e94b3025fd,6796e1c0ff24ca17c453c51c,67c7160b86c8488303c98404,969.0,j,ballFalling,500.0,510.8711431702997,369.03,8.0,fallScene,False,mid,3000.0,501.0,300.0,500.0,510.8711431702997,501.0,False
671c6fad5a9935e94b3025fd_result,58.0,671c6fad5a9935e94b3025fd,6796e1c0ff24ca17c453c51c,67c7160b86c8488303c98404,821.0,f,ballFalling,322.3,296.07114317029976,371.46,3.0,fallScene,False,gt,3000.0,296.07114317029976,371.46,322.3,296.07114317029976,296.07114317029976,False
671c6fad5a9935e94b3025fd_result,59.0,671c6fad5a9935e94b3025fd,6796e1c0ff24ca17c453c51c,67c7160b86c8488303c98404,776.0,j,ballFalling,322.3,356.42114317029973,357.87,4.0,fallScene,False,lp,3000.0,323.3,297.4070551689986,322.3,356.42114317029973,323.3,False
671c6fad5a9935e94b3025fd_result,60.0,671c6fad5a9935e94b3025fd,6796e1c0ff24ca17c453c51c,67c7160b86c8488303c98404,1048.0,f,ballFalling,500.0,453.6711431702998,210.33,5.0,fallScene,True,gt,3000.0,453.6711431702998,210.33,500.0,546.3288568297003,546.3288568297003,False
671c6fad5a9935e94b3025fd_result,61.0,671c6fad5a9935e94b3025fd,6796e1c0ff24ca17c453c51c,67c7160b86c8488303c98404,1055.0,j,ballFalling,500.0,510.8711431702997,369.03,8.0,fallScene,True,lp,3000.0,501.0,151.0,500.0,489.1288568297003,499.0,False
671c6fad5a9935e94b3025fd_result,62.0,671c6fad5a9935e94b3025fd,6796e1c0ff24ca17c453c51c,67c7160b86c8488303c98404,1352.0,j,ballFalling,322.3,356.42114317029973,357.87,4.0,fallScene,True,mid,3000.0,390.27114317029975,300.0,677.7,643.5788568297003,609.7288568297002,False
671c6fad5a9935e94b3025fd_result,63.0,671c6fad5a9935e94b3025fd,6796e1c0ff24ca17c453c51c,67c7160b86c8488303c98404,867.0,f,ballFalling,322.3,308.07114317029976,253.89,2.0,fallScene,True,lp,3000.0,321.3,151.0,677.7,691.9288568297002,678.7,True
671c6fad5a9935e94b3025fd_result,64.0,671c6fad5a9935e94b3025fd,6796e1c0ff24ca17c453c51c,67c7160b86c8488303c98404,828.0,j,ballFalling,500.0,510.8711431702997,369.03,8.0,fallScene,False,gt,3000.0,510.8711431702997,369.03,500.0,510.8711431702997,510.8711431702997,True
671c6fad5a9935e94b3025fd_result,65.0,671c6fad5a9935e94b3025fd,6796e1c0ff24ca17c453c51c,67c7160b86c8488303c98404,1505.0,j,ballFalling,322.3,379.3711431702997,245.25,1.0,fallScene,False,gt,3000.0,379.3711431702997,245.25,322.3,379.3711431702997,379.3711431702997,True
671c6fad5a9935e94b3025fd_result,66.0,671c6fad5a9935e94b3025fd,6796e1c0ff24ca17c453c51c,67c7160b86c8488303c98404,1194.0,j,ballFalling,500.0,479.9211431702998,330.87,6.0,fallScene,True,gt,3000.0,479.9211431702998,330.87,500.0,520.0788568297003,520.0788568297003,True
671c6fad5a9935e94b3025fd_result,67.0,671c6fad5a9935e94b3025fd,6796e1c0ff24ca17c453c51c,67c7160b86c8488303c98404,1265.0,f,ballFalling,322.3,356.42114317029973,357.87,4.0,fallScene,False,gt,3000.0,356.42114317029973,357.87,322.3,356.42114317029973,356.42114317029973,False
671c6fad5a9935e94b3025fd_result,68.0,671c6fad5a9935e94b3025fd,6796e1c0ff24ca17c453c51c,67c7160b86c8488303c98404,799.0,j,ballFalling,500.0,453.6711431702998,210.33,5.0,fallScene,True,lp,3000.0,499.0,151.0,500.0,546.3288568297003,501.0,False
671c6fad5a9935e94b3025fd_result,69.0,671c6fad5a9935e94b3025fd,6796e1c0ff24ca17c453c51c,67c7160b86c8488303c98404,986.0,f,ballFalling,322.3,308.07114317029976,253.89,2.0,fallScene,True,lp,3000.0,321.3,151.0,677.7,691.9288568297002,678.7,True
671c6fad5a9935e94b3025fd_result,70.0,671c6fad5a9935e94b3025fd,6796e1c0ff24ca17c453c51c,67c7160b86c8488303c98404,1248.0,f,ballFalling,604.4000000000001,596.8711431702998,394.5,10.0,fallScene,False,lp,3000.0,603.4000000000001,215.50214355555383,604.4000000000001,596.8711431702998,603.4000000000001,True
671c6fad5a9935e94b3025fd_result,71.0,671c6fad5a9935e94b3025fd,6796e1c0ff24ca17c453c51c,67c7160b86c8488303c98404,1109.0,j,ballFalling,500.0,553.4711431702997,282.51,7.0,fallScene,True,lp,3000.0,501.0,227.2843295913261,500.0,446.5288568297003,499.0,False
671c6fad5a9935e94b3025fd_result,72.0,671c6fad5a9935e94b3025fd,6796e1c0ff24ca17c453c51c,67c7160b86c8488303c98404,1000.0,j,ballFalling,322.3,296.07114317029976,371.46,3.0,fallScene,False,gt,3000.0,296.07114317029976,371.46,322.3,296.07114317029976,296.07114317029976,True
671c6fad5a9935e94b3025fd_result,73.0,671c6fad5a9935e94b3025fd,6796e1c0ff24ca17c453c51c,67c7160b86c8488303c98404,866.0,j,ballFalling,322.3,356.42114317029973,357.87,4.0,fallScene,True,mid,3000.0,390.27114317029975,300.0,677.7,643.5788568297003,609.7288568297002,False
671c6fad5a9935e94b3025fd_result,74.0,671c6fad5a9935e94b3025fd,6796e1c0ff24ca17c453c51c,67c7160b86c8488303c98404,1200.0,j,ballFalling,500.0,453.6711431702998,210.33,5.0,fallScene,False,mid,3000.0,499.0,300.0,500.0,453.6711431702998,499.0,False
671c6fad5a9935e94b3025fd_result,75.0,671c6fad5a9935e94b3025fd,6796e1c0ff24ca17c453c51c,67c7160b86c8488303c98404,763.0,j,ballFalling,500.0,510.8711431702997,369.03,8.0,fallScene,True,mid,3000.0,501.0,300.0,500.0,489.1288568297003,499.0,False
671c6fad5a9935e94b3025fd_result,76.0,671c6fad5a9935e94b3025fd,6796e1c0ff24ca17c453c51c,67c7160b86c8488303c98404,983.0,j,ballFalling,500.0,479.9211431702998,330.87,6.0,fallScene,False,gt,3000.0,479.9211431702998,330.87,500.0,479.9211431702998,479.9211431702998,True
671c6fad5a9935e94b3025fd_result,77.0,671c6fad5a9935e94b3025fd,6796e1c0ff24ca17c453c51c,67c7160b86c8488303c98404,1029.0,j,ballFalling,604.4000000000001,596.8711431702998,394.5,10.0,fallScene,True,gt,3000.0,596.8711431702998,394.5,395.5999999999999,403.1288568297002,403.1288568297002,True
671c6fad5a9935e94b3025fd_result,78.0,671c6fad5a9935e94b3025fd,6796e1c0ff24ca17c453c51c,67c7160b86c8488303c98404,960.0,f,ballFalling,322.3,379.3711431702997,245.25,1.0,fallScene,False,mid,3000.0,390.27114317029975,300.0,322.3,379.3711431702997,390.27114317029975,True
671c6fad5a9935e94b3025fd_result,79.0,671c6fad5a9935e94b3025fd,6796e1c0ff24ca17c453c51c,67c7160b86c8488303c98404,989.0,j,ballFalling,322.3,379.3711431702997,245.25,1.0,fallScene,False,gt,3000.0,379.3711431702997,245.25,322.3,379.3711431702997,379.3711431702997,True
671c6fad5a9935e94b3025fd_result,80.0,671c6fad5a9935e94b3025fd,6796e1c0ff24ca17c453c51c,67c7160b86c8488303c98404,1087.0,j,ballFalling,604.4000000000001,596.8711431702998,394.5,10.0,fallScene,False,gt,3000.0,596.8711431702998,394.5,604.4000000000001,596.8711431702998,596.8711431702998,True
671c6fad5a9935e94b3025fd_result,81.0,671c6fad5a9935e94b3025fd,6796e1c0ff24ca17c453c51c,67c7160b86c8488303c98404,1100.0,f,ballFalling,604.4000000000001,596.8711431702998,394.5,10.0,fallScene,False,mid,3000.0,536.4288568297004,300.0,604.4000000000001,596.8711431702998,536.4288568297004,True
671c6fad5a9935e94b3025fd_result,82.0,671c6fad5a9935e94b3025fd,6796e1c0ff24ca17c453c51c,67c7160b86c8488303c98404,803.0,j,ballFalling,500.0,553.4711431702997,282.51,7.0,fallScene,False,gt,3000.0,553.4711431702997,282.51,500.0,553.4711431702997,553.4711431702997,True
671c6fad5a9935e94b3025fd_result,83.0,671c6fad5a9935e94b3025fd,6796e1c0ff24ca17c453c51c,67c7160b86c8488303c98404,1279.0,j,ballFalling,604.4000000000001,650.0211431702996,404.58,11.0,fallScene,False,lp,3000.0,605.4000000000001,372.6340973215488,604.4000000000001,650.0211431702996,605.4000000000001,False
671c6fad5a9935e94b3025fd_result,84.0,671c6fad5a9935e94b3025fd,6796e1c0ff24ca17c453c51c,67c7160b86c8488303c98404,1115.0,j,ballFalling,500.0,553.4711431702997,282.51,7.0,fallScene,False,lp,3000.0,501.0,227.2843295913261,500.0,553.4711431702997,501.0,False
671c6fad5a9935e94b3025fd_result,85.0,671c6fad5a9935e94b3025fd,6796e1c0ff24ca17c453c51c,67c7160b86c8488303c98404,850.0,j,ballFalling,500.0,510.8711431702997,369.03,8.0,fallScene,True,gt,3000.0,510.8711431702997,369.03,500.0,489.1288568297003,489.1288568297003,True
671c6fad5a9935e94b3025fd_result,86.0,671c6fad5a9935e94b3025fd,6796e1c0ff24ca17c453c51c,67c7160b86c8488303c98404,732.0,j,ballFalling,604.4000000000001,667.6211431702998,201.78,9.0,fallScene,True,mid,3000.0,605.4000000000001,300.0,395.5999999999999,332.3788568297002,394.5999999999999,False
671c6fad5a9935e94b3025fd_result,87.0,671c6fad5a9935e94b3025fd,6796e1c0ff24ca17c453c51c,67c7160b86c8488303c98404,1320.0,f,ballFalling,322.3,379.3711431702997,245.25,1.0,fallScene,False,mid,3000.0,390.27114317029975,300.0,322.3,379.3711431702997,390.27114317029975,True
671c6fad5a9935e94b3025fd_result,88.0,671c6fad5a9935e94b3025fd,6796e1c0ff24ca17c453c51c,67c7160b86c8488303c98404,980.0,j,ballFalling,500.0,553.4711431702997,282.51,7.0,fallScene,False,gt,3000.0,553.4711431702997,282.51,500.0,553.4711431702997,553.4711431702997,True
