participant_ID,currentTrial,subject_id,study_id,session_id,rt,response,task,ball_X,obstacle_groundTruth_x,obstacle_groundTruth_y,stimulus_idx,trial_name,flipped,choice,timeLimit,obstacle_choice_x,obstacle_choice_y,ball_X_final,obstacle_groundTruth_x_final,obstacle_choice_x_final,is_accurate
66e0d867f745183388c72031_result,1.0,66e0d867f745183388c72031,67619bf32066d179f8b4b1ec,67894f336c17c953e4726a36,853.0,f,ballFalling,604.4000000000001,596.8711431702998,394.5,10.0,fallScene,False,lp,1000.0,603.4000000000001,215.50214355555383,604.4000000000001,596.8711431702998,603.4000000000001,True
66e0d867f745183388c72031_result,2.0,66e0d867f745183388c72031,67619bf32066d179f8b4b1ec,67894f336c17c953e4726a36,981.0,f,ballFalling,322.3,308.07114317029976,253.89,2.0,fallScene,True,mid,1000.0,321.3,300.0,677.7,691.9288568297002,678.7,True
66e0d867f745183388c72031_result,3.0,66e0d867f745183388c72031,67619bf32066d179f8b4b1ec,67894f336c17c953e4726a36,793.0,j,ballFalling,604.4000000000001,596.8711431702998,394.5,10.0,fallScene,True,gt,1000.0,596.8711431702998,394.5,395.5999999999999,403.1288568297002,403.1288568297002,True
66e0d867f745183388c72031_result,4.0,66e0d867f745183388c72031,67619bf32066d179f8b4b1ec,67894f336c17c953e4726a36,677.0,j,ballFalling,604.4000000000001,650.0211431702996,404.58,11.0,fallScene,False,lp,1000.0,605.4000000000001,372.6340973215488,604.4000000000001,650.0211431702996,605.4000000000001,False
66e0d867f745183388c72031_result,5.0,66e0d867f745183388c72031,67619bf32066d179f8b4b1ec,67894f336c17c953e4726a36,788.0,f,ballFalling,322.3,296.07114317029976,371.46,3.0,fallScene,False,mid,1000.0,321.3,300.0,322.3,296.07114317029976,321.3,True
66e0d867f745183388c72031_result,6.0,66e0d867f745183388c72031,67619bf32066d179f8b4b1ec,67894f336c17c953e4726a36,930.0,f,ballFalling,322.3,296.07114317029976,371.46,3.0,fallScene,True,gt,1000.0,296.07114317029976,371.46,677.7,703.9288568297002,703.9288568297002,False
66e0d867f745183388c72031_result,7.0,66e0d867f745183388c72031,67619bf32066d179f8b4b1ec,67894f336c17c953e4726a36,,,ballFalling,604.4000000000001,667.6211431702998,201.78,9.0,fallScene,True,gt,1000.0,667.6211431702998,201.78,395.5999999999999,332.3788568297002,332.3788568297002,
66e0d867f745183388c72031_result,8.0,66e0d867f745183388c72031,67619bf32066d179f8b4b1ec,67894f336c17c953e4726a36,249.0,f,ballFalling,604.4000000000001,575.4211431702997,266.76,12.0,fallScene,False,gt,1000.0,575.4211431702997,266.76,604.4000000000001,575.4211431702997,575.4211431702997,False
66e0d867f745183388c72031_result,9.0,66e0d867f745183388c72031,67619bf32066d179f8b4b1ec,67894f336c17c953e4726a36,711.0,j,ballFalling,604.4000000000001,575.4211431702997,266.76,12.0,fallScene,False,lp,1000.0,603.4000000000001,151.0,604.4000000000001,575.4211431702997,603.4000000000001,False
66e0d867f745183388c72031_result,10.0,66e0d867f745183388c72031,67619bf32066d179f8b4b1ec,67894f336c17c953e4726a36,624.0,j,ballFalling,322.3,308.07114317029976,253.89,2.0,fallScene,False,lp,1000.0,321.3,151.0,322.3,308.07114317029976,321.3,False
66e0d867f745183388c72031_result,11.0,66e0d867f745183388c72031,67619bf32066d179f8b4b1ec,67894f336c17c953e4726a36,881.0,f,ballFalling,604.4000000000001,650.0211431702996,404.58,11.0,fallScene,False,lp,1000.0,605.4000000000001,372.6340973215488,604.4000000000001,650.0211431702996,605.4000000000001,True
66e0d867f745183388c72031_result,12.0,66e0d867f745183388c72031,67619bf32066d179f8b4b1ec,67894f336c17c953e4726a36,507.0,j,ballFalling,500.0,553.4711431702997,282.51,7.0,fallScene,False,lp,1000.0,501.0,227.2843295913261,500.0,553.4711431702997,501.0,False
66e0d867f745183388c72031_result,13.0,66e0d867f745183388c72031,67619bf32066d179f8b4b1ec,67894f336c17c953e4726a36,937.0,j,ballFalling,322.3,379.3711431702997,245.25,1.0,fallScene,False,lp,1000.0,323.3,217.74551669457017,322.3,379.3711431702997,323.3,False
66e0d867f745183388c72031_result,14.0,66e0d867f745183388c72031,67619bf32066d179f8b4b1ec,67894f336c17c953e4726a36,966.0,j,ballFalling,322.3,379.3711431702997,245.25,1.0,fallScene,False,mid,1000.0,390.27114317029975,300.0,322.3,379.3711431702997,390.27114317029975,False
66e0d867f745183388c72031_result,15.0,66e0d867f745183388c72031,67619bf32066d179f8b4b1ec,67894f336c17c953e4726a36,,,ballFalling,500.0,453.6711431702998,210.33,5.0,fallScene,False,lp,1000.0,499.0,151.0,500.0,453.6711431702998,499.0,
66e0d867f745183388c72031_result,16.0,66e0d867f745183388c72031,67619bf32066d179f8b4b1ec,67894f336c17c953e4726a36,249.0,f,ballFalling,500.0,479.9211431702998,330.87,6.0,fallScene,True,mid,1000.0,499.0,300.0,500.0,520.0788568297003,501.0,True
66e0d867f745183388c72031_result,17.0,66e0d867f745183388c72031,67619bf32066d179f8b4b1ec,67894f336c17c953e4726a36,712.0,f,ballFalling,604.4000000000001,596.8711431702998,394.5,10.0,fallScene,False,mid,1000.0,536.4288568297004,300.0,604.4000000000001,596.8711431702998,536.4288568297004,True
66e0d867f745183388c72031_result,18.0,66e0d867f745183388c72031,67619bf32066d179f8b4b1ec,67894f336c17c953e4726a36,612.0,f,ballFalling,604.4000000000001,667.6211431702998,201.78,9.0,fallScene,True,gt,1000.0,667.6211431702998,201.78,395.5999999999999,332.3788568297002,332.3788568297002,False
66e0d867f745183388c72031_result,19.0,66e0d867f745183388c72031,67619bf32066d179f8b4b1ec,67894f336c17c953e4726a36,986.0,j,ballFalling,322.3,356.42114317029973,357.87,4.0,fallScene,False,lp,1000.0,323.3,297.4070551689986,322.3,356.42114317029973,323.3,False
66e0d867f745183388c72031_result,20.0,66e0d867f745183388c72031,67619bf32066d179f8b4b1ec,67894f336c17c953e4726a36,645.0,f,ballFalling,500.0,553.4711431702997,282.51,7.0,fallScene,True,lp,1000.0,501.0,227.2843295913261,500.0,446.5288568297003,499.0,True
66e0d867f745183388c72031_result,21.0,66e0d867f745183388c72031,67619bf32066d179f8b4b1ec,67894f336c17c953e4726a36,765.0,f,ballFalling,322.3,379.3711431702997,245.25,1.0,fallScene,True,mid,1000.0,390.27114317029975,300.0,677.7,620.6288568297002,609.7288568297002,True
66e0d867f745183388c72031_result,22.0,66e0d867f745183388c72031,67619bf32066d179f8b4b1ec,67894f336c17c953e4726a36,719.0,j,ballFalling,322.3,308.07114317029976,253.89,2.0,fallScene,False,mid,1000.0,321.3,300.0,322.3,308.07114317029976,321.3,False
66e0d867f745183388c72031_result,23.0,66e0d867f745183388c72031,67619bf32066d179f8b4b1ec,67894f336c17c953e4726a36,849.0,f,ballFalling,500.0,510.8711431702997,369.03,8.0,fallScene,True,gt,1000.0,510.8711431702997,369.03,500.0,489.1288568297003,489.1288568297003,False
66e0d867f745183388c72031_result,24.0,66e0d867f745183388c72031,67619bf32066d179f8b4b1ec,67894f336c17c953e4726a36,773.0,j,ballFalling,500.0,510.8711431702997,369.03,8.0,fallScene,True,mid,1000.0,501.0,300.0,500.0,489.1288568297003,499.0,False
66e0d867f745183388c72031_result,25.0,66e0d867f745183388c72031,67619bf32066d179f8b4b1ec,67894f336c17c953e4726a36,632.0,j,ballFalling,604.4000000000001,575.4211431702997,266.76,12.0,fallScene,True,gt,3000.0,575.4211431702997,266.76,395.5999999999999,424.57885682970027,424.57885682970027,True
66e0d867f745183388c72031_result,26.0,66e0d867f745183388c72031,67619bf32066d179f8b4b1ec,67894f336c17c953e4726a36,743.0,f,ballFalling,322.3,308.07114317029976,253.89,2.0,fallScene,False,gt,3000.0,308.07114317029976,253.89,322.3,308.07114317029976,308.07114317029976,False
66e0d867f745183388c72031_result,27.0,66e0d867f745183388c72031,67619bf32066d179f8b4b1ec,67894f336c17c953e4726a36,957.0,f,ballFalling,500.0,479.9211431702998,330.87,6.0,fallScene,True,gt,3000.0,479.9211431702998,330.87,500.0,520.0788568297003,520.0788568297003,False
66e0d867f745183388c72031_result,28.0,66e0d867f745183388c72031,67619bf32066d179f8b4b1ec,67894f336c17c953e4726a36,832.0,f,ballFalling,604.4000000000001,650.0211431702996,404.58,11.0,fallScene,True,lp,3000.0,605.4000000000001,372.6340973215488,395.5999999999999,349.97885682970036,394.5999999999999,True
66e0d867f745183388c72031_result,29.0,66e0d867f745183388c72031,67619bf32066d179f8b4b1ec,67894f336c17c953e4726a36,961.0,f,ballFalling,322.3,379.3711431702997,245.25,1.0,fallScene,False,mid,3000.0,390.27114317029975,300.0,322.3,379.3711431702997,390.27114317029975,True
66e0d867f745183388c72031_result,30.0,66e0d867f745183388c72031,67619bf32066d179f8b4b1ec,67894f336c17c953e4726a36,1355.0,j,ballFalling,604.4000000000001,650.0211431702996,404.58,11.0,fallScene,False,mid,3000.0,605.4000000000001,300.0,604.4000000000001,650.0211431702996,605.4000000000001,False
66e0d867f745183388c72031_result,31.0,66e0d867f745183388c72031,67619bf32066d179f8b4b1ec,67894f336c17c953e4726a36,737.0,f,ballFalling,322.3,296.07114317029976,371.46,3.0,fallScene,False,gt,3000.0,296.07114317029976,371.46,322.3,296.07114317029976,296.07114317029976,False
66e0d867f745183388c72031_result,32.0,66e0d867f745183388c72031,67619bf32066d179f8b4b1ec,67894f336c17c953e4726a36,1065.0,j,ballFalling,500.0,553.4711431702997,282.51,7.0,fallScene,True,lp,3000.0,501.0,227.2843295913261,500.0,446.5288568297003,499.0,False
66e0d867f745183388c72031_result,33.0,66e0d867f745183388c72031,67619bf32066d179f8b4b1ec,67894f336c17c953e4726a36,680.0,f,ballFalling,500.0,553.4711431702997,282.51,7.0,fallScene,True,gt,3000.0,553.4711431702997,282.51,500.0,446.5288568297003,446.5288568297003,False
66e0d867f745183388c72031_result,34.0,66e0d867f745183388c72031,67619bf32066d179f8b4b1ec,67894f336c17c953e4726a36,740.0,f,ballFalling,604.4000000000001,575.4211431702997,266.76,12.0,fallScene,False,lp,3000.0,603.4000000000001,151.0,604.4000000000001,575.4211431702997,603.4000000000001,True
66e0d867f745183388c72031_result,35.0,66e0d867f745183388c72031,67619bf32066d179f8b4b1ec,67894f336c17c953e4726a36,683.0,f,ballFalling,604.4000000000001,596.8711431702998,394.5,10.0,fallScene,True,mid,3000.0,536.4288568297004,300.0,395.5999999999999,403.1288568297002,463.5711431702996,True
66e0d867f745183388c72031_result,36.0,66e0d867f745183388c72031,67619bf32066d179f8b4b1ec,67894f336c17c953e4726a36,845.0,j,ballFalling,322.3,356.42114317029973,357.87,4.0,fallScene,True,mid,3000.0,390.27114317029975,300.0,677.7,643.5788568297003,609.7288568297002,False
66e0d867f745183388c72031_result,37.0,66e0d867f745183388c72031,67619bf32066d179f8b4b1ec,67894f336c17c953e4726a36,821.0,j,ballFalling,322.3,356.42114317029973,357.87,4.0,fallScene,True,lp,3000.0,323.3,297.4070551689986,677.7,643.5788568297003,676.7,False
66e0d867f745183388c72031_result,38.0,66e0d867f745183388c72031,67619bf32066d179f8b4b1ec,67894f336c17c953e4726a36,624.0,f,ballFalling,604.4000000000001,575.4211431702997,266.76,12.0,fallScene,False,gt,3000.0,575.4211431702997,266.76,604.4000000000001,575.4211431702997,575.4211431702997,False
66e0d867f745183388c72031_result,39.0,66e0d867f745183388c72031,67619bf32066d179f8b4b1ec,67894f336c17c953e4726a36,1289.0,f,ballFalling,604.4000000000001,667.6211431702998,201.78,9.0,fallScene,False,lp,3000.0,605.4000000000001,151.0,604.4000000000001,667.6211431702998,605.4000000000001,True
66e0d867f745183388c72031_result,40.0,66e0d867f745183388c72031,67619bf32066d179f8b4b1ec,67894f336c17c953e4726a36,977.0,f,ballFalling,604.4000000000001,575.4211431702997,266.76,12.0,fallScene,False,mid,3000.0,536.4288568297004,300.0,604.4000000000001,575.4211431702997,536.4288568297004,True
66e0d867f745183388c72031_result,41.0,66e0d867f745183388c72031,67619bf32066d179f8b4b1ec,67894f336c17c953e4726a36,1062.0,f,ballFalling,604.4000000000001,596.8711431702998,394.5,10.0,fallScene,True,gt,3000.0,596.8711431702998,394.5,395.5999999999999,403.1288568297002,403.1288568297002,False
66e0d867f745183388c72031_result,42.0,66e0d867f745183388c72031,67619bf32066d179f8b4b1ec,67894f336c17c953e4726a36,1008.0,j,ballFalling,500.0,479.9211431702998,330.87,6.0,fallScene,False,mid,3000.0,499.0,300.0,500.0,479.9211431702998,499.0,False
66e0d867f745183388c72031_result,43.0,66e0d867f745183388c72031,67619bf32066d179f8b4b1ec,67894f336c17c953e4726a36,782.0,f,ballFalling,500.0,553.4711431702997,282.51,7.0,fallScene,False,lp,3000.0,501.0,227.2843295913261,500.0,553.4711431702997,501.0,True
66e0d867f745183388c72031_result,44.0,66e0d867f745183388c72031,67619bf32066d179f8b4b1ec,67894f336c17c953e4726a36,696.0,f,ballFalling,604.4000000000001,667.6211431702998,201.78,9.0,fallScene,True,gt,3000.0,667.6211431702998,201.78,395.5999999999999,332.3788568297002,332.3788568297002,False
66e0d867f745183388c72031_result,45.0,66e0d867f745183388c72031,67619bf32066d179f8b4b1ec,67894f336c17c953e4726a36,856.0,j,ballFalling,322.3,379.3711431702997,245.25,1.0,fallScene,True,lp,3000.0,323.3,217.74551669457017,677.7,620.6288568297002,676.7,False
66e0d867f745183388c72031_result,46.0,66e0d867f745183388c72031,67619bf32066d179f8b4b1ec,67894f336c17c953e4726a36,987.0,f,ballFalling,322.3,296.07114317029976,371.46,3.0,fallScene,False,lp,3000.0,321.3,287.3327096511259,322.3,296.07114317029976,321.3,True
66e0d867f745183388c72031_result,47.0,66e0d867f745183388c72031,67619bf32066d179f8b4b1ec,67894f336c17c953e4726a36,883.0,f,ballFalling,500.0,553.4711431702997,282.51,7.0,fallScene,False,gt,3000.0,553.4711431702997,282.51,500.0,553.4711431702997,553.4711431702997,False
66e0d867f745183388c72031_result,48.0,66e0d867f745183388c72031,67619bf32066d179f8b4b1ec,67894f336c17c953e4726a36,1561.0,j,ballFalling,500.0,510.8711431702997,369.03,8.0,fallScene,False,gt,3000.0,510.8711431702997,369.03,500.0,510.8711431702997,510.8711431702997,True
66e0d867f745183388c72031_result,49.0,66e0d867f745183388c72031,67619bf32066d179f8b4b1ec,67894f336c17c953e4726a36,504.0,j,ballFalling,604.4000000000001,667.6211431702998,201.78,9.0,fallScene,False,mid,1000.0,605.4000000000001,300.0,604.4000000000001,667.6211431702998,605.4000000000001,False
66e0d867f745183388c72031_result,50.0,66e0d867f745183388c72031,67619bf32066d179f8b4b1ec,67894f336c17c953e4726a36,638.0,f,ballFalling,322.3,356.42114317029973,357.87,4.0,fallScene,False,gt,1000.0,356.42114317029973,357.87,322.3,356.42114317029973,356.42114317029973,False
66e0d867f745183388c72031_result,51.0,66e0d867f745183388c72031,67619bf32066d179f8b4b1ec,67894f336c17c953e4726a36,643.0,j,ballFalling,604.4000000000001,650.0211431702996,404.58,11.0,fallScene,True,mid,1000.0,605.4000000000001,300.0,395.5999999999999,349.97885682970036,394.5999999999999,False
66e0d867f745183388c72031_result,52.0,66e0d867f745183388c72031,67619bf32066d179f8b4b1ec,67894f336c17c953e4726a36,515.0,f,ballFalling,604.4000000000001,575.4211431702997,266.76,12.0,fallScene,True,mid,1000.0,536.4288568297004,300.0,395.5999999999999,424.57885682970027,463.5711431702996,True
66e0d867f745183388c72031_result,53.0,66e0d867f745183388c72031,67619bf32066d179f8b4b1ec,67894f336c17c953e4726a36,764.0,j,ballFalling,604.4000000000001,650.0211431702996,404.58,11.0,fallScene,False,gt,1000.0,650.0211431702996,404.58,604.4000000000001,650.0211431702996,650.0211431702996,True
66e0d867f745183388c72031_result,54.0,66e0d867f745183388c72031,67619bf32066d179f8b4b1ec,67894f336c17c953e4726a36,864.0,f,ballFalling,604.4000000000001,596.8711431702998,394.5,10.0,fallScene,True,lp,1000.0,603.4000000000001,215.50214355555383,395.5999999999999,403.1288568297002,396.5999999999999,True
66e0d867f745183388c72031_result,55.0,66e0d867f745183388c72031,67619bf32066d179f8b4b1ec,67894f336c17c953e4726a36,780.0,j,ballFalling,322.3,296.07114317029976,371.46,3.0,fallScene,False,gt,1000.0,296.07114317029976,371.46,322.3,296.07114317029976,296.07114317029976,True
66e0d867f745183388c72031_result,56.0,66e0d867f745183388c72031,67619bf32066d179f8b4b1ec,67894f336c17c953e4726a36,965.0,j,ballFalling,322.3,308.07114317029976,253.89,2.0,fallScene,False,lp,1000.0,321.3,151.0,322.3,308.07114317029976,321.3,False
66e0d867f745183388c72031_result,57.0,66e0d867f745183388c72031,67619bf32066d179f8b4b1ec,67894f336c17c953e4726a36,623.0,f,ballFalling,500.0,553.4711431702997,282.51,7.0,fallScene,False,gt,1000.0,553.4711431702997,282.51,500.0,553.4711431702997,553.4711431702997,False
66e0d867f745183388c72031_result,58.0,66e0d867f745183388c72031,67619bf32066d179f8b4b1ec,67894f336c17c953e4726a36,836.0,f,ballFalling,604.4000000000001,596.8711431702998,394.5,10.0,fallScene,False,mid,1000.0,536.4288568297004,300.0,604.4000000000001,596.8711431702998,536.4288568297004,True
66e0d867f745183388c72031_result,59.0,66e0d867f745183388c72031,67619bf32066d179f8b4b1ec,67894f336c17c953e4726a36,795.0,f,ballFalling,604.4000000000001,650.0211431702996,404.58,11.0,fallScene,True,gt,1000.0,650.0211431702996,404.58,395.5999999999999,349.97885682970036,349.97885682970036,False
66e0d867f745183388c72031_result,60.0,66e0d867f745183388c72031,67619bf32066d179f8b4b1ec,67894f336c17c953e4726a36,595.0,j,ballFalling,604.4000000000001,575.4211431702997,266.76,12.0,fallScene,False,mid,1000.0,536.4288568297004,300.0,604.4000000000001,575.4211431702997,536.4288568297004,False
66e0d867f745183388c72031_result,61.0,66e0d867f745183388c72031,67619bf32066d179f8b4b1ec,67894f336c17c953e4726a36,690.0,j,ballFalling,322.3,296.07114317029976,371.46,3.0,fallScene,False,lp,1000.0,321.3,287.3327096511259,322.3,296.07114317029976,321.3,False
66e0d867f745183388c72031_result,62.0,66e0d867f745183388c72031,67619bf32066d179f8b4b1ec,67894f336c17c953e4726a36,642.0,j,ballFalling,322.3,356.42114317029973,357.87,4.0,fallScene,False,lp,1000.0,323.3,297.4070551689986,322.3,356.42114317029973,323.3,False
66e0d867f745183388c72031_result,63.0,66e0d867f745183388c72031,67619bf32066d179f8b4b1ec,67894f336c17c953e4726a36,801.0,j,ballFalling,604.4000000000001,667.6211431702998,201.78,9.0,fallScene,False,mid,1000.0,605.4000000000001,300.0,604.4000000000001,667.6211431702998,605.4000000000001,False
66e0d867f745183388c72031_result,64.0,66e0d867f745183388c72031,67619bf32066d179f8b4b1ec,67894f336c17c953e4726a36,741.0,f,ballFalling,604.4000000000001,596.8711431702998,394.5,10.0,fallScene,True,gt,1000.0,596.8711431702998,394.5,395.5999999999999,403.1288568297002,403.1288568297002,False
66e0d867f745183388c72031_result,65.0,66e0d867f745183388c72031,67619bf32066d179f8b4b1ec,67894f336c17c953e4726a36,750.0,j,ballFalling,500.0,453.6711431702998,210.33,5.0,fallScene,False,gt,1000.0,453.6711431702998,210.33,500.0,453.6711431702998,453.6711431702998,True
66e0d867f745183388c72031_result,66.0,66e0d867f745183388c72031,67619bf32066d179f8b4b1ec,67894f336c17c953e4726a36,918.0,f,ballFalling,500.0,510.8711431702997,369.03,8.0,fallScene,True,lp,1000.0,501.0,151.0,500.0,489.1288568297003,499.0,True
66e0d867f745183388c72031_result,67.0,66e0d867f745183388c72031,67619bf32066d179f8b4b1ec,67894f336c17c953e4726a36,482.0,j,ballFalling,322.3,379.3711431702997,245.25,1.0,fallScene,False,lp,1000.0,323.3,217.74551669457017,322.3,379.3711431702997,323.3,False
66e0d867f745183388c72031_result,68.0,66e0d867f745183388c72031,67619bf32066d179f8b4b1ec,67894f336c17c953e4726a36,730.0,j,ballFalling,500.0,479.9211431702998,330.87,6.0,fallScene,True,gt,1000.0,479.9211431702998,330.87,500.0,520.0788568297003,520.0788568297003,True
66e0d867f745183388c72031_result,69.0,66e0d867f745183388c72031,67619bf32066d179f8b4b1ec,67894f336c17c953e4726a36,868.0,j,ballFalling,322.3,379.3711431702997,245.25,1.0,fallScene,False,gt,1000.0,379.3711431702997,245.25,322.3,379.3711431702997,379.3711431702997,True
66e0d867f745183388c72031_result,70.0,66e0d867f745183388c72031,67619bf32066d179f8b4b1ec,67894f336c17c953e4726a36,981.0,f,ballFalling,322.3,296.07114317029976,371.46,3.0,fallScene,True,lp,1000.0,321.3,287.3327096511259,677.7,703.9288568297002,678.7,True
66e0d867f745183388c72031_result,71.0,66e0d867f745183388c72031,67619bf32066d179f8b4b1ec,67894f336c17c953e4726a36,545.0,j,ballFalling,500.0,453.6711431702998,210.33,5.0,fallScene,True,mid,1000.0,499.0,300.0,500.0,546.3288568297003,501.0,False
66e0d867f745183388c72031_result,72.0,66e0d867f745183388c72031,67619bf32066d179f8b4b1ec,67894f336c17c953e4726a36,557.0,j,ballFalling,322.3,308.07114317029976,253.89,2.0,fallScene,False,gt,1000.0,308.07114317029976,253.89,322.3,308.07114317029976,308.07114317029976,True
66e0d867f745183388c72031_result,73.0,66e0d867f745183388c72031,67619bf32066d179f8b4b1ec,67894f336c17c953e4726a36,794.0,f,ballFalling,604.4000000000001,650.0211431702996,404.58,11.0,fallScene,True,mid,1000.0,605.4000000000001,300.0,395.5999999999999,349.97885682970036,394.5999999999999,True
66e0d867f745183388c72031_result,74.0,66e0d867f745183388c72031,67619bf32066d179f8b4b1ec,67894f336c17c953e4726a36,858.0,f,ballFalling,500.0,510.8711431702997,369.03,8.0,fallScene,True,lp,1000.0,501.0,151.0,500.0,489.1288568297003,499.0,True
66e0d867f745183388c72031_result,75.0,66e0d867f745183388c72031,67619bf32066d179f8b4b1ec,67894f336c17c953e4726a36,783.0,j,ballFalling,604.4000000000001,575.4211431702997,266.76,12.0,fallScene,True,lp,1000.0,603.4000000000001,151.0,395.5999999999999,424.57885682970027,396.5999999999999,False
66e0d867f745183388c72031_result,76.0,66e0d867f745183388c72031,67619bf32066d179f8b4b1ec,67894f336c17c953e4726a36,502.0,j,ballFalling,322.3,356.42114317029973,357.87,4.0,fallScene,True,mid,1000.0,390.27114317029975,300.0,677.7,643.5788568297003,609.7288568297002,False
66e0d867f745183388c72031_result,77.0,66e0d867f745183388c72031,67619bf32066d179f8b4b1ec,67894f336c17c953e4726a36,537.0,j,ballFalling,322.3,296.07114317029976,371.46,3.0,fallScene,False,mid,1000.0,321.3,300.0,322.3,296.07114317029976,321.3,False
66e0d867f745183388c72031_result,78.0,66e0d867f745183388c72031,67619bf32066d179f8b4b1ec,67894f336c17c953e4726a36,831.0,f,ballFalling,500.0,479.9211431702998,330.87,6.0,fallScene,True,lp,1000.0,499.0,189.92909825697632,500.0,520.0788568297003,501.0,True
66e0d867f745183388c72031_result,79.0,66e0d867f745183388c72031,67619bf32066d179f8b4b1ec,67894f336c17c953e4726a36,589.0,f,ballFalling,500.0,453.6711431702998,210.33,5.0,fallScene,False,lp,1000.0,499.0,151.0,500.0,453.6711431702998,499.0,True
66e0d867f745183388c72031_result,80.0,66e0d867f745183388c72031,67619bf32066d179f8b4b1ec,67894f336c17c953e4726a36,488.0,j,ballFalling,604.4000000000001,575.4211431702997,266.76,12.0,fallScene,False,gt,1000.0,575.4211431702997,266.76,604.4000000000001,575.4211431702997,575.4211431702997,True
66e0d867f745183388c72031_result,81.0,66e0d867f745183388c72031,67619bf32066d179f8b4b1ec,67894f336c17c953e4726a36,715.0,j,ballFalling,500.0,453.6711431702998,210.33,5.0,fallScene,True,gt,1000.0,453.6711431702998,210.33,500.0,546.3288568297003,546.3288568297003,True
66e0d867f745183388c72031_result,82.0,66e0d867f745183388c72031,67619bf32066d179f8b4b1ec,67894f336c17c953e4726a36,762.0,j,ballFalling,500.0,479.9211431702998,330.87,6.0,fallScene,False,lp,1000.0,499.0,189.92909825697632,500.0,479.9211431702998,499.0,False
66e0d867f745183388c72031_result,83.0,66e0d867f745183388c72031,67619bf32066d179f8b4b1ec,67894f336c17c953e4726a36,658.0,f,ballFalling,500.0,453.6711431702998,210.33,5.0,fallScene,True,mid,1000.0,499.0,300.0,500.0,546.3288568297003,501.0,True
66e0d867f745183388c72031_result,84.0,66e0d867f745183388c72031,67619bf32066d179f8b4b1ec,67894f336c17c953e4726a36,622.0,j,ballFalling,500.0,553.4711431702997,282.51,7.0,fallScene,False,mid,1000.0,501.0,300.0,500.0,553.4711431702997,501.0,False
66e0d867f745183388c72031_result,85.0,66e0d867f745183388c72031,67619bf32066d179f8b4b1ec,67894f336c17c953e4726a36,940.0,j,ballFalling,500.0,510.8711431702997,369.03,8.0,fallScene,True,gt,1000.0,510.8711431702997,369.03,500.0,489.1288568297003,489.1288568297003,True
66e0d867f745183388c72031_result,86.0,66e0d867f745183388c72031,67619bf32066d179f8b4b1ec,67894f336c17c953e4726a36,737.0,j,ballFalling,500.0,510.8711431702997,369.03,8.0,fallScene,False,mid,1000.0,501.0,300.0,500.0,510.8711431702997,501.0,False
66e0d867f745183388c72031_result,87.0,66e0d867f745183388c72031,67619bf32066d179f8b4b1ec,67894f336c17c953e4726a36,978.0,f,ballFalling,604.4000000000001,667.6211431702998,201.78,9.0,fallScene,False,lp,1000.0,605.4000000000001,151.0,604.4000000000001,667.6211431702998,605.4000000000001,True
66e0d867f745183388c72031_result,88.0,66e0d867f745183388c72031,67619bf32066d179f8b4b1ec,67894f336c17c953e4726a36,392.0,f,ballFalling,604.4000000000001,667.6211431702998,201.78,9.0,fallScene,True,lp,1000.0,605.4000000000001,151.0,395.5999999999999,332.3788568297002,394.5999999999999,True
66e0d867f745183388c72031_result,89.0,66e0d867f745183388c72031,67619bf32066d179f8b4b1ec,67894f336c17c953e4726a36,662.0,j,ballFalling,500.0,553.4711431702997,282.51,7.0,fallScene,True,mid,1000.0,501.0,300.0,500.0,446.5288568297003,499.0,False
66e0d867f745183388c72031_result,90.0,66e0d867f745183388c72031,67619bf32066d179f8b4b1ec,67894f336c17c953e4726a36,887.0,f,ballFalling,322.3,356.42114317029973,357.87,4.0,fallScene,True,mid,1000.0,390.27114317029975,300.0,677.7,643.5788568297003,609.7288568297002,True
66e0d867f745183388c72031_result,91.0,66e0d867f745183388c72031,67619bf32066d179f8b4b1ec,67894f336c17c953e4726a36,474.0,f,ballFalling,322.3,308.07114317029976,253.89,2.0,fallScene,False,gt,1000.0,308.07114317029976,253.89,322.3,308.07114317029976,308.07114317029976,False
66e0d867f745183388c72031_result,92.0,66e0d867f745183388c72031,67619bf32066d179f8b4b1ec,67894f336c17c953e4726a36,779.0,f,ballFalling,500.0,479.9211431702998,330.87,6.0,fallScene,True,mid,1000.0,499.0,300.0,500.0,520.0788568297003,501.0,True
66e0d867f745183388c72031_result,93.0,66e0d867f745183388c72031,67619bf32066d179f8b4b1ec,67894f336c17c953e4726a36,588.0,j,ballFalling,322.3,356.42114317029973,357.87,4.0,fallScene,True,gt,1000.0,356.42114317029973,357.87,677.7,643.5788568297003,643.5788568297003,True
66e0d867f745183388c72031_result,94.0,66e0d867f745183388c72031,67619bf32066d179f8b4b1ec,67894f336c17c953e4726a36,751.0,f,ballFalling,500.0,479.9211431702998,330.87,6.0,fallScene,True,gt,1000.0,479.9211431702998,330.87,500.0,520.0788568297003,520.0788568297003,False
66e0d867f745183388c72031_result,95.0,66e0d867f745183388c72031,67619bf32066d179f8b4b1ec,67894f336c17c953e4726a36,877.0,f,ballFalling,500.0,553.4711431702997,282.51,7.0,fallScene,True,gt,1000.0,553.4711431702997,282.51,500.0,446.5288568297003,446.5288568297003,False
66e0d867f745183388c72031_result,96.0,66e0d867f745183388c72031,67619bf32066d179f8b4b1ec,67894f336c17c953e4726a36,324.0,j,ballFalling,322.3,379.3711431702997,245.25,1.0,fallScene,True,gt,1000.0,379.3711431702997,245.25,677.7,620.6288568297002,620.6288568297002,True
66e0d867f745183388c72031_result,97.0,66e0d867f745183388c72031,67619bf32066d179f8b4b1ec,67894f336c17c953e4726a36,961.0,f,ballFalling,500.0,510.8711431702997,369.03,8.0,fallScene,False,lp,3000.0,501.0,151.0,500.0,510.8711431702997,501.0,True
66e0d867f745183388c72031_result,98.0,66e0d867f745183388c72031,67619bf32066d179f8b4b1ec,67894f336c17c953e4726a36,809.0,j,ballFalling,604.4000000000001,667.6211431702998,201.78,9.0,fallScene,True,mid,3000.0,605.4000000000001,300.0,395.5999999999999,332.3788568297002,394.5999999999999,False
66e0d867f745183388c72031_result,99.0,66e0d867f745183388c72031,67619bf32066d179f8b4b1ec,67894f336c17c953e4726a36,776.0,j,ballFalling,322.3,308.07114317029976,253.89,2.0,fallScene,False,gt,3000.0,308.07114317029976,253.89,322.3,308.07114317029976,308.07114317029976,True
66e0d867f745183388c72031_result,100.0,66e0d867f745183388c72031,67619bf32066d179f8b4b1ec,67894f336c17c953e4726a36,774.0,f,ballFalling,500.0,479.9211431702998,330.87,6.0,fallScene,False,gt,3000.0,479.9211431702998,330.87,500.0,479.9211431702998,479.9211431702998,False
66e0d867f745183388c72031_result,101.0,66e0d867f745183388c72031,67619bf32066d179f8b4b1ec,67894f336c17c953e4726a36,790.0,j,ballFalling,322.3,308.07114317029976,253.89,2.0,fallScene,True,mid,3000.0,321.3,300.0,677.7,691.9288568297002,678.7,False
66e0d867f745183388c72031_result,102.0,66e0d867f745183388c72031,67619bf32066d179f8b4b1ec,67894f336c17c953e4726a36,754.0,f,ballFalling,604.4000000000001,650.0211431702996,404.58,11.0,fallScene,False,gt,3000.0,650.0211431702996,404.58,604.4000000000001,650.0211431702996,650.0211431702996,False
66e0d867f745183388c72031_result,103.0,66e0d867f745183388c72031,67619bf32066d179f8b4b1ec,67894f336c17c953e4726a36,516.0,j,ballFalling,322.3,356.42114317029973,357.87,4.0,fallScene,False,gt,3000.0,356.42114317029973,357.87,322.3,356.42114317029973,356.42114317029973,True
66e0d867f745183388c72031_result,104.0,66e0d867f745183388c72031,67619bf32066d179f8b4b1ec,67894f336c17c953e4726a36,998.0,f,ballFalling,604.4000000000001,596.8711431702998,394.5,10.0,fallScene,False,lp,3000.0,603.4000000000001,215.50214355555383,604.4000000000001,596.8711431702998,603.4000000000001,True
66e0d867f745183388c72031_result,105.0,66e0d867f745183388c72031,67619bf32066d179f8b4b1ec,67894f336c17c953e4726a36,653.0,j,ballFalling,500.0,510.8711431702997,369.03,8.0,fallScene,False,mid,3000.0,501.0,300.0,500.0,510.8711431702997,501.0,False
66e0d867f745183388c72031_result,106.0,66e0d867f745183388c72031,67619bf32066d179f8b4b1ec,67894f336c17c953e4726a36,1099.0,j,ballFalling,322.3,308.07114317029976,253.89,2.0,fallScene,True,mid,3000.0,321.3,300.0,677.7,691.9288568297002,678.7,False
66e0d867f745183388c72031_result,107.0,66e0d867f745183388c72031,67619bf32066d179f8b4b1ec,67894f336c17c953e4726a36,648.0,f,ballFalling,500.0,453.6711431702998,210.33,5.0,fallScene,False,lp,3000.0,499.0,151.0,500.0,453.6711431702998,499.0,True
66e0d867f745183388c72031_result,108.0,66e0d867f745183388c72031,67619bf32066d179f8b4b1ec,67894f336c17c953e4726a36,1576.0,j,ballFalling,604.4000000000001,667.6211431702998,201.78,9.0,fallScene,False,lp,3000.0,605.4000000000001,151.0,604.4000000000001,667.6211431702998,605.4000000000001,False
66e0d867f745183388c72031_result,109.0,66e0d867f745183388c72031,67619bf32066d179f8b4b1ec,67894f336c17c953e4726a36,805.0,f,ballFalling,322.3,296.07114317029976,371.46,3.0,fallScene,False,mid,3000.0,321.3,300.0,322.3,296.07114317029976,321.3,True
66e0d867f745183388c72031_result,110.0,66e0d867f745183388c72031,67619bf32066d179f8b4b1ec,67894f336c17c953e4726a36,609.0,j,ballFalling,500.0,553.4711431702997,282.51,7.0,fallScene,False,mid,3000.0,501.0,300.0,500.0,553.4711431702997,501.0,False
66e0d867f745183388c72031_result,111.0,66e0d867f745183388c72031,67619bf32066d179f8b4b1ec,67894f336c17c953e4726a36,1253.0,j,ballFalling,322.3,379.3711431702997,245.25,1.0,fallScene,True,gt,3000.0,379.3711431702997,245.25,677.7,620.6288568297002,620.6288568297002,True
66e0d867f745183388c72031_result,112.0,66e0d867f745183388c72031,67619bf32066d179f8b4b1ec,67894f336c17c953e4726a36,643.0,j,ballFalling,500.0,453.6711431702998,210.33,5.0,fallScene,True,mid,3000.0,499.0,300.0,500.0,546.3288568297003,501.0,False
66e0d867f745183388c72031_result,113.0,66e0d867f745183388c72031,67619bf32066d179f8b4b1ec,67894f336c17c953e4726a36,1161.0,f,ballFalling,604.4000000000001,596.8711431702998,394.5,10.0,fallScene,True,gt,3000.0,596.8711431702998,394.5,395.5999999999999,403.1288568297002,403.1288568297002,False
66e0d867f745183388c72031_result,114.0,66e0d867f745183388c72031,67619bf32066d179f8b4b1ec,67894f336c17c953e4726a36,697.0,f,ballFalling,604.4000000000001,596.8711431702998,394.5,10.0,fallScene,True,mid,3000.0,536.4288568297004,300.0,395.5999999999999,403.1288568297002,463.5711431702996,True
66e0d867f745183388c72031_result,115.0,66e0d867f745183388c72031,67619bf32066d179f8b4b1ec,67894f336c17c953e4726a36,717.0,j,ballFalling,604.4000000000001,575.4211431702997,266.76,12.0,fallScene,True,mid,3000.0,536.4288568297004,300.0,395.5999999999999,424.57885682970027,463.5711431702996,False
66e0d867f745183388c72031_result,116.0,66e0d867f745183388c72031,67619bf32066d179f8b4b1ec,67894f336c17c953e4726a36,1726.0,f,ballFalling,322.3,356.42114317029973,357.87,4.0,fallScene,True,gt,3000.0,356.42114317029973,357.87,677.7,643.5788568297003,643.5788568297003,False
66e0d867f745183388c72031_result,117.0,66e0d867f745183388c72031,67619bf32066d179f8b4b1ec,67894f336c17c953e4726a36,1238.0,f,ballFalling,322.3,308.07114317029976,253.89,2.0,fallScene,True,lp,3000.0,321.3,151.0,677.7,691.9288568297002,678.7,True
66e0d867f745183388c72031_result,118.0,66e0d867f745183388c72031,67619bf32066d179f8b4b1ec,67894f336c17c953e4726a36,895.0,f,ballFalling,500.0,453.6711431702998,210.33,5.0,fallScene,True,gt,3000.0,453.6711431702998,210.33,500.0,546.3288568297003,546.3288568297003,False
66e0d867f745183388c72031_result,119.0,66e0d867f745183388c72031,67619bf32066d179f8b4b1ec,67894f336c17c953e4726a36,850.0,f,ballFalling,500.0,510.8711431702997,369.03,8.0,fallScene,False,gt,3000.0,510.8711431702997,369.03,500.0,510.8711431702997,510.8711431702997,False
66e0d867f745183388c72031_result,120.0,66e0d867f745183388c72031,67619bf32066d179f8b4b1ec,67894f336c17c953e4726a36,752.0,j,ballFalling,322.3,356.42114317029973,357.87,4.0,fallScene,False,lp,3000.0,323.3,297.4070551689986,322.3,356.42114317029973,323.3,False
66e0d867f745183388c72031_result,121.0,66e0d867f745183388c72031,67619bf32066d179f8b4b1ec,67894f336c17c953e4726a36,797.0,j,ballFalling,322.3,379.3711431702997,245.25,1.0,fallScene,False,mid,3000.0,390.27114317029975,300.0,322.3,379.3711431702997,390.27114317029975,False
66e0d867f745183388c72031_result,122.0,66e0d867f745183388c72031,67619bf32066d179f8b4b1ec,67894f336c17c953e4726a36,573.0,f,ballFalling,604.4000000000001,575.4211431702997,266.76,12.0,fallScene,True,lp,3000.0,603.4000000000001,151.0,395.5999999999999,424.57885682970027,396.5999999999999,True
66e0d867f745183388c72031_result,123.0,66e0d867f745183388c72031,67619bf32066d179f8b4b1ec,67894f336c17c953e4726a36,733.0,j,ballFalling,604.4000000000001,650.0211431702996,404.58,11.0,fallScene,True,mid,3000.0,605.4000000000001,300.0,395.5999999999999,349.97885682970036,394.5999999999999,False
66e0d867f745183388c72031_result,124.0,66e0d867f745183388c72031,67619bf32066d179f8b4b1ec,67894f336c17c953e4726a36,715.0,f,ballFalling,500.0,453.6711431702998,210.33,5.0,fallScene,True,gt,3000.0,453.6711431702998,210.33,500.0,546.3288568297003,546.3288568297003,False
66e0d867f745183388c72031_result,125.0,66e0d867f745183388c72031,67619bf32066d179f8b4b1ec,67894f336c17c953e4726a36,511.0,j,ballFalling,322.3,296.07114317029976,371.46,3.0,fallScene,True,mid,3000.0,321.3,300.0,677.7,703.9288568297002,678.7,False
66e0d867f745183388c72031_result,126.0,66e0d867f745183388c72031,67619bf32066d179f8b4b1ec,67894f336c17c953e4726a36,633.0,f,ballFalling,604.4000000000001,596.8711431702998,394.5,10.0,fallScene,False,lp,3000.0,603.4000000000001,215.50214355555383,604.4000000000001,596.8711431702998,603.4000000000001,True
66e0d867f745183388c72031_result,127.0,66e0d867f745183388c72031,67619bf32066d179f8b4b1ec,67894f336c17c953e4726a36,510.0,j,ballFalling,604.4000000000001,667.6211431702998,201.78,9.0,fallScene,True,mid,3000.0,605.4000000000001,300.0,395.5999999999999,332.3788568297002,394.5999999999999,False
66e0d867f745183388c72031_result,128.0,66e0d867f745183388c72031,67619bf32066d179f8b4b1ec,67894f336c17c953e4726a36,795.0,f,ballFalling,500.0,479.9211431702998,330.87,6.0,fallScene,False,lp,3000.0,499.0,189.92909825697632,500.0,479.9211431702998,499.0,True
66e0d867f745183388c72031_result,129.0,66e0d867f745183388c72031,67619bf32066d179f8b4b1ec,67894f336c17c953e4726a36,717.0,f,ballFalling,604.4000000000001,650.0211431702996,404.58,11.0,fallScene,True,gt,3000.0,650.0211431702996,404.58,395.5999999999999,349.97885682970036,349.97885682970036,False
66e0d867f745183388c72031_result,130.0,66e0d867f745183388c72031,67619bf32066d179f8b4b1ec,67894f336c17c953e4726a36,914.0,f,ballFalling,500.0,510.8711431702997,369.03,8.0,fallScene,True,lp,3000.0,501.0,151.0,500.0,489.1288568297003,499.0,True
66e0d867f745183388c72031_result,131.0,66e0d867f745183388c72031,67619bf32066d179f8b4b1ec,67894f336c17c953e4726a36,673.0,j,ballFalling,322.3,379.3711431702997,245.25,1.0,fallScene,False,gt,3000.0,379.3711431702997,245.25,322.3,379.3711431702997,379.3711431702997,True
66e0d867f745183388c72031_result,132.0,66e0d867f745183388c72031,67619bf32066d179f8b4b1ec,67894f336c17c953e4726a36,670.0,f,ballFalling,322.3,308.07114317029976,253.89,2.0,fallScene,False,lp,3000.0,321.3,151.0,322.3,308.07114317029976,321.3,True
66e0d867f745183388c72031_result,133.0,66e0d867f745183388c72031,67619bf32066d179f8b4b1ec,67894f336c17c953e4726a36,538.0,j,ballFalling,322.3,379.3711431702997,245.25,1.0,fallScene,True,lp,3000.0,323.3,217.74551669457017,677.7,620.6288568297002,676.7,False
66e0d867f745183388c72031_result,134.0,66e0d867f745183388c72031,67619bf32066d179f8b4b1ec,67894f336c17c953e4726a36,855.0,f,ballFalling,322.3,296.07114317029976,371.46,3.0,fallScene,False,gt,3000.0,296.07114317029976,371.46,322.3,296.07114317029976,296.07114317029976,False
66e0d867f745183388c72031_result,135.0,66e0d867f745183388c72031,67619bf32066d179f8b4b1ec,67894f336c17c953e4726a36,1237.0,j,ballFalling,604.4000000000001,667.6211431702998,201.78,9.0,fallScene,True,gt,3000.0,667.6211431702998,201.78,395.5999999999999,332.3788568297002,332.3788568297002,True
66e0d867f745183388c72031_result,136.0,66e0d867f745183388c72031,67619bf32066d179f8b4b1ec,67894f336c17c953e4726a36,693.0,j,ballFalling,500.0,479.9211431702998,330.87,6.0,fallScene,True,mid,3000.0,499.0,300.0,500.0,520.0788568297003,501.0,False
66e0d867f745183388c72031_result,137.0,66e0d867f745183388c72031,67619bf32066d179f8b4b1ec,67894f336c17c953e4726a36,565.0,j,ballFalling,322.3,356.42114317029973,357.87,4.0,fallScene,True,mid,3000.0,390.27114317029975,300.0,677.7,643.5788568297003,609.7288568297002,False
66e0d867f745183388c72031_result,138.0,66e0d867f745183388c72031,67619bf32066d179f8b4b1ec,67894f336c17c953e4726a36,1152.0,f,ballFalling,322.3,296.07114317029976,371.46,3.0,fallScene,True,lp,3000.0,321.3,287.3327096511259,677.7,703.9288568297002,678.7,True
66e0d867f745183388c72031_result,139.0,66e0d867f745183388c72031,67619bf32066d179f8b4b1ec,67894f336c17c953e4726a36,643.0,j,ballFalling,500.0,453.6711431702998,210.33,5.0,fallScene,True,mid,3000.0,499.0,300.0,500.0,546.3288568297003,501.0,False
66e0d867f745183388c72031_result,140.0,66e0d867f745183388c72031,67619bf32066d179f8b4b1ec,67894f336c17c953e4726a36,715.0,f,ballFalling,500.0,479.9211431702998,330.87,6.0,fallScene,True,lp,3000.0,499.0,189.92909825697632,500.0,520.0788568297003,501.0,True
66e0d867f745183388c72031_result,141.0,66e0d867f745183388c72031,67619bf32066d179f8b4b1ec,67894f336c17c953e4726a36,1194.0,f,ballFalling,500.0,553.4711431702997,282.51,7.0,fallScene,True,mid,3000.0,501.0,300.0,500.0,446.5288568297003,499.0,True
66e0d867f745183388c72031_result,142.0,66e0d867f745183388c72031,67619bf32066d179f8b4b1ec,67894f336c17c953e4726a36,1468.0,f,ballFalling,500.0,510.8711431702997,369.03,8.0,fallScene,False,mid,3000.0,501.0,300.0,500.0,510.8711431702997,501.0,True
66e0d867f745183388c72031_result,143.0,66e0d867f745183388c72031,67619bf32066d179f8b4b1ec,67894f336c17c953e4726a36,1173.0,f,ballFalling,500.0,453.6711431702998,210.33,5.0,fallScene,True,lp,3000.0,499.0,151.0,500.0,546.3288568297003,501.0,True
66e0d867f745183388c72031_result,144.0,66e0d867f745183388c72031,67619bf32066d179f8b4b1ec,67894f336c17c953e4726a36,543.0,j,ballFalling,604.4000000000001,650.0211431702996,404.58,11.0,fallScene,False,lp,3000.0,605.4000000000001,372.6340973215488,604.4000000000001,650.0211431702996,605.4000000000001,False
6786ac17e77313e8449a8912_result,1.0,6786ac17e77313e8449a8912,67619bf32066d179f8b4b1ec,67894a39a3974d34e9cfae92,211.0,j,ballFalling,322.3,356.42114317029973,357.87,4.0,fallScene,False,gt,3000.0,356.42114317029973,357.87,322.3,356.42114317029973,356.42114317029973,True
6786ac17e77313e8449a8912_result,2.0,6786ac17e77313e8449a8912,67619bf32066d179f8b4b1ec,67894a39a3974d34e9cfae92,734.0,f,ballFalling,500.0,453.6711431702998,210.33,5.0,fallScene,False,mid,3000.0,499.0,300.0,500.0,453.6711431702998,499.0,True
6786ac17e77313e8449a8912_result,3.0,6786ac17e77313e8449a8912,67619bf32066d179f8b4b1ec,67894a39a3974d34e9cfae92,339.0,j,ballFalling,500.0,453.6711431702998,210.33,5.0,fallScene,True,gt,3000.0,453.6711431702998,210.33,500.0,546.3288568297003,546.3288568297003,True
6786ac17e77313e8449a8912_result,4.0,6786ac17e77313e8449a8912,67619bf32066d179f8b4b1ec,67894a39a3974d34e9cfae92,515.0,j,ballFalling,322.3,296.07114317029976,371.46,3.0,fallScene,True,mid,3000.0,321.3,300.0,677.7,703.9288568297002,678.7,False
6786ac17e77313e8449a8912_result,5.0,6786ac17e77313e8449a8912,67619bf32066d179f8b4b1ec,67894a39a3974d34e9cfae92,592.0,f,ballFalling,604.4000000000001,667.6211431702998,201.78,9.0,fallScene,True,lp,3000.0,605.4000000000001,151.0,395.5999999999999,332.3788568297002,394.5999999999999,True
6786ac17e77313e8449a8912_result,6.0,6786ac17e77313e8449a8912,67619bf32066d179f8b4b1ec,67894a39a3974d34e9cfae92,986.0,j,ballFalling,322.3,296.07114317029976,371.46,3.0,fallScene,False,gt,3000.0,296.07114317029976,371.46,322.3,296.07114317029976,296.07114317029976,True
6786ac17e77313e8449a8912_result,7.0,6786ac17e77313e8449a8912,67619bf32066d179f8b4b1ec,67894a39a3974d34e9cfae92,489.0,j,ballFalling,500.0,479.9211431702998,330.87,6.0,fallScene,True,lp,3000.0,499.0,189.92909825697632,500.0,520.0788568297003,501.0,False
6786ac17e77313e8449a8912_result,8.0,6786ac17e77313e8449a8912,67619bf32066d179f8b4b1ec,67894a39a3974d34e9cfae92,920.0,j,ballFalling,604.4000000000001,596.8711431702998,394.5,10.0,fallScene,True,lp,3000.0,603.4000000000001,215.50214355555383,395.5999999999999,403.1288568297002,396.5999999999999,False
6786ac17e77313e8449a8912_result,9.0,6786ac17e77313e8449a8912,67619bf32066d179f8b4b1ec,67894a39a3974d34e9cfae92,630.0,f,ballFalling,322.3,308.07114317029976,253.89,2.0,fallScene,False,lp,3000.0,321.3,151.0,322.3,308.07114317029976,321.3,True
6786ac17e77313e8449a8912_result,10.0,6786ac17e77313e8449a8912,67619bf32066d179f8b4b1ec,67894a39a3974d34e9cfae92,1003.0,f,ballFalling,604.4000000000001,596.8711431702998,394.5,10.0,fallScene,False,mid,3000.0,536.4288568297004,300.0,604.4000000000001,596.8711431702998,536.4288568297004,True
6786ac17e77313e8449a8912_result,11.0,6786ac17e77313e8449a8912,67619bf32066d179f8b4b1ec,67894a39a3974d34e9cfae92,825.0,j,ballFalling,322.3,379.3711431702997,245.25,1.0,fallScene,True,lp,3000.0,323.3,217.74551669457017,677.7,620.6288568297002,676.7,False
6786ac17e77313e8449a8912_result,12.0,6786ac17e77313e8449a8912,67619bf32066d179f8b4b1ec,67894a39a3974d34e9cfae92,,,ballFalling,604.4000000000001,575.4211431702997,266.76,12.0,fallScene,False,mid,3000.0,536.4288568297004,300.0,604.4000000000001,575.4211431702997,536.4288568297004,
6786ac17e77313e8449a8912_result,13.0,6786ac17e77313e8449a8912,67619bf32066d179f8b4b1ec,67894a39a3974d34e9cfae92,378.0,j,ballFalling,500.0,553.4711431702997,282.51,7.0,fallScene,True,mid,3000.0,501.0,300.0,500.0,446.5288568297003,499.0,False
6786ac17e77313e8449a8912_result,14.0,6786ac17e77313e8449a8912,67619bf32066d179f8b4b1ec,67894a39a3974d34e9cfae92,1455.0,f,ballFalling,322.3,379.3711431702997,245.25,1.0,fallScene,True,mid,3000.0,390.27114317029975,300.0,677.7,620.6288568297002,609.7288568297002,True
6786ac17e77313e8449a8912_result,15.0,6786ac17e77313e8449a8912,67619bf32066d179f8b4b1ec,67894a39a3974d34e9cfae92,1908.0,j,ballFalling,500.0,453.6711431702998,210.33,5.0,fallScene,False,lp,3000.0,499.0,151.0,500.0,453.6711431702998,499.0,False
6786ac17e77313e8449a8912_result,16.0,6786ac17e77313e8449a8912,67619bf32066d179f8b4b1ec,67894a39a3974d34e9cfae92,2110.0,f,ballFalling,500.0,553.4711431702997,282.51,7.0,fallScene,True,gt,3000.0,553.4711431702997,282.51,500.0,446.5288568297003,446.5288568297003,False
6786ac17e77313e8449a8912_result,17.0,6786ac17e77313e8449a8912,67619bf32066d179f8b4b1ec,67894a39a3974d34e9cfae92,947.0,j,ballFalling,322.3,379.3711431702997,245.25,1.0,fallScene,True,gt,3000.0,379.3711431702997,245.25,677.7,620.6288568297002,620.6288568297002,True
6786ac17e77313e8449a8912_result,18.0,6786ac17e77313e8449a8912,67619bf32066d179f8b4b1ec,67894a39a3974d34e9cfae92,1055.0,f,ballFalling,604.4000000000001,667.6211431702998,201.78,9.0,fallScene,False,gt,3000.0,667.6211431702998,201.78,604.4000000000001,667.6211431702998,667.6211431702998,False
6786ac17e77313e8449a8912_result,19.0,6786ac17e77313e8449a8912,67619bf32066d179f8b4b1ec,67894a39a3974d34e9cfae92,558.0,j,ballFalling,500.0,553.4711431702997,282.51,7.0,fallScene,True,lp,3000.0,501.0,227.2843295913261,500.0,446.5288568297003,499.0,False
6786ac17e77313e8449a8912_result,20.0,6786ac17e77313e8449a8912,67619bf32066d179f8b4b1ec,67894a39a3974d34e9cfae92,2145.0,j,ballFalling,322.3,356.42114317029973,357.87,4.0,fallScene,True,gt,3000.0,356.42114317029973,357.87,677.7,643.5788568297003,643.5788568297003,True
6786ac17e77313e8449a8912_result,21.0,6786ac17e77313e8449a8912,67619bf32066d179f8b4b1ec,67894a39a3974d34e9cfae92,813.0,f,ballFalling,604.4000000000001,650.0211431702996,404.58,11.0,fallScene,True,mid,3000.0,605.4000000000001,300.0,395.5999999999999,349.97885682970036,394.5999999999999,True
6786ac17e77313e8449a8912_result,22.0,6786ac17e77313e8449a8912,67619bf32066d179f8b4b1ec,67894a39a3974d34e9cfae92,215.0,j,ballFalling,604.4000000000001,650.0211431702996,404.58,11.0,fallScene,False,mid,3000.0,605.4000000000001,300.0,604.4000000000001,650.0211431702996,605.4000000000001,False
6786ac17e77313e8449a8912_result,23.0,6786ac17e77313e8449a8912,67619bf32066d179f8b4b1ec,67894a39a3974d34e9cfae92,489.0,j,ballFalling,322.3,308.07114317029976,253.89,2.0,fallScene,True,gt,3000.0,308.07114317029976,253.89,677.7,691.9288568297002,691.9288568297002,True
6786ac17e77313e8449a8912_result,24.0,6786ac17e77313e8449a8912,67619bf32066d179f8b4b1ec,67894a39a3974d34e9cfae92,670.0,f,ballFalling,322.3,296.07114317029976,371.46,3.0,fallScene,True,gt,3000.0,296.07114317029976,371.46,677.7,703.9288568297002,703.9288568297002,False
6786ac17e77313e8449a8912_result,25.0,6786ac17e77313e8449a8912,67619bf32066d179f8b4b1ec,67894a39a3974d34e9cfae92,271.0,j,ballFalling,604.4000000000001,650.0211431702996,404.58,11.0,fallScene,True,lp,1000.0,605.4000000000001,372.6340973215488,395.5999999999999,349.97885682970036,394.5999999999999,False
6786ac17e77313e8449a8912_result,26.0,6786ac17e77313e8449a8912,67619bf32066d179f8b4b1ec,67894a39a3974d34e9cfae92,548.0,f,ballFalling,604.4000000000001,575.4211431702997,266.76,12.0,fallScene,True,lp,1000.0,603.4000000000001,151.0,395.5999999999999,424.57885682970027,396.5999999999999,True
6786ac17e77313e8449a8912_result,27.0,6786ac17e77313e8449a8912,67619bf32066d179f8b4b1ec,67894a39a3974d34e9cfae92,466.0,j,ballFalling,500.0,510.8711431702997,369.03,8.0,fallScene,False,gt,1000.0,510.8711431702997,369.03,500.0,510.8711431702997,510.8711431702997,True
6786ac17e77313e8449a8912_result,28.0,6786ac17e77313e8449a8912,67619bf32066d179f8b4b1ec,67894a39a3974d34e9cfae92,666.0,j,ballFalling,500.0,453.6711431702998,210.33,5.0,fallScene,True,lp,1000.0,499.0,151.0,500.0,546.3288568297003,501.0,False
6786ac17e77313e8449a8912_result,29.0,6786ac17e77313e8449a8912,67619bf32066d179f8b4b1ec,67894a39a3974d34e9cfae92,799.0,j,ballFalling,604.4000000000001,575.4211431702997,266.76,12.0,fallScene,True,lp,1000.0,603.4000000000001,151.0,395.5999999999999,424.57885682970027,396.5999999999999,False
6786ac17e77313e8449a8912_result,30.0,6786ac17e77313e8449a8912,67619bf32066d179f8b4b1ec,67894a39a3974d34e9cfae92,572.0,j,ballFalling,500.0,553.4711431702997,282.51,7.0,fallScene,True,mid,1000.0,501.0,300.0,500.0,446.5288568297003,499.0,False
6786ac17e77313e8449a8912_result,31.0,6786ac17e77313e8449a8912,67619bf32066d179f8b4b1ec,67894a39a3974d34e9cfae92,603.0,f,ballFalling,604.4000000000001,667.6211431702998,201.78,9.0,fallScene,False,gt,1000.0,667.6211431702998,201.78,604.4000000000001,667.6211431702998,667.6211431702998,False
6786ac17e77313e8449a8912_result,32.0,6786ac17e77313e8449a8912,67619bf32066d179f8b4b1ec,67894a39a3974d34e9cfae92,689.0,j,ballFalling,322.3,356.42114317029973,357.87,4.0,fallScene,False,lp,1000.0,323.3,297.4070551689986,322.3,356.42114317029973,323.3,False
6786ac17e77313e8449a8912_result,33.0,6786ac17e77313e8449a8912,67619bf32066d179f8b4b1ec,67894a39a3974d34e9cfae92,939.0,j,ballFalling,500.0,479.9211431702998,330.87,6.0,fallScene,False,gt,1000.0,479.9211431702998,330.87,500.0,479.9211431702998,479.9211431702998,True
6786ac17e77313e8449a8912_result,34.0,6786ac17e77313e8449a8912,67619bf32066d179f8b4b1ec,67894a39a3974d34e9cfae92,,,ballFalling,500.0,453.6711431702998,210.33,5.0,fallScene,False,lp,1000.0,499.0,151.0,500.0,453.6711431702998,499.0,
6786ac17e77313e8449a8912_result,35.0,6786ac17e77313e8449a8912,67619bf32066d179f8b4b1ec,67894a39a3974d34e9cfae92,,,ballFalling,322.3,308.07114317029976,253.89,2.0,fallScene,True,mid,1000.0,321.3,300.0,677.7,691.9288568297002,678.7,
6786ac17e77313e8449a8912_result,36.0,6786ac17e77313e8449a8912,67619bf32066d179f8b4b1ec,67894a39a3974d34e9cfae92,155.0,j,ballFalling,500.0,553.4711431702997,282.51,7.0,fallScene,True,lp,1000.0,501.0,227.2843295913261,500.0,446.5288568297003,499.0,False
6786ac17e77313e8449a8912_result,37.0,6786ac17e77313e8449a8912,67619bf32066d179f8b4b1ec,67894a39a3974d34e9cfae92,,,ballFalling,322.3,356.42114317029973,357.87,4.0,fallScene,True,mid,1000.0,390.27114317029975,300.0,677.7,643.5788568297003,609.7288568297002,
6786ac17e77313e8449a8912_result,38.0,6786ac17e77313e8449a8912,67619bf32066d179f8b4b1ec,67894a39a3974d34e9cfae92,,,ballFalling,322.3,356.42114317029973,357.87,4.0,fallScene,False,lp,1000.0,323.3,297.4070551689986,322.3,356.42114317029973,323.3,
6786ac17e77313e8449a8912_result,39.0,6786ac17e77313e8449a8912,67619bf32066d179f8b4b1ec,67894a39a3974d34e9cfae92,172.0,f,ballFalling,604.4000000000001,596.8711431702998,394.5,10.0,fallScene,True,mid,1000.0,536.4288568297004,300.0,395.5999999999999,403.1288568297002,463.5711431702996,True
6786ac17e77313e8449a8912_result,40.0,6786ac17e77313e8449a8912,67619bf32066d179f8b4b1ec,67894a39a3974d34e9cfae92,676.0,j,ballFalling,500.0,553.4711431702997,282.51,7.0,fallScene,True,gt,1000.0,553.4711431702997,282.51,500.0,446.5288568297003,446.5288568297003,True
6786ac17e77313e8449a8912_result,41.0,6786ac17e77313e8449a8912,67619bf32066d179f8b4b1ec,67894a39a3974d34e9cfae92,541.0,j,ballFalling,322.3,379.3711431702997,245.25,1.0,fallScene,False,gt,1000.0,379.3711431702997,245.25,322.3,379.3711431702997,379.3711431702997,True
6786ac17e77313e8449a8912_result,42.0,6786ac17e77313e8449a8912,67619bf32066d179f8b4b1ec,67894a39a3974d34e9cfae92,537.0,j,ballFalling,322.3,379.3711431702997,245.25,1.0,fallScene,True,mid,1000.0,390.27114317029975,300.0,677.7,620.6288568297002,609.7288568297002,False
6786ac17e77313e8449a8912_result,43.0,6786ac17e77313e8449a8912,67619bf32066d179f8b4b1ec,67894a39a3974d34e9cfae92,486.0,j,ballFalling,604.4000000000001,650.0211431702996,404.58,11.0,fallScene,True,lp,1000.0,605.4000000000001,372.6340973215488,395.5999999999999,349.97885682970036,394.5999999999999,False
6786ac17e77313e8449a8912_result,44.0,6786ac17e77313e8449a8912,67619bf32066d179f8b4b1ec,67894a39a3974d34e9cfae92,504.0,j,ballFalling,322.3,356.42114317029973,357.87,4.0,fallScene,False,gt,1000.0,356.42114317029973,357.87,322.3,356.42114317029973,356.42114317029973,True
6786ac17e77313e8449a8912_result,45.0,6786ac17e77313e8449a8912,67619bf32066d179f8b4b1ec,67894a39a3974d34e9cfae92,511.0,f,ballFalling,604.4000000000001,596.8711431702998,394.5,10.0,fallScene,False,lp,1000.0,603.4000000000001,215.50214355555383,604.4000000000001,596.8711431702998,603.4000000000001,True
6786ac17e77313e8449a8912_result,46.0,6786ac17e77313e8449a8912,67619bf32066d179f8b4b1ec,67894a39a3974d34e9cfae92,625.0,j,ballFalling,500.0,453.6711431702998,210.33,5.0,fallScene,True,gt,1000.0,453.6711431702998,210.33,500.0,546.3288568297003,546.3288568297003,True
6786ac17e77313e8449a8912_result,47.0,6786ac17e77313e8449a8912,67619bf32066d179f8b4b1ec,67894a39a3974d34e9cfae92,,,ballFalling,604.4000000000001,575.4211431702997,266.76,12.0,fallScene,True,gt,1000.0,575.4211431702997,266.76,395.5999999999999,424.57885682970027,424.57885682970027,
6786ac17e77313e8449a8912_result,48.0,6786ac17e77313e8449a8912,67619bf32066d179f8b4b1ec,67894a39a3974d34e9cfae92,490.0,j,ballFalling,322.3,379.3711431702997,245.25,1.0,fallScene,False,lp,1000.0,323.3,217.74551669457017,322.3,379.3711431702997,323.3,False
6786ac17e77313e8449a8912_result,49.0,6786ac17e77313e8449a8912,67619bf32066d179f8b4b1ec,67894a39a3974d34e9cfae92,785.0,j,ballFalling,500.0,479.9211431702998,330.87,6.0,fallScene,True,lp,1000.0,499.0,189.92909825697632,500.0,520.0788568297003,501.0,False
6786ac17e77313e8449a8912_result,50.0,6786ac17e77313e8449a8912,67619bf32066d179f8b4b1ec,67894a39a3974d34e9cfae92,513.0,j,ballFalling,604.4000000000001,650.0211431702996,404.58,11.0,fallScene,False,mid,1000.0,605.4000000000001,300.0,604.4000000000001,650.0211431702996,605.4000000000001,False
6786ac17e77313e8449a8912_result,51.0,6786ac17e77313e8449a8912,67619bf32066d179f8b4b1ec,67894a39a3974d34e9cfae92,732.0,f,ballFalling,500.0,510.8711431702997,369.03,8.0,fallScene,True,lp,1000.0,501.0,151.0,500.0,489.1288568297003,499.0,True
6786ac17e77313e8449a8912_result,52.0,6786ac17e77313e8449a8912,67619bf32066d179f8b4b1ec,67894a39a3974d34e9cfae92,,,ballFalling,322.3,296.07114317029976,371.46,3.0,fallScene,True,mid,1000.0,321.3,300.0,677.7,703.9288568297002,678.7,
6786ac17e77313e8449a8912_result,53.0,6786ac17e77313e8449a8912,67619bf32066d179f8b4b1ec,67894a39a3974d34e9cfae92,469.0,j,ballFalling,322.3,356.42114317029973,357.87,4.0,fallScene,True,gt,1000.0,356.42114317029973,357.87,677.7,643.5788568297003,643.5788568297003,True
6786ac17e77313e8449a8912_result,54.0,6786ac17e77313e8449a8912,67619bf32066d179f8b4b1ec,67894a39a3974d34e9cfae92,472.0,j,ballFalling,604.4000000000001,650.0211431702996,404.58,11.0,fallScene,False,gt,1000.0,650.0211431702996,404.58,604.4000000000001,650.0211431702996,650.0211431702996,True
6786ac17e77313e8449a8912_result,55.0,6786ac17e77313e8449a8912,67619bf32066d179f8b4b1ec,67894a39a3974d34e9cfae92,389.0,j,ballFalling,604.4000000000001,650.0211431702996,404.58,11.0,fallScene,False,gt,1000.0,650.0211431702996,404.58,604.4000000000001,650.0211431702996,650.0211431702996,True
6786ac17e77313e8449a8912_result,56.0,6786ac17e77313e8449a8912,67619bf32066d179f8b4b1ec,67894a39a3974d34e9cfae92,665.0,f,ballFalling,500.0,453.6711431702998,210.33,5.0,fallScene,False,mid,1000.0,499.0,300.0,500.0,453.6711431702998,499.0,True
6786ac17e77313e8449a8912_result,57.0,6786ac17e77313e8449a8912,67619bf32066d179f8b4b1ec,67894a39a3974d34e9cfae92,740.0,f,ballFalling,604.4000000000001,575.4211431702997,266.76,12.0,fallScene,False,mid,1000.0,536.4288568297004,300.0,604.4000000000001,575.4211431702997,536.4288568297004,True
6786ac17e77313e8449a8912_result,58.0,6786ac17e77313e8449a8912,67619bf32066d179f8b4b1ec,67894a39a3974d34e9cfae92,453.0,j,ballFalling,604.4000000000001,596.8711431702998,394.5,10.0,fallScene,False,gt,1000.0,596.8711431702998,394.5,604.4000000000001,596.8711431702998,596.8711431702998,True
6786ac17e77313e8449a8912_result,59.0,6786ac17e77313e8449a8912,67619bf32066d179f8b4b1ec,67894a39a3974d34e9cfae92,618.0,j,ballFalling,500.0,553.4711431702997,282.51,7.0,fallScene,True,mid,1000.0,501.0,300.0,500.0,446.5288568297003,499.0,False
6786ac17e77313e8449a8912_result,60.0,6786ac17e77313e8449a8912,67619bf32066d179f8b4b1ec,67894a39a3974d34e9cfae92,589.0,j,ballFalling,500.0,453.6711431702998,210.33,5.0,fallScene,True,mid,1000.0,499.0,300.0,500.0,546.3288568297003,501.0,False
6786ac17e77313e8449a8912_result,61.0,6786ac17e77313e8449a8912,67619bf32066d179f8b4b1ec,67894a39a3974d34e9cfae92,790.0,f,ballFalling,322.3,308.07114317029976,253.89,2.0,fallScene,True,gt,1000.0,308.07114317029976,253.89,677.7,691.9288568297002,691.9288568297002,False
6786ac17e77313e8449a8912_result,62.0,6786ac17e77313e8449a8912,67619bf32066d179f8b4b1ec,67894a39a3974d34e9cfae92,508.0,j,ballFalling,322.3,308.07114317029976,253.89,2.0,fallScene,False,mid,1000.0,321.3,300.0,322.3,308.07114317029976,321.3,False
6786ac17e77313e8449a8912_result,63.0,6786ac17e77313e8449a8912,67619bf32066d179f8b4b1ec,67894a39a3974d34e9cfae92,817.0,f,ballFalling,500.0,479.9211431702998,330.87,6.0,fallScene,False,mid,1000.0,499.0,300.0,500.0,479.9211431702998,499.0,True
6786ac17e77313e8449a8912_result,64.0,6786ac17e77313e8449a8912,67619bf32066d179f8b4b1ec,67894a39a3974d34e9cfae92,,,ballFalling,322.3,296.07114317029976,371.46,3.0,fallScene,True,mid,1000.0,321.3,300.0,677.7,703.9288568297002,678.7,
6786ac17e77313e8449a8912_result,65.0,6786ac17e77313e8449a8912,67619bf32066d179f8b4b1ec,67894a39a3974d34e9cfae92,,,ballFalling,500.0,479.9211431702998,330.87,6.0,fallScene,True,mid,1000.0,499.0,300.0,500.0,520.0788568297003,501.0,
6786ac17e77313e8449a8912_result,66.0,6786ac17e77313e8449a8912,67619bf32066d179f8b4b1ec,67894a39a3974d34e9cfae92,315.0,j,ballFalling,500.0,479.9211431702998,330.87,6.0,fallScene,True,gt,1000.0,479.9211431702998,330.87,500.0,520.0788568297003,520.0788568297003,True
6786ac17e77313e8449a8912_result,67.0,6786ac17e77313e8449a8912,67619bf32066d179f8b4b1ec,67894a39a3974d34e9cfae92,460.0,j,ballFalling,604.4000000000001,650.0211431702996,404.58,11.0,fallScene,False,mid,1000.0,605.4000000000001,300.0,604.4000000000001,650.0211431702996,605.4000000000001,False
6786ac17e77313e8449a8912_result,68.0,6786ac17e77313e8449a8912,67619bf32066d179f8b4b1ec,67894a39a3974d34e9cfae92,447.0,j,ballFalling,604.4000000000001,575.4211431702997,266.76,12.0,fallScene,True,gt,1000.0,575.4211431702997,266.76,395.5999999999999,424.57885682970027,424.57885682970027,True
6786ac17e77313e8449a8912_result,69.0,6786ac17e77313e8449a8912,67619bf32066d179f8b4b1ec,67894a39a3974d34e9cfae92,600.0,j,ballFalling,604.4000000000001,575.4211431702997,266.76,12.0,fallScene,False,mid,1000.0,536.4288568297004,300.0,604.4000000000001,575.4211431702997,536.4288568297004,False
6786ac17e77313e8449a8912_result,70.0,6786ac17e77313e8449a8912,67619bf32066d179f8b4b1ec,67894a39a3974d34e9cfae92,,,ballFalling,604.4000000000001,667.6211431702998,201.78,9.0,fallScene,True,mid,1000.0,605.4000000000001,300.0,395.5999999999999,332.3788568297002,394.5999999999999,
6786ac17e77313e8449a8912_result,71.0,6786ac17e77313e8449a8912,67619bf32066d179f8b4b1ec,67894a39a3974d34e9cfae92,866.0,j,ballFalling,500.0,553.4711431702997,282.51,7.0,fallScene,True,gt,1000.0,553.4711431702997,282.51,500.0,446.5288568297003,446.5288568297003,True
6786ac17e77313e8449a8912_result,72.0,6786ac17e77313e8449a8912,67619bf32066d179f8b4b1ec,67894a39a3974d34e9cfae92,372.0,j,ballFalling,604.4000000000001,596.8711431702998,394.5,10.0,fallScene,True,gt,1000.0,596.8711431702998,394.5,395.5999999999999,403.1288568297002,403.1288568297002,True
6786ac17e77313e8449a8912_result,73.0,6786ac17e77313e8449a8912,67619bf32066d179f8b4b1ec,67894a39a3974d34e9cfae92,,,ballFalling,322.3,379.3711431702997,245.25,1.0,fallScene,True,gt,1000.0,379.3711431702997,245.25,677.7,620.6288568297002,620.6288568297002,
6786ac17e77313e8449a8912_result,74.0,6786ac17e77313e8449a8912,67619bf32066d179f8b4b1ec,67894a39a3974d34e9cfae92,417.0,j,ballFalling,604.4000000000001,667.6211431702998,201.78,9.0,fallScene,False,mid,1000.0,605.4000000000001,300.0,604.4000000000001,667.6211431702998,605.4000000000001,False
6786ac17e77313e8449a8912_result,75.0,6786ac17e77313e8449a8912,67619bf32066d179f8b4b1ec,67894a39a3974d34e9cfae92,,,ballFalling,500.0,510.8711431702997,369.03,8.0,fallScene,True,mid,1000.0,501.0,300.0,500.0,489.1288568297003,499.0,
6786ac17e77313e8449a8912_result,76.0,6786ac17e77313e8449a8912,67619bf32066d179f8b4b1ec,67894a39a3974d34e9cfae92,,,ballFalling,500.0,553.4711431702997,282.51,7.0,fallScene,True,lp,1000.0,501.0,227.2843295913261,500.0,446.5288568297003,499.0,
6786ac17e77313e8449a8912_result,77.0,6786ac17e77313e8449a8912,67619bf32066d179f8b4b1ec,67894a39a3974d34e9cfae92,870.0,j,ballFalling,322.3,356.42114317029973,357.87,4.0,fallScene,False,mid,1000.0,390.27114317029975,300.0,322.3,356.42114317029973,390.27114317029975,False
6786ac17e77313e8449a8912_result,78.0,6786ac17e77313e8449a8912,67619bf32066d179f8b4b1ec,67894a39a3974d34e9cfae92,454.0,j,ballFalling,322.3,296.07114317029976,371.46,3.0,fallScene,True,lp,1000.0,321.3,287.3327096511259,677.7,703.9288568297002,678.7,False
6786ac17e77313e8449a8912_result,79.0,6786ac17e77313e8449a8912,67619bf32066d179f8b4b1ec,67894a39a3974d34e9cfae92,,,ballFalling,500.0,453.6711431702998,210.33,5.0,fallScene,True,gt,1000.0,453.6711431702998,210.33,500.0,546.3288568297003,546.3288568297003,
6786ac17e77313e8449a8912_result,80.0,6786ac17e77313e8449a8912,67619bf32066d179f8b4b1ec,67894a39a3974d34e9cfae92,536.0,j,ballFalling,322.3,308.07114317029976,253.89,2.0,fallScene,False,gt,1000.0,308.07114317029976,253.89,322.3,308.07114317029976,308.07114317029976,True
6786ac17e77313e8449a8912_result,81.0,6786ac17e77313e8449a8912,67619bf32066d179f8b4b1ec,67894a39a3974d34e9cfae92,,,ballFalling,500.0,510.8711431702997,369.03,8.0,fallScene,True,lp,1000.0,501.0,151.0,500.0,489.1288568297003,499.0,
6786ac17e77313e8449a8912_result,82.0,6786ac17e77313e8449a8912,67619bf32066d179f8b4b1ec,67894a39a3974d34e9cfae92,421.0,j,ballFalling,322.3,379.3711431702997,245.25,1.0,fallScene,True,lp,1000.0,323.3,217.74551669457017,677.7,620.6288568297002,676.7,False
6786ac17e77313e8449a8912_result,83.0,6786ac17e77313e8449a8912,67619bf32066d179f8b4b1ec,67894a39a3974d34e9cfae92,258.0,j,ballFalling,322.3,308.07114317029976,253.89,2.0,fallScene,True,lp,1000.0,321.3,151.0,677.7,691.9288568297002,678.7,False
6786ac17e77313e8449a8912_result,84.0,6786ac17e77313e8449a8912,67619bf32066d179f8b4b1ec,67894a39a3974d34e9cfae92,563.0,j,ballFalling,322.3,296.07114317029976,371.46,3.0,fallScene,False,lp,1000.0,321.3,287.3327096511259,322.3,296.07114317029976,321.3,False
6786ac17e77313e8449a8912_result,85.0,6786ac17e77313e8449a8912,67619bf32066d179f8b4b1ec,67894a39a3974d34e9cfae92,,,ballFalling,322.3,296.07114317029976,371.46,3.0,fallScene,True,gt,1000.0,296.07114317029976,371.46,677.7,703.9288568297002,703.9288568297002,
6786ac17e77313e8449a8912_result,86.0,6786ac17e77313e8449a8912,67619bf32066d179f8b4b1ec,67894a39a3974d34e9cfae92,439.0,j,ballFalling,500.0,510.8711431702997,369.03,8.0,fallScene,False,gt,1000.0,510.8711431702997,369.03,500.0,510.8711431702997,510.8711431702997,True
6786ac17e77313e8449a8912_result,87.0,6786ac17e77313e8449a8912,67619bf32066d179f8b4b1ec,67894a39a3974d34e9cfae92,,,ballFalling,322.3,308.07114317029976,253.89,2.0,fallScene,False,lp,1000.0,321.3,151.0,322.3,308.07114317029976,321.3,
6786ac17e77313e8449a8912_result,88.0,6786ac17e77313e8449a8912,67619bf32066d179f8b4b1ec,67894a39a3974d34e9cfae92,918.0,j,ballFalling,604.4000000000001,596.8711431702998,394.5,10.0,fallScene,False,mid,1000.0,536.4288568297004,300.0,604.4000000000001,596.8711431702998,536.4288568297004,False
6786ac17e77313e8449a8912_result,89.0,6786ac17e77313e8449a8912,67619bf32066d179f8b4b1ec,67894a39a3974d34e9cfae92,414.0,j,ballFalling,500.0,510.8711431702997,369.03,8.0,fallScene,False,mid,1000.0,501.0,300.0,500.0,510.8711431702997,501.0,False
6786ac17e77313e8449a8912_result,90.0,6786ac17e77313e8449a8912,67619bf32066d179f8b4b1ec,67894a39a3974d34e9cfae92,,,ballFalling,604.4000000000001,596.8711431702998,394.5,10.0,fallScene,False,lp,1000.0,603.4000000000001,215.50214355555383,604.4000000000001,596.8711431702998,603.4000000000001,
6786ac17e77313e8449a8912_result,91.0,6786ac17e77313e8449a8912,67619bf32066d179f8b4b1ec,67894a39a3974d34e9cfae92,,,ballFalling,500.0,479.9211431702998,330.87,6.0,fallScene,False,lp,1000.0,499.0,189.92909825697632,500.0,479.9211431702998,499.0,
6786ac17e77313e8449a8912_result,92.0,6786ac17e77313e8449a8912,67619bf32066d179f8b4b1ec,67894a39a3974d34e9cfae92,34.0,j,ballFalling,604.4000000000001,667.6211431702998,201.78,9.0,fallScene,True,lp,1000.0,605.4000000000001,151.0,395.5999999999999,332.3788568297002,394.5999999999999,False
6786ac17e77313e8449a8912_result,93.0,6786ac17e77313e8449a8912,67619bf32066d179f8b4b1ec,67894a39a3974d34e9cfae92,558.0,f,ballFalling,604.4000000000001,667.6211431702998,201.78,9.0,fallScene,False,lp,1000.0,605.4000000000001,151.0,604.4000000000001,667.6211431702998,605.4000000000001,True
6786ac17e77313e8449a8912_result,94.0,6786ac17e77313e8449a8912,67619bf32066d179f8b4b1ec,67894a39a3974d34e9cfae92,483.0,j,ballFalling,604.4000000000001,667.6211431702998,201.78,9.0,fallScene,False,gt,1000.0,667.6211431702998,201.78,604.4000000000001,667.6211431702998,667.6211431702998,True
6786ac17e77313e8449a8912_result,95.0,6786ac17e77313e8449a8912,67619bf32066d179f8b4b1ec,67894a39a3974d34e9cfae92,,,ballFalling,322.3,296.07114317029976,371.46,3.0,fallScene,True,gt,1000.0,296.07114317029976,371.46,677.7,703.9288568297002,703.9288568297002,
6786ac17e77313e8449a8912_result,96.0,6786ac17e77313e8449a8912,67619bf32066d179f8b4b1ec,67894a39a3974d34e9cfae92,,,ballFalling,322.3,379.3711431702997,245.25,1.0,fallScene,True,mid,1000.0,390.27114317029975,300.0,677.7,620.6288568297002,609.7288568297002,
6786ac17e77313e8449a8912_result,97.0,6786ac17e77313e8449a8912,67619bf32066d179f8b4b1ec,67894a39a3974d34e9cfae92,573.0,j,ballFalling,500.0,510.8711431702997,369.03,8.0,fallScene,False,mid,3000.0,501.0,300.0,500.0,510.8711431702997,501.0,False
6786ac17e77313e8449a8912_result,98.0,6786ac17e77313e8449a8912,67619bf32066d179f8b4b1ec,67894a39a3974d34e9cfae92,435.0,j,ballFalling,500.0,510.8711431702997,369.03,8.0,fallScene,True,gt,3000.0,510.8711431702997,369.03,500.0,489.1288568297003,489.1288568297003,True
6786ac17e77313e8449a8912_result,99.0,6786ac17e77313e8449a8912,67619bf32066d179f8b4b1ec,67894a39a3974d34e9cfae92,705.0,f,ballFalling,604.4000000000001,575.4211431702997,266.76,12.0,fallScene,False,gt,3000.0,575.4211431702997,266.76,604.4000000000001,575.4211431702997,575.4211431702997,False
6786ac17e77313e8449a8912_result,100.0,6786ac17e77313e8449a8912,67619bf32066d179f8b4b1ec,67894a39a3974d34e9cfae92,938.0,j,ballFalling,500.0,479.9211431702998,330.87,6.0,fallScene,False,gt,3000.0,479.9211431702998,330.87,500.0,479.9211431702998,479.9211431702998,True
6786ac17e77313e8449a8912_result,101.0,6786ac17e77313e8449a8912,67619bf32066d179f8b4b1ec,67894a39a3974d34e9cfae92,847.0,j,ballFalling,604.4000000000001,650.0211431702996,404.58,11.0,fallScene,False,lp,3000.0,605.4000000000001,372.6340973215488,604.4000000000001,650.0211431702996,605.4000000000001,False
6786ac17e77313e8449a8912_result,102.0,6786ac17e77313e8449a8912,67619bf32066d179f8b4b1ec,67894a39a3974d34e9cfae92,766.0,f,ballFalling,500.0,453.6711431702998,210.33,5.0,fallScene,True,gt,3000.0,453.6711431702998,210.33,500.0,546.3288568297003,546.3288568297003,False
6786ac17e77313e8449a8912_result,103.0,6786ac17e77313e8449a8912,67619bf32066d179f8b4b1ec,67894a39a3974d34e9cfae92,441.0,j,ballFalling,322.3,308.07114317029976,253.89,2.0,fallScene,True,mid,3000.0,321.3,300.0,677.7,691.9288568297002,678.7,False
6786ac17e77313e8449a8912_result,104.0,6786ac17e77313e8449a8912,67619bf32066d179f8b4b1ec,67894a39a3974d34e9cfae92,767.0,f,ballFalling,500.0,479.9211431702998,330.87,6.0,fallScene,True,lp,3000.0,499.0,189.92909825697632,500.0,520.0788568297003,501.0,True
6786ac17e77313e8449a8912_result,105.0,6786ac17e77313e8449a8912,67619bf32066d179f8b4b1ec,67894a39a3974d34e9cfae92,421.0,j,ballFalling,604.4000000000001,667.6211431702998,201.78,9.0,fallScene,False,mid,3000.0,605.4000000000001,300.0,604.4000000000001,667.6211431702998,605.4000000000001,False
6786ac17e77313e8449a8912_result,106.0,6786ac17e77313e8449a8912,67619bf32066d179f8b4b1ec,67894a39a3974d34e9cfae92,466.0,f,ballFalling,500.0,510.8711431702997,369.03,8.0,fallScene,True,lp,3000.0,501.0,151.0,500.0,489.1288568297003,499.0,True
6786ac17e77313e8449a8912_result,107.0,6786ac17e77313e8449a8912,67619bf32066d179f8b4b1ec,67894a39a3974d34e9cfae92,579.0,j,ballFalling,500.0,553.4711431702997,282.51,7.0,fallScene,True,gt,3000.0,553.4711431702997,282.51,500.0,446.5288568297003,446.5288568297003,True
6786ac17e77313e8449a8912_result,108.0,6786ac17e77313e8449a8912,67619bf32066d179f8b4b1ec,67894a39a3974d34e9cfae92,592.0,f,ballFalling,604.4000000000001,596.8711431702998,394.5,10.0,fallScene,False,lp,3000.0,603.4000000000001,215.50214355555383,604.4000000000001,596.8711431702998,603.4000000000001,True
6786ac17e77313e8449a8912_result,109.0,6786ac17e77313e8449a8912,67619bf32066d179f8b4b1ec,67894a39a3974d34e9cfae92,743.0,j,ballFalling,604.4000000000001,650.0211431702996,404.58,11.0,fallScene,False,gt,3000.0,650.0211431702996,404.58,604.4000000000001,650.0211431702996,650.0211431702996,True
6786ac17e77313e8449a8912_result,110.0,6786ac17e77313e8449a8912,67619bf32066d179f8b4b1ec,67894a39a3974d34e9cfae92,728.0,f,ballFalling,322.3,379.3711431702997,245.25,1.0,fallScene,True,lp,3000.0,323.3,217.74551669457017,677.7,620.6288568297002,676.7,True
6786ac17e77313e8449a8912_result,111.0,6786ac17e77313e8449a8912,67619bf32066d179f8b4b1ec,67894a39a3974d34e9cfae92,309.0,j,ballFalling,500.0,453.6711431702998,210.33,5.0,fallScene,True,lp,3000.0,499.0,151.0,500.0,546.3288568297003,501.0,False
6786ac17e77313e8449a8912_result,112.0,6786ac17e77313e8449a8912,67619bf32066d179f8b4b1ec,67894a39a3974d34e9cfae92,1111.0,f,ballFalling,604.4000000000001,667.6211431702998,201.78,9.0,fallScene,False,mid,3000.0,605.4000000000001,300.0,604.4000000000001,667.6211431702998,605.4000000000001,True
6786ac17e77313e8449a8912_result,113.0,6786ac17e77313e8449a8912,67619bf32066d179f8b4b1ec,67894a39a3974d34e9cfae92,620.0,j,ballFalling,322.3,379.3711431702997,245.25,1.0,fallScene,True,mid,3000.0,390.27114317029975,300.0,677.7,620.6288568297002,609.7288568297002,False
6786ac17e77313e8449a8912_result,114.0,6786ac17e77313e8449a8912,67619bf32066d179f8b4b1ec,67894a39a3974d34e9cfae92,659.0,f,ballFalling,604.4000000000001,596.8711431702998,394.5,10.0,fallScene,True,mid,3000.0,536.4288568297004,300.0,395.5999999999999,403.1288568297002,463.5711431702996,True
6786ac17e77313e8449a8912_result,115.0,6786ac17e77313e8449a8912,67619bf32066d179f8b4b1ec,67894a39a3974d34e9cfae92,644.0,j,ballFalling,322.3,356.42114317029973,357.87,4.0,fallScene,False,mid,3000.0,390.27114317029975,300.0,322.3,356.42114317029973,390.27114317029975,False
6786ac17e77313e8449a8912_result,116.0,6786ac17e77313e8449a8912,67619bf32066d179f8b4b1ec,67894a39a3974d34e9cfae92,984.0,f,ballFalling,604.4000000000001,650.0211431702996,404.58,11.0,fallScene,False,lp,3000.0,605.4000000000001,372.6340973215488,604.4000000000001,650.0211431702996,605.4000000000001,True
6786ac17e77313e8449a8912_result,117.0,6786ac17e77313e8449a8912,67619bf32066d179f8b4b1ec,67894a39a3974d34e9cfae92,1346.0,j,ballFalling,604.4000000000001,596.8711431702998,394.5,10.0,fallScene,False,gt,3000.0,596.8711431702998,394.5,604.4000000000001,596.8711431702998,596.8711431702998,True
6786ac17e77313e8449a8912_result,118.0,6786ac17e77313e8449a8912,67619bf32066d179f8b4b1ec,67894a39a3974d34e9cfae92,436.0,j,ballFalling,604.4000000000001,650.0211431702996,404.58,11.0,fallScene,False,gt,3000.0,650.0211431702996,404.58,604.4000000000001,650.0211431702996,650.0211431702996,True
6786ac17e77313e8449a8912_result,119.0,6786ac17e77313e8449a8912,67619bf32066d179f8b4b1ec,67894a39a3974d34e9cfae92,2013.0,j,ballFalling,322.3,296.07114317029976,371.46,3.0,fallScene,True,lp,3000.0,321.3,287.3327096511259,677.7,703.9288568297002,678.7,False
6786ac17e77313e8449a8912_result,120.0,6786ac17e77313e8449a8912,67619bf32066d179f8b4b1ec,67894a39a3974d34e9cfae92,615.0,f,ballFalling,500.0,510.8711431702997,369.03,8.0,fallScene,True,mid,3000.0,501.0,300.0,500.0,489.1288568297003,499.0,True
6786ac17e77313e8449a8912_result,121.0,6786ac17e77313e8449a8912,67619bf32066d179f8b4b1ec,67894a39a3974d34e9cfae92,604.0,j,ballFalling,322.3,379.3711431702997,245.25,1.0,fallScene,False,gt,3000.0,379.3711431702997,245.25,322.3,379.3711431702997,379.3711431702997,True
6786ac17e77313e8449a8912_result,122.0,6786ac17e77313e8449a8912,67619bf32066d179f8b4b1ec,67894a39a3974d34e9cfae92,504.0,j,ballFalling,604.4000000000001,667.6211431702998,201.78,9.0,fallScene,False,gt,3000.0,667.6211431702998,201.78,604.4000000000001,667.6211431702998,667.6211431702998,True
6786ac17e77313e8449a8912_result,123.0,6786ac17e77313e8449a8912,67619bf32066d179f8b4b1ec,67894a39a3974d34e9cfae92,669.0,f,ballFalling,322.3,296.07114317029976,371.46,3.0,fallScene,False,lp,3000.0,321.3,287.3327096511259,322.3,296.07114317029976,321.3,True
6786ac17e77313e8449a8912_result,124.0,6786ac17e77313e8449a8912,67619bf32066d179f8b4b1ec,67894a39a3974d34e9cfae92,412.0,j,ballFalling,500.0,479.9211431702998,330.87,6.0,fallScene,False,gt,3000.0,479.9211431702998,330.87,500.0,479.9211431702998,479.9211431702998,True
6786ac17e77313e8449a8912_result,125.0,6786ac17e77313e8449a8912,67619bf32066d179f8b4b1ec,67894a39a3974d34e9cfae92,698.0,f,ballFalling,322.3,296.07114317029976,371.46,3.0,fallScene,True,mid,3000.0,321.3,300.0,677.7,703.9288568297002,678.7,True
6786ac17e77313e8449a8912_result,126.0,6786ac17e77313e8449a8912,67619bf32066d179f8b4b1ec,67894a39a3974d34e9cfae92,450.0,j,ballFalling,500.0,553.4711431702997,282.51,7.0,fallScene,False,lp,3000.0,501.0,227.2843295913261,500.0,553.4711431702997,501.0,False
6786ac17e77313e8449a8912_result,127.0,6786ac17e77313e8449a8912,67619bf32066d179f8b4b1ec,67894a39a3974d34e9cfae92,859.0,j,ballFalling,604.4000000000001,575.4211431702997,266.76,12.0,fallScene,False,gt,3000.0,575.4211431702997,266.76,604.4000000000001,575.4211431702997,575.4211431702997,True
6786ac17e77313e8449a8912_result,128.0,6786ac17e77313e8449a8912,67619bf32066d179f8b4b1ec,67894a39a3974d34e9cfae92,478.0,f,ballFalling,500.0,479.9211431702998,330.87,6.0,fallScene,False,mid,3000.0,499.0,300.0,500.0,479.9211431702998,499.0,True
6786ac17e77313e8449a8912_result,129.0,6786ac17e77313e8449a8912,67619bf32066d179f8b4b1ec,67894a39a3974d34e9cfae92,801.0,j,ballFalling,322.3,308.07114317029976,253.89,2.0,fallScene,False,mid,3000.0,321.3,300.0,322.3,308.07114317029976,321.3,False
6786ac17e77313e8449a8912_result,130.0,6786ac17e77313e8449a8912,67619bf32066d179f8b4b1ec,67894a39a3974d34e9cfae92,559.0,j,ballFalling,604.4000000000001,596.8711431702998,394.5,10.0,fallScene,False,gt,3000.0,596.8711431702998,394.5,604.4000000000001,596.8711431702998,596.8711431702998,True
6786ac17e77313e8449a8912_result,131.0,6786ac17e77313e8449a8912,67619bf32066d179f8b4b1ec,67894a39a3974d34e9cfae92,572.0,j,ballFalling,500.0,510.8711431702997,369.03,8.0,fallScene,False,gt,3000.0,510.8711431702997,369.03,500.0,510.8711431702997,510.8711431702997,True
6786ac17e77313e8449a8912_result,132.0,6786ac17e77313e8449a8912,67619bf32066d179f8b4b1ec,67894a39a3974d34e9cfae92,643.0,f,ballFalling,322.3,308.07114317029976,253.89,2.0,fallScene,False,gt,3000.0,308.07114317029976,253.89,322.3,308.07114317029976,308.07114317029976,False
6786ac17e77313e8449a8912_result,133.0,6786ac17e77313e8449a8912,67619bf32066d179f8b4b1ec,67894a39a3974d34e9cfae92,569.0,j,ballFalling,500.0,479.9211431702998,330.87,6.0,fallScene,True,mid,3000.0,499.0,300.0,500.0,520.0788568297003,501.0,False
6786ac17e77313e8449a8912_result,134.0,6786ac17e77313e8449a8912,67619bf32066d179f8b4b1ec,67894a39a3974d34e9cfae92,393.0,f,ballFalling,322.3,356.42114317029973,357.87,4.0,fallScene,True,lp,3000.0,323.3,297.4070551689986,677.7,643.5788568297003,676.7,True
6786ac17e77313e8449a8912_result,135.0,6786ac17e77313e8449a8912,67619bf32066d179f8b4b1ec,67894a39a3974d34e9cfae92,853.0,j,ballFalling,322.3,356.42114317029973,357.87,4.0,fallScene,False,mid,3000.0,390.27114317029975,300.0,322.3,356.42114317029973,390.27114317029975,False
6786ac17e77313e8449a8912_result,136.0,6786ac17e77313e8449a8912,67619bf32066d179f8b4b1ec,67894a39a3974d34e9cfae92,120.0,j,ballFalling,500.0,510.8711431702997,369.03,8.0,fallScene,False,lp,3000.0,501.0,151.0,500.0,510.8711431702997,501.0,False
6786ac17e77313e8449a8912_result,137.0,6786ac17e77313e8449a8912,67619bf32066d179f8b4b1ec,67894a39a3974d34e9cfae92,416.0,j,ballFalling,500.0,453.6711431702998,210.33,5.0,fallScene,True,mid,3000.0,499.0,300.0,500.0,546.3288568297003,501.0,False
6786ac17e77313e8449a8912_result,138.0,6786ac17e77313e8449a8912,67619bf32066d179f8b4b1ec,67894a39a3974d34e9cfae92,509.0,f,ballFalling,322.3,308.07114317029976,253.89,2.0,fallScene,True,lp,3000.0,321.3,151.0,677.7,691.9288568297002,678.7,True
6786ac17e77313e8449a8912_result,139.0,6786ac17e77313e8449a8912,67619bf32066d179f8b4b1ec,67894a39a3974d34e9cfae92,643.0,j,ballFalling,604.4000000000001,667.6211431702998,201.78,9.0,fallScene,False,lp,3000.0,605.4000000000001,151.0,604.4000000000001,667.6211431702998,605.4000000000001,False
6786ac17e77313e8449a8912_result,140.0,6786ac17e77313e8449a8912,67619bf32066d179f8b4b1ec,67894a39a3974d34e9cfae92,794.0,f,ballFalling,604.4000000000001,575.4211431702997,266.76,12.0,fallScene,True,lp,3000.0,603.4000000000001,151.0,395.5999999999999,424.57885682970027,396.5999999999999,True
6786ac17e77313e8449a8912_result,141.0,6786ac17e77313e8449a8912,67619bf32066d179f8b4b1ec,67894a39a3974d34e9cfae92,1029.0,j,ballFalling,604.4000000000001,575.4211431702997,266.76,12.0,fallScene,False,mid,3000.0,536.4288568297004,300.0,604.4000000000001,575.4211431702997,536.4288568297004,False
6786ac17e77313e8449a8912_result,142.0,6786ac17e77313e8449a8912,67619bf32066d179f8b4b1ec,67894a39a3974d34e9cfae92,520.0,j,ballFalling,322.3,356.42114317029973,357.87,4.0,fallScene,False,lp,3000.0,323.3,297.4070551689986,322.3,356.42114317029973,323.3,False
6786ac17e77313e8449a8912_result,143.0,6786ac17e77313e8449a8912,67619bf32066d179f8b4b1ec,67894a39a3974d34e9cfae92,629.0,f,ballFalling,604.4000000000001,575.4211431702997,266.76,12.0,fallScene,True,lp,3000.0,603.4000000000001,151.0,395.5999999999999,424.57885682970027,396.5999999999999,True
6786ac17e77313e8449a8912_result,144.0,6786ac17e77313e8449a8912,67619bf32066d179f8b4b1ec,67894a39a3974d34e9cfae92,449.0,f,ballFalling,500.0,553.4711431702997,282.51,7.0,fallScene,True,mid,3000.0,501.0,300.0,500.0,446.5288568297003,499.0,True
6651064be071e3482a85f01c_result,1.0,6651064be071e3482a85f01c,67619bf32066d179f8b4b1ec,6789494d9e46d96811b3b9c7,1006.0,j,ballFalling,500.0,553.4711431702997,282.51,7.0,fallScene,False,lp,3000.0,501.0,227.2843295913261,500.0,553.4711431702997,501.0,False
6651064be071e3482a85f01c_result,2.0,6651064be071e3482a85f01c,67619bf32066d179f8b4b1ec,6789494d9e46d96811b3b9c7,812.0,j,ballFalling,500.0,479.9211431702998,330.87,6.0,fallScene,False,lp,3000.0,499.0,189.92909825697632,500.0,479.9211431702998,499.0,False
6651064be071e3482a85f01c_result,3.0,6651064be071e3482a85f01c,67619bf32066d179f8b4b1ec,6789494d9e46d96811b3b9c7,443.0,j,ballFalling,500.0,510.8711431702997,369.03,8.0,fallScene,False,lp,3000.0,501.0,151.0,500.0,510.8711431702997,501.0,False
6651064be071e3482a85f01c_result,4.0,6651064be071e3482a85f01c,67619bf32066d179f8b4b1ec,6789494d9e46d96811b3b9c7,740.0,j,ballFalling,500.0,479.9211431702998,330.87,6.0,fallScene,False,mid,3000.0,499.0,300.0,500.0,479.9211431702998,499.0,False
6651064be071e3482a85f01c_result,5.0,6651064be071e3482a85f01c,67619bf32066d179f8b4b1ec,6789494d9e46d96811b3b9c7,444.0,j,ballFalling,322.3,308.07114317029976,253.89,2.0,fallScene,True,gt,3000.0,308.07114317029976,253.89,677.7,691.9288568297002,691.9288568297002,True
6651064be071e3482a85f01c_result,6.0,6651064be071e3482a85f01c,67619bf32066d179f8b4b1ec,6789494d9e46d96811b3b9c7,354.0,j,ballFalling,322.3,296.07114317029976,371.46,3.0,fallScene,True,mid,3000.0,321.3,300.0,677.7,703.9288568297002,678.7,False
6651064be071e3482a85f01c_result,7.0,6651064be071e3482a85f01c,67619bf32066d179f8b4b1ec,6789494d9e46d96811b3b9c7,559.0,j,ballFalling,322.3,356.42114317029973,357.87,4.0,fallScene,False,gt,3000.0,356.42114317029973,357.87,322.3,356.42114317029973,356.42114317029973,True
6651064be071e3482a85f01c_result,8.0,6651064be071e3482a85f01c,67619bf32066d179f8b4b1ec,6789494d9e46d96811b3b9c7,502.0,f,ballFalling,604.4000000000001,650.0211431702996,404.58,11.0,fallScene,False,gt,3000.0,650.0211431702996,404.58,604.4000000000001,650.0211431702996,650.0211431702996,False
6651064be071e3482a85f01c_result,9.0,6651064be071e3482a85f01c,67619bf32066d179f8b4b1ec,6789494d9e46d96811b3b9c7,640.0,j,ballFalling,604.4000000000001,667.6211431702998,201.78,9.0,fallScene,True,mid,3000.0,605.4000000000001,300.0,395.5999999999999,332.3788568297002,394.5999999999999,False
6651064be071e3482a85f01c_result,10.0,6651064be071e3482a85f01c,67619bf32066d179f8b4b1ec,6789494d9e46d96811b3b9c7,494.0,j,ballFalling,604.4000000000001,650.0211431702996,404.58,11.0,fallScene,False,lp,3000.0,605.4000000000001,372.6340973215488,604.4000000000001,650.0211431702996,605.4000000000001,False
6651064be071e3482a85f01c_result,11.0,6651064be071e3482a85f01c,67619bf32066d179f8b4b1ec,6789494d9e46d96811b3b9c7,456.0,f,ballFalling,500.0,479.9211431702998,330.87,6.0,fallScene,False,mid,3000.0,499.0,300.0,500.0,479.9211431702998,499.0,True
6651064be071e3482a85f01c_result,12.0,6651064be071e3482a85f01c,67619bf32066d179f8b4b1ec,6789494d9e46d96811b3b9c7,669.0,j,ballFalling,500.0,453.6711431702998,210.33,5.0,fallScene,True,mid,3000.0,499.0,300.0,500.0,546.3288568297003,501.0,False
6651064be071e3482a85f01c_result,13.0,6651064be071e3482a85f01c,67619bf32066d179f8b4b1ec,6789494d9e46d96811b3b9c7,523.0,j,ballFalling,500.0,479.9211431702998,330.87,6.0,fallScene,True,gt,3000.0,479.9211431702998,330.87,500.0,520.0788568297003,520.0788568297003,True
6651064be071e3482a85f01c_result,14.0,6651064be071e3482a85f01c,67619bf32066d179f8b4b1ec,6789494d9e46d96811b3b9c7,493.0,f,ballFalling,604.4000000000001,650.0211431702996,404.58,11.0,fallScene,False,mid,3000.0,605.4000000000001,300.0,604.4000000000001,650.0211431702996,605.4000000000001,True
6651064be071e3482a85f01c_result,15.0,6651064be071e3482a85f01c,67619bf32066d179f8b4b1ec,6789494d9e46d96811b3b9c7,680.0,f,ballFalling,500.0,553.4711431702997,282.51,7.0,fallScene,True,mid,3000.0,501.0,300.0,500.0,446.5288568297003,499.0,True
6651064be071e3482a85f01c_result,16.0,6651064be071e3482a85f01c,67619bf32066d179f8b4b1ec,6789494d9e46d96811b3b9c7,484.0,f,ballFalling,322.3,356.42114317029973,357.87,4.0,fallScene,True,mid,3000.0,390.27114317029975,300.0,677.7,643.5788568297003,609.7288568297002,True
6651064be071e3482a85f01c_result,17.0,6651064be071e3482a85f01c,67619bf32066d179f8b4b1ec,6789494d9e46d96811b3b9c7,420.0,j,ballFalling,500.0,479.9211431702998,330.87,6.0,fallScene,True,lp,3000.0,499.0,189.92909825697632,500.0,520.0788568297003,501.0,False
6651064be071e3482a85f01c_result,18.0,6651064be071e3482a85f01c,67619bf32066d179f8b4b1ec,6789494d9e46d96811b3b9c7,791.0,j,ballFalling,500.0,453.6711431702998,210.33,5.0,fallScene,True,lp,3000.0,499.0,151.0,500.0,546.3288568297003,501.0,False
6651064be071e3482a85f01c_result,19.0,6651064be071e3482a85f01c,67619bf32066d179f8b4b1ec,6789494d9e46d96811b3b9c7,738.0,j,ballFalling,322.3,356.42114317029973,357.87,4.0,fallScene,False,gt,3000.0,356.42114317029973,357.87,322.3,356.42114317029973,356.42114317029973,True
6651064be071e3482a85f01c_result,20.0,6651064be071e3482a85f01c,67619bf32066d179f8b4b1ec,6789494d9e46d96811b3b9c7,753.0,j,ballFalling,500.0,510.8711431702997,369.03,8.0,fallScene,False,mid,3000.0,501.0,300.0,500.0,510.8711431702997,501.0,False
6651064be071e3482a85f01c_result,21.0,6651064be071e3482a85f01c,67619bf32066d179f8b4b1ec,6789494d9e46d96811b3b9c7,467.0,f,ballFalling,500.0,453.6711431702998,210.33,5.0,fallScene,False,mid,3000.0,499.0,300.0,500.0,453.6711431702998,499.0,True
6651064be071e3482a85f01c_result,22.0,6651064be071e3482a85f01c,67619bf32066d179f8b4b1ec,6789494d9e46d96811b3b9c7,317.0,j,ballFalling,500.0,553.4711431702997,282.51,7.0,fallScene,True,gt,3000.0,553.4711431702997,282.51,500.0,446.5288568297003,446.5288568297003,True
6651064be071e3482a85f01c_result,23.0,6651064be071e3482a85f01c,67619bf32066d179f8b4b1ec,6789494d9e46d96811b3b9c7,546.0,f,ballFalling,322.3,356.42114317029973,357.87,4.0,fallScene,False,mid,3000.0,390.27114317029975,300.0,322.3,356.42114317029973,390.27114317029975,True
6651064be071e3482a85f01c_result,24.0,6651064be071e3482a85f01c,67619bf32066d179f8b4b1ec,6789494d9e46d96811b3b9c7,399.0,j,ballFalling,322.3,356.42114317029973,357.87,4.0,fallScene,True,lp,3000.0,323.3,297.4070551689986,677.7,643.5788568297003,676.7,False
6651064be071e3482a85f01c_result,25.0,6651064be071e3482a85f01c,67619bf32066d179f8b4b1ec,6789494d9e46d96811b3b9c7,418.0,j,ballFalling,500.0,553.4711431702997,282.51,7.0,fallScene,True,lp,3000.0,501.0,227.2843295913261,500.0,446.5288568297003,499.0,False
6651064be071e3482a85f01c_result,26.0,6651064be071e3482a85f01c,67619bf32066d179f8b4b1ec,6789494d9e46d96811b3b9c7,728.0,f,ballFalling,500.0,510.8711431702997,369.03,8.0,fallScene,False,gt,3000.0,510.8711431702997,369.03,500.0,510.8711431702997,510.8711431702997,False
6651064be071e3482a85f01c_result,27.0,6651064be071e3482a85f01c,67619bf32066d179f8b4b1ec,6789494d9e46d96811b3b9c7,767.0,j,ballFalling,322.3,379.3711431702997,245.25,1.0,fallScene,False,lp,3000.0,323.3,217.74551669457017,322.3,379.3711431702997,323.3,False
6651064be071e3482a85f01c_result,28.0,6651064be071e3482a85f01c,67619bf32066d179f8b4b1ec,6789494d9e46d96811b3b9c7,831.0,j,ballFalling,322.3,379.3711431702997,245.25,1.0,fallScene,True,mid,3000.0,390.27114317029975,300.0,677.7,620.6288568297002,609.7288568297002,False
6651064be071e3482a85f01c_result,29.0,6651064be071e3482a85f01c,67619bf32066d179f8b4b1ec,6789494d9e46d96811b3b9c7,461.0,j,ballFalling,500.0,453.6711431702998,210.33,5.0,fallScene,True,gt,3000.0,453.6711431702998,210.33,500.0,546.3288568297003,546.3288568297003,True
6651064be071e3482a85f01c_result,30.0,6651064be071e3482a85f01c,67619bf32066d179f8b4b1ec,6789494d9e46d96811b3b9c7,729.0,f,ballFalling,500.0,510.8711431702997,369.03,8.0,fallScene,False,gt,3000.0,510.8711431702997,369.03,500.0,510.8711431702997,510.8711431702997,False
6651064be071e3482a85f01c_result,31.0,6651064be071e3482a85f01c,67619bf32066d179f8b4b1ec,6789494d9e46d96811b3b9c7,560.0,f,ballFalling,604.4000000000001,596.8711431702998,394.5,10.0,fallScene,False,gt,3000.0,596.8711431702998,394.5,604.4000000000001,596.8711431702998,596.8711431702998,False
6651064be071e3482a85f01c_result,32.0,6651064be071e3482a85f01c,67619bf32066d179f8b4b1ec,6789494d9e46d96811b3b9c7,616.0,f,ballFalling,604.4000000000001,575.4211431702997,266.76,12.0,fallScene,False,lp,3000.0,603.4000000000001,151.0,604.4000000000001,575.4211431702997,603.4000000000001,True
6651064be071e3482a85f01c_result,33.0,6651064be071e3482a85f01c,67619bf32066d179f8b4b1ec,6789494d9e46d96811b3b9c7,698.0,f,ballFalling,322.3,379.3711431702997,245.25,1.0,fallScene,False,gt,3000.0,379.3711431702997,245.25,322.3,379.3711431702997,379.3711431702997,False
6651064be071e3482a85f01c_result,34.0,6651064be071e3482a85f01c,67619bf32066d179f8b4b1ec,6789494d9e46d96811b3b9c7,424.0,j,ballFalling,604.4000000000001,575.4211431702997,266.76,12.0,fallScene,True,lp,3000.0,603.4000000000001,151.0,395.5999999999999,424.57885682970027,396.5999999999999,False
6651064be071e3482a85f01c_result,35.0,6651064be071e3482a85f01c,67619bf32066d179f8b4b1ec,6789494d9e46d96811b3b9c7,637.0,j,ballFalling,500.0,453.6711431702998,210.33,5.0,fallScene,False,lp,3000.0,499.0,151.0,500.0,453.6711431702998,499.0,False
6651064be071e3482a85f01c_result,36.0,6651064be071e3482a85f01c,67619bf32066d179f8b4b1ec,6789494d9e46d96811b3b9c7,533.0,j,ballFalling,604.4000000000001,667.6211431702998,201.78,9.0,fallScene,False,gt,3000.0,667.6211431702998,201.78,604.4000000000001,667.6211431702998,667.6211431702998,True
6651064be071e3482a85f01c_result,37.0,6651064be071e3482a85f01c,67619bf32066d179f8b4b1ec,6789494d9e46d96811b3b9c7,401.0,j,ballFalling,604.4000000000001,667.6211431702998,201.78,9.0,fallScene,True,gt,3000.0,667.6211431702998,201.78,395.5999999999999,332.3788568297002,332.3788568297002,True
6651064be071e3482a85f01c_result,38.0,6651064be071e3482a85f01c,67619bf32066d179f8b4b1ec,6789494d9e46d96811b3b9c7,404.0,j,ballFalling,604.4000000000001,667.6211431702998,201.78,9.0,fallScene,False,lp,3000.0,605.4000000000001,151.0,604.4000000000001,667.6211431702998,605.4000000000001,False
6651064be071e3482a85f01c_result,39.0,6651064be071e3482a85f01c,67619bf32066d179f8b4b1ec,6789494d9e46d96811b3b9c7,434.0,f,ballFalling,604.4000000000001,575.4211431702997,266.76,12.0,fallScene,True,gt,3000.0,575.4211431702997,266.76,395.5999999999999,424.57885682970027,424.57885682970027,False
6651064be071e3482a85f01c_result,40.0,6651064be071e3482a85f01c,67619bf32066d179f8b4b1ec,6789494d9e46d96811b3b9c7,357.0,j,ballFalling,604.4000000000001,596.8711431702998,394.5,10.0,fallScene,False,lp,3000.0,603.4000000000001,215.50214355555383,604.4000000000001,596.8711431702998,603.4000000000001,False
6651064be071e3482a85f01c_result,41.0,6651064be071e3482a85f01c,67619bf32066d179f8b4b1ec,6789494d9e46d96811b3b9c7,351.0,j,ballFalling,500.0,553.4711431702997,282.51,7.0,fallScene,False,gt,3000.0,553.4711431702997,282.51,500.0,553.4711431702997,553.4711431702997,True
6651064be071e3482a85f01c_result,42.0,6651064be071e3482a85f01c,67619bf32066d179f8b4b1ec,6789494d9e46d96811b3b9c7,507.0,j,ballFalling,604.4000000000001,575.4211431702997,266.76,12.0,fallScene,True,mid,3000.0,536.4288568297004,300.0,395.5999999999999,424.57885682970027,463.5711431702996,False
6651064be071e3482a85f01c_result,43.0,6651064be071e3482a85f01c,67619bf32066d179f8b4b1ec,6789494d9e46d96811b3b9c7,375.0,f,ballFalling,322.3,379.3711431702997,245.25,1.0,fallScene,True,gt,3000.0,379.3711431702997,245.25,677.7,620.6288568297002,620.6288568297002,False
6651064be071e3482a85f01c_result,44.0,6651064be071e3482a85f01c,67619bf32066d179f8b4b1ec,6789494d9e46d96811b3b9c7,362.0,f,ballFalling,604.4000000000001,667.6211431702998,201.78,9.0,fallScene,False,mid,3000.0,605.4000000000001,300.0,604.4000000000001,667.6211431702998,605.4000000000001,True
6651064be071e3482a85f01c_result,45.0,6651064be071e3482a85f01c,67619bf32066d179f8b4b1ec,6789494d9e46d96811b3b9c7,409.0,j,ballFalling,604.4000000000001,596.8711431702998,394.5,10.0,fallScene,False,gt,3000.0,596.8711431702998,394.5,604.4000000000001,596.8711431702998,596.8711431702998,True
6651064be071e3482a85f01c_result,46.0,6651064be071e3482a85f01c,67619bf32066d179f8b4b1ec,6789494d9e46d96811b3b9c7,323.0,j,ballFalling,322.3,308.07114317029976,253.89,2.0,fallScene,False,mid,3000.0,321.3,300.0,322.3,308.07114317029976,321.3,False
6651064be071e3482a85f01c_result,47.0,6651064be071e3482a85f01c,67619bf32066d179f8b4b1ec,6789494d9e46d96811b3b9c7,292.0,j,ballFalling,604.4000000000001,596.8711431702998,394.5,10.0,fallScene,True,lp,3000.0,603.4000000000001,215.50214355555383,395.5999999999999,403.1288568297002,396.5999999999999,False
6651064be071e3482a85f01c_result,48.0,6651064be071e3482a85f01c,67619bf32066d179f8b4b1ec,6789494d9e46d96811b3b9c7,386.0,f,ballFalling,322.3,296.07114317029976,371.46,3.0,fallScene,False,lp,3000.0,321.3,287.3327096511259,322.3,296.07114317029976,321.3,True
6651064be071e3482a85f01c_result,49.0,6651064be071e3482a85f01c,67619bf32066d179f8b4b1ec,6789494d9e46d96811b3b9c7,286.0,f,ballFalling,604.4000000000001,650.0211431702996,404.58,11.0,fallScene,True,gt,1000.0,650.0211431702996,404.58,395.5999999999999,349.97885682970036,349.97885682970036,False
6651064be071e3482a85f01c_result,50.0,6651064be071e3482a85f01c,67619bf32066d179f8b4b1ec,6789494d9e46d96811b3b9c7,289.0,j,ballFalling,322.3,356.42114317029973,357.87,4.0,fallScene,False,mid,1000.0,390.27114317029975,300.0,322.3,356.42114317029973,390.27114317029975,False
6651064be071e3482a85f01c_result,51.0,6651064be071e3482a85f01c,67619bf32066d179f8b4b1ec,6789494d9e46d96811b3b9c7,357.0,f,ballFalling,500.0,553.4711431702997,282.51,7.0,fallScene,False,lp,1000.0,501.0,227.2843295913261,500.0,553.4711431702997,501.0,True
6651064be071e3482a85f01c_result,52.0,6651064be071e3482a85f01c,67619bf32066d179f8b4b1ec,6789494d9e46d96811b3b9c7,286.0,j,ballFalling,322.3,308.07114317029976,253.89,2.0,fallScene,True,gt,1000.0,308.07114317029976,253.89,677.7,691.9288568297002,691.9288568297002,True
6651064be071e3482a85f01c_result,53.0,6651064be071e3482a85f01c,67619bf32066d179f8b4b1ec,6789494d9e46d96811b3b9c7,280.0,j,ballFalling,604.4000000000001,667.6211431702998,201.78,9.0,fallScene,False,gt,1000.0,667.6211431702998,201.78,604.4000000000001,667.6211431702998,667.6211431702998,True
6651064be071e3482a85f01c_result,54.0,6651064be071e3482a85f01c,67619bf32066d179f8b4b1ec,6789494d9e46d96811b3b9c7,266.0,j,ballFalling,322.3,379.3711431702997,245.25,1.0,fallScene,False,gt,1000.0,379.3711431702997,245.25,322.3,379.3711431702997,379.3711431702997,True
6651064be071e3482a85f01c_result,55.0,6651064be071e3482a85f01c,67619bf32066d179f8b4b1ec,6789494d9e46d96811b3b9c7,300.0,f,ballFalling,604.4000000000001,575.4211431702997,266.76,12.0,fallScene,False,lp,1000.0,603.4000000000001,151.0,604.4000000000001,575.4211431702997,603.4000000000001,True
6651064be071e3482a85f01c_result,56.0,6651064be071e3482a85f01c,67619bf32066d179f8b4b1ec,6789494d9e46d96811b3b9c7,338.0,j,ballFalling,604.4000000000001,596.8711431702998,394.5,10.0,fallScene,True,lp,1000.0,603.4000000000001,215.50214355555383,395.5999999999999,403.1288568297002,396.5999999999999,False
6651064be071e3482a85f01c_result,57.0,6651064be071e3482a85f01c,67619bf32066d179f8b4b1ec,6789494d9e46d96811b3b9c7,400.0,j,ballFalling,322.3,356.42114317029973,357.87,4.0,fallScene,False,gt,1000.0,356.42114317029973,357.87,322.3,356.42114317029973,356.42114317029973,True
6651064be071e3482a85f01c_result,58.0,6651064be071e3482a85f01c,67619bf32066d179f8b4b1ec,6789494d9e46d96811b3b9c7,360.0,j,ballFalling,604.4000000000001,667.6211431702998,201.78,9.0,fallScene,False,gt,1000.0,667.6211431702998,201.78,604.4000000000001,667.6211431702998,667.6211431702998,True
6651064be071e3482a85f01c_result,59.0,6651064be071e3482a85f01c,67619bf32066d179f8b4b1ec,6789494d9e46d96811b3b9c7,403.0,j,ballFalling,604.4000000000001,575.4211431702997,266.76,12.0,fallScene,True,mid,1000.0,536.4288568297004,300.0,395.5999999999999,424.57885682970027,463.5711431702996,False
6651064be071e3482a85f01c_result,60.0,6651064be071e3482a85f01c,67619bf32066d179f8b4b1ec,6789494d9e46d96811b3b9c7,381.0,f,ballFalling,604.4000000000001,667.6211431702998,201.78,9.0,fallScene,False,lp,1000.0,605.4000000000001,151.0,604.4000000000001,667.6211431702998,605.4000000000001,True
6651064be071e3482a85f01c_result,61.0,6651064be071e3482a85f01c,67619bf32066d179f8b4b1ec,6789494d9e46d96811b3b9c7,401.0,j,ballFalling,322.3,379.3711431702997,245.25,1.0,fallScene,False,mid,1000.0,390.27114317029975,300.0,322.3,379.3711431702997,390.27114317029975,False
6651064be071e3482a85f01c_result,62.0,6651064be071e3482a85f01c,67619bf32066d179f8b4b1ec,6789494d9e46d96811b3b9c7,328.0,f,ballFalling,604.4000000000001,596.8711431702998,394.5,10.0,fallScene,True,lp,1000.0,603.4000000000001,215.50214355555383,395.5999999999999,403.1288568297002,396.5999999999999,True
6651064be071e3482a85f01c_result,63.0,6651064be071e3482a85f01c,67619bf32066d179f8b4b1ec,6789494d9e46d96811b3b9c7,313.0,f,ballFalling,322.3,296.07114317029976,371.46,3.0,fallScene,True,gt,1000.0,296.07114317029976,371.46,677.7,703.9288568297002,703.9288568297002,False
6651064be071e3482a85f01c_result,64.0,6651064be071e3482a85f01c,67619bf32066d179f8b4b1ec,6789494d9e46d96811b3b9c7,282.0,f,ballFalling,500.0,453.6711431702998,210.33,5.0,fallScene,False,lp,1000.0,499.0,151.0,500.0,453.6711431702998,499.0,True
6651064be071e3482a85f01c_result,65.0,6651064be071e3482a85f01c,67619bf32066d179f8b4b1ec,6789494d9e46d96811b3b9c7,317.0,f,ballFalling,322.3,296.07114317029976,371.46,3.0,fallScene,False,lp,1000.0,321.3,287.3327096511259,322.3,296.07114317029976,321.3,True
6651064be071e3482a85f01c_result,66.0,6651064be071e3482a85f01c,67619bf32066d179f8b4b1ec,6789494d9e46d96811b3b9c7,302.0,j,ballFalling,604.4000000000001,575.4211431702997,266.76,12.0,fallScene,False,lp,1000.0,603.4000000000001,151.0,604.4000000000001,575.4211431702997,603.4000000000001,False
6651064be071e3482a85f01c_result,67.0,6651064be071e3482a85f01c,67619bf32066d179f8b4b1ec,6789494d9e46d96811b3b9c7,340.0,j,ballFalling,500.0,510.8711431702997,369.03,8.0,fallScene,False,gt,1000.0,510.8711431702997,369.03,500.0,510.8711431702997,510.8711431702997,True
6651064be071e3482a85f01c_result,68.0,6651064be071e3482a85f01c,67619bf32066d179f8b4b1ec,6789494d9e46d96811b3b9c7,310.0,j,ballFalling,322.3,308.07114317029976,253.89,2.0,fallScene,False,lp,1000.0,321.3,151.0,322.3,308.07114317029976,321.3,False
6651064be071e3482a85f01c_result,69.0,6651064be071e3482a85f01c,67619bf32066d179f8b4b1ec,6789494d9e46d96811b3b9c7,364.0,j,ballFalling,604.4000000000001,667.6211431702998,201.78,9.0,fallScene,True,lp,1000.0,605.4000000000001,151.0,395.5999999999999,332.3788568297002,394.5999999999999,False
6651064be071e3482a85f01c_result,70.0,6651064be071e3482a85f01c,67619bf32066d179f8b4b1ec,6789494d9e46d96811b3b9c7,267.0,f,ballFalling,500.0,479.9211431702998,330.87,6.0,fallScene,False,lp,1000.0,499.0,189.92909825697632,500.0,479.9211431702998,499.0,True
6651064be071e3482a85f01c_result,71.0,6651064be071e3482a85f01c,67619bf32066d179f8b4b1ec,6789494d9e46d96811b3b9c7,10.0,j,ballFalling,322.3,356.42114317029973,357.87,4.0,fallScene,True,lp,1000.0,323.3,297.4070551689986,677.7,643.5788568297003,676.7,False
6651064be071e3482a85f01c_result,72.0,6651064be071e3482a85f01c,67619bf32066d179f8b4b1ec,6789494d9e46d96811b3b9c7,296.0,f,ballFalling,322.3,296.07114317029976,371.46,3.0,fallScene,False,lp,1000.0,321.3,287.3327096511259,322.3,296.07114317029976,321.3,True
6651064be071e3482a85f01c_result,73.0,6651064be071e3482a85f01c,67619bf32066d179f8b4b1ec,6789494d9e46d96811b3b9c7,303.0,j,ballFalling,500.0,479.9211431702998,330.87,6.0,fallScene,True,mid,1000.0,499.0,300.0,500.0,520.0788568297003,501.0,False
6651064be071e3482a85f01c_result,74.0,6651064be071e3482a85f01c,67619bf32066d179f8b4b1ec,6789494d9e46d96811b3b9c7,340.0,j,ballFalling,500.0,479.9211431702998,330.87,6.0,fallScene,False,gt,1000.0,479.9211431702998,330.87,500.0,479.9211431702998,479.9211431702998,True
6651064be071e3482a85f01c_result,75.0,6651064be071e3482a85f01c,67619bf32066d179f8b4b1ec,6789494d9e46d96811b3b9c7,444.0,f,ballFalling,322.3,379.3711431702997,245.25,1.0,fallScene,False,lp,1000.0,323.3,217.74551669457017,322.3,379.3711431702997,323.3,True
6651064be071e3482a85f01c_result,76.0,6651064be071e3482a85f01c,67619bf32066d179f8b4b1ec,6789494d9e46d96811b3b9c7,317.0,j,ballFalling,604.4000000000001,596.8711431702998,394.5,10.0,fallScene,False,gt,1000.0,596.8711431702998,394.5,604.4000000000001,596.8711431702998,596.8711431702998,True
6651064be071e3482a85f01c_result,77.0,6651064be071e3482a85f01c,67619bf32066d179f8b4b1ec,6789494d9e46d96811b3b9c7,327.0,j,ballFalling,322.3,356.42114317029973,357.87,4.0,fallScene,True,mid,1000.0,390.27114317029975,300.0,677.7,643.5788568297003,609.7288568297002,False
6651064be071e3482a85f01c_result,78.0,6651064be071e3482a85f01c,67619bf32066d179f8b4b1ec,6789494d9e46d96811b3b9c7,333.0,f,ballFalling,322.3,308.07114317029976,253.89,2.0,fallScene,False,gt,1000.0,308.07114317029976,253.89,322.3,308.07114317029976,308.07114317029976,False
6651064be071e3482a85f01c_result,79.0,6651064be071e3482a85f01c,67619bf32066d179f8b4b1ec,6789494d9e46d96811b3b9c7,451.0,f,ballFalling,604.4000000000001,667.6211431702998,201.78,9.0,fallScene,True,mid,1000.0,605.4000000000001,300.0,395.5999999999999,332.3788568297002,394.5999999999999,True
6651064be071e3482a85f01c_result,80.0,6651064be071e3482a85f01c,67619bf32066d179f8b4b1ec,6789494d9e46d96811b3b9c7,404.0,j,ballFalling,604.4000000000001,650.0211431702996,404.58,11.0,fallScene,True,gt,1000.0,650.0211431702996,404.58,395.5999999999999,349.97885682970036,349.97885682970036,True
6651064be071e3482a85f01c_result,81.0,6651064be071e3482a85f01c,67619bf32066d179f8b4b1ec,6789494d9e46d96811b3b9c7,418.0,j,ballFalling,322.3,296.07114317029976,371.46,3.0,fallScene,True,mid,1000.0,321.3,300.0,677.7,703.9288568297002,678.7,False
6651064be071e3482a85f01c_result,82.0,6651064be071e3482a85f01c,67619bf32066d179f8b4b1ec,6789494d9e46d96811b3b9c7,562.0,j,ballFalling,322.3,379.3711431702997,245.25,1.0,fallScene,False,lp,1000.0,323.3,217.74551669457017,322.3,379.3711431702997,323.3,False
6651064be071e3482a85f01c_result,83.0,6651064be071e3482a85f01c,67619bf32066d179f8b4b1ec,6789494d9e46d96811b3b9c7,365.0,f,ballFalling,500.0,553.4711431702997,282.51,7.0,fallScene,True,mid,1000.0,501.0,300.0,500.0,446.5288568297003,499.0,True
6651064be071e3482a85f01c_result,84.0,6651064be071e3482a85f01c,67619bf32066d179f8b4b1ec,6789494d9e46d96811b3b9c7,370.0,f,ballFalling,500.0,510.8711431702997,369.03,8.0,fallScene,True,lp,1000.0,501.0,151.0,500.0,489.1288568297003,499.0,True
6651064be071e3482a85f01c_result,85.0,6651064be071e3482a85f01c,67619bf32066d179f8b4b1ec,6789494d9e46d96811b3b9c7,902.0,f,ballFalling,500.0,553.4711431702997,282.51,7.0,fallScene,True,gt,1000.0,553.4711431702997,282.51,500.0,446.5288568297003,446.5288568297003,False
6651064be071e3482a85f01c_result,86.0,6651064be071e3482a85f01c,67619bf32066d179f8b4b1ec,6789494d9e46d96811b3b9c7,297.0,j,ballFalling,500.0,553.4711431702997,282.51,7.0,fallScene,False,mid,1000.0,501.0,300.0,500.0,553.4711431702997,501.0,False
