participant_ID,currentTrial,subject_id,study_id,session_id,rt,response,task,ball_X,obstacle_groundTruth_x,obstacle_groundTruth_y,stimulus_idx,trial_name,flipped,choice,timeLimit,obstacle_choice_x,obstacle_choice_y,ball_X_final,obstacle_groundTruth_x_final,obstacle_choice_x_final,is_accurate
668340555d67e9d1df712a45_result,1.0,668340555d67e9d1df712a45,6790928bebf0b969fc839b02,679826202b2114cc04234446,846.0,f,ballFalling,500.0,510.8711431702997,369.03,8.0,fallScene,True,lp,1000.0,501.0,151.0,500.0,489.1288568297003,499.0,True
668340555d67e9d1df712a45_result,2.0,668340555d67e9d1df712a45,6790928bebf0b969fc839b02,679826202b2114cc04234446,,,ballFalling,322.3,379.3711431702997,245.25,1.0,fallScene,True,gt,1000.0,379.3711431702997,245.25,677.7,620.6288568297002,620.6288568297002,
668340555d67e9d1df712a45_result,3.0,668340555d67e9d1df712a45,6790928bebf0b969fc839b02,679826202b2114cc04234446,937.0,f,ballFalling,604.4000000000001,575.4211431702997,266.76,12.0,fallScene,True,gt,1000.0,575.4211431702997,266.76,395.5999999999999,424.57885682970027,424.57885682970027,False
668340555d67e9d1df712a45_result,4.0,668340555d67e9d1df712a45,6790928bebf0b969fc839b02,679826202b2114cc04234446,774.0,f,ballFalling,604.4000000000001,575.4211431702997,266.76,12.0,fallScene,False,mid,1000.0,536.4288568297004,300.0,604.4000000000001,575.4211431702997,536.4288568297004,True
668340555d67e9d1df712a45_result,5.0,668340555d67e9d1df712a45,6790928bebf0b969fc839b02,679826202b2114cc04234446,,,ballFalling,500.0,453.6711431702998,210.33,5.0,fallScene,True,gt,1000.0,453.6711431702998,210.33,500.0,546.3288568297003,546.3288568297003,
668340555d67e9d1df712a45_result,6.0,668340555d67e9d1df712a45,6790928bebf0b969fc839b02,679826202b2114cc04234446,784.0,j,ballFalling,604.4000000000001,650.0211431702996,404.58,11.0,fallScene,False,mid,1000.0,605.4000000000001,300.0,604.4000000000001,650.0211431702996,605.4000000000001,False
668340555d67e9d1df712a45_result,7.0,668340555d67e9d1df712a45,6790928bebf0b969fc839b02,679826202b2114cc04234446,828.0,f,ballFalling,500.0,553.4711431702997,282.51,7.0,fallScene,False,gt,1000.0,553.4711431702997,282.51,500.0,553.4711431702997,553.4711431702997,False
668340555d67e9d1df712a45_result,8.0,668340555d67e9d1df712a45,6790928bebf0b969fc839b02,679826202b2114cc04234446,876.0,f,ballFalling,604.4000000000001,596.8711431702998,394.5,10.0,fallScene,False,gt,1000.0,596.8711431702998,394.5,604.4000000000001,596.8711431702998,596.8711431702998,False
668340555d67e9d1df712a45_result,9.0,668340555d67e9d1df712a45,6790928bebf0b969fc839b02,679826202b2114cc04234446,764.0,f,ballFalling,322.3,296.07114317029976,371.46,3.0,fallScene,True,gt,1000.0,296.07114317029976,371.46,677.7,703.9288568297002,703.9288568297002,False
668340555d67e9d1df712a45_result,10.0,668340555d67e9d1df712a45,6790928bebf0b969fc839b02,679826202b2114cc04234446,816.0,j,ballFalling,322.3,356.42114317029973,357.87,4.0,fallScene,True,gt,1000.0,356.42114317029973,357.87,677.7,643.5788568297003,643.5788568297003,True
668340555d67e9d1df712a45_result,11.0,668340555d67e9d1df712a45,6790928bebf0b969fc839b02,679826202b2114cc04234446,598.0,j,ballFalling,604.4000000000001,667.6211431702998,201.78,9.0,fallScene,True,mid,1000.0,605.4000000000001,300.0,395.5999999999999,332.3788568297002,394.5999999999999,False
668340555d67e9d1df712a45_result,12.0,668340555d67e9d1df712a45,6790928bebf0b969fc839b02,679826202b2114cc04234446,556.0,f,ballFalling,500.0,453.6711431702998,210.33,5.0,fallScene,False,lp,1000.0,499.0,151.0,500.0,453.6711431702998,499.0,True
668340555d67e9d1df712a45_result,13.0,668340555d67e9d1df712a45,6790928bebf0b969fc839b02,679826202b2114cc04234446,726.0,j,ballFalling,500.0,479.9211431702998,330.87,6.0,fallScene,False,gt,1000.0,479.9211431702998,330.87,500.0,479.9211431702998,479.9211431702998,True
668340555d67e9d1df712a45_result,14.0,668340555d67e9d1df712a45,6790928bebf0b969fc839b02,679826202b2114cc04234446,689.0,f,ballFalling,322.3,308.07114317029976,253.89,2.0,fallScene,False,lp,1000.0,321.3,151.0,322.3,308.07114317029976,321.3,True
668340555d67e9d1df712a45_result,15.0,668340555d67e9d1df712a45,6790928bebf0b969fc839b02,679826202b2114cc04234446,799.0,f,ballFalling,500.0,510.8711431702997,369.03,8.0,fallScene,False,gt,1000.0,510.8711431702997,369.03,500.0,510.8711431702997,510.8711431702997,False
668340555d67e9d1df712a45_result,16.0,668340555d67e9d1df712a45,6790928bebf0b969fc839b02,679826202b2114cc04234446,767.0,j,ballFalling,500.0,510.8711431702997,369.03,8.0,fallScene,True,mid,1000.0,501.0,300.0,500.0,489.1288568297003,499.0,False
668340555d67e9d1df712a45_result,17.0,668340555d67e9d1df712a45,6790928bebf0b969fc839b02,679826202b2114cc04234446,629.0,f,ballFalling,604.4000000000001,667.6211431702998,201.78,9.0,fallScene,False,gt,1000.0,667.6211431702998,201.78,604.4000000000001,667.6211431702998,667.6211431702998,False
668340555d67e9d1df712a45_result,18.0,668340555d67e9d1df712a45,6790928bebf0b969fc839b02,679826202b2114cc04234446,885.0,f,ballFalling,604.4000000000001,596.8711431702998,394.5,10.0,fallScene,True,gt,1000.0,596.8711431702998,394.5,395.5999999999999,403.1288568297002,403.1288568297002,False
668340555d67e9d1df712a45_result,19.0,668340555d67e9d1df712a45,6790928bebf0b969fc839b02,679826202b2114cc04234446,893.0,f,ballFalling,500.0,479.9211431702998,330.87,6.0,fallScene,True,lp,1000.0,499.0,189.92909825697632,500.0,520.0788568297003,501.0,True
668340555d67e9d1df712a45_result,20.0,668340555d67e9d1df712a45,6790928bebf0b969fc839b02,679826202b2114cc04234446,,,ballFalling,604.4000000000001,596.8711431702998,394.5,10.0,fallScene,False,lp,1000.0,603.4000000000001,215.50214355555383,604.4000000000001,596.8711431702998,603.4000000000001,
668340555d67e9d1df712a45_result,21.0,668340555d67e9d1df712a45,6790928bebf0b969fc839b02,679826202b2114cc04234446,707.0,f,ballFalling,604.4000000000001,650.0211431702996,404.58,11.0,fallScene,True,gt,1000.0,650.0211431702996,404.58,395.5999999999999,349.97885682970036,349.97885682970036,False
668340555d67e9d1df712a45_result,22.0,668340555d67e9d1df712a45,6790928bebf0b969fc839b02,679826202b2114cc04234446,728.0,f,ballFalling,604.4000000000001,596.8711431702998,394.5,10.0,fallScene,True,mid,1000.0,536.4288568297004,300.0,395.5999999999999,403.1288568297002,463.5711431702996,True
668340555d67e9d1df712a45_result,23.0,668340555d67e9d1df712a45,6790928bebf0b969fc839b02,679826202b2114cc04234446,768.0,f,ballFalling,500.0,553.4711431702997,282.51,7.0,fallScene,False,lp,1000.0,501.0,227.2843295913261,500.0,553.4711431702997,501.0,True
668340555d67e9d1df712a45_result,24.0,668340555d67e9d1df712a45,6790928bebf0b969fc839b02,679826202b2114cc04234446,651.0,f,ballFalling,604.4000000000001,650.0211431702996,404.58,11.0,fallScene,True,gt,1000.0,650.0211431702996,404.58,395.5999999999999,349.97885682970036,349.97885682970036,False
668340555d67e9d1df712a45_result,25.0,668340555d67e9d1df712a45,6790928bebf0b969fc839b02,679826202b2114cc04234446,827.0,f,ballFalling,322.3,296.07114317029976,371.46,3.0,fallScene,False,mid,3000.0,321.3,300.0,322.3,296.07114317029976,321.3,True
668340555d67e9d1df712a45_result,26.0,668340555d67e9d1df712a45,6790928bebf0b969fc839b02,679826202b2114cc04234446,2239.0,f,ballFalling,604.4000000000001,667.6211431702998,201.78,9.0,fallScene,True,mid,3000.0,605.4000000000001,300.0,395.5999999999999,332.3788568297002,394.5999999999999,True
668340555d67e9d1df712a45_result,27.0,668340555d67e9d1df712a45,6790928bebf0b969fc839b02,679826202b2114cc04234446,985.0,j,ballFalling,322.3,379.3711431702997,245.25,1.0,fallScene,False,gt,3000.0,379.3711431702997,245.25,322.3,379.3711431702997,379.3711431702997,True
668340555d67e9d1df712a45_result,28.0,668340555d67e9d1df712a45,6790928bebf0b969fc839b02,679826202b2114cc04234446,718.0,j,ballFalling,604.4000000000001,575.4211431702997,266.76,12.0,fallScene,False,gt,3000.0,575.4211431702997,266.76,604.4000000000001,575.4211431702997,575.4211431702997,True
668340555d67e9d1df712a45_result,29.0,668340555d67e9d1df712a45,6790928bebf0b969fc839b02,679826202b2114cc04234446,1406.0,f,ballFalling,322.3,296.07114317029976,371.46,3.0,fallScene,False,gt,3000.0,296.07114317029976,371.46,322.3,296.07114317029976,296.07114317029976,False
668340555d67e9d1df712a45_result,30.0,668340555d67e9d1df712a45,6790928bebf0b969fc839b02,679826202b2114cc04234446,1036.0,f,ballFalling,322.3,308.07114317029976,253.89,2.0,fallScene,False,gt,3000.0,308.07114317029976,253.89,322.3,308.07114317029976,308.07114317029976,False
668340555d67e9d1df712a45_result,31.0,668340555d67e9d1df712a45,6790928bebf0b969fc839b02,679826202b2114cc04234446,1877.0,f,ballFalling,500.0,510.8711431702997,369.03,8.0,fallScene,True,mid,3000.0,501.0,300.0,500.0,489.1288568297003,499.0,True
668340555d67e9d1df712a45_result,32.0,668340555d67e9d1df712a45,6790928bebf0b969fc839b02,679826202b2114cc04234446,1115.0,f,ballFalling,500.0,553.4711431702997,282.51,7.0,fallScene,False,lp,3000.0,501.0,227.2843295913261,500.0,553.4711431702997,501.0,True
668340555d67e9d1df712a45_result,33.0,668340555d67e9d1df712a45,6790928bebf0b969fc839b02,679826202b2114cc04234446,756.0,f,ballFalling,322.3,379.3711431702997,245.25,1.0,fallScene,False,lp,3000.0,323.3,217.74551669457017,322.3,379.3711431702997,323.3,True
668340555d67e9d1df712a45_result,34.0,668340555d67e9d1df712a45,6790928bebf0b969fc839b02,679826202b2114cc04234446,1108.0,f,ballFalling,604.4000000000001,650.0211431702996,404.58,11.0,fallScene,False,lp,3000.0,605.4000000000001,372.6340973215488,604.4000000000001,650.0211431702996,605.4000000000001,True
668340555d67e9d1df712a45_result,35.0,668340555d67e9d1df712a45,6790928bebf0b969fc839b02,679826202b2114cc04234446,748.0,f,ballFalling,322.3,356.42114317029973,357.87,4.0,fallScene,False,lp,3000.0,323.3,297.4070551689986,322.3,356.42114317029973,323.3,True
668340555d67e9d1df712a45_result,36.0,668340555d67e9d1df712a45,6790928bebf0b969fc839b02,679826202b2114cc04234446,834.0,f,ballFalling,322.3,356.42114317029973,357.87,4.0,fallScene,True,lp,3000.0,323.3,297.4070551689986,677.7,643.5788568297003,676.7,True
668340555d67e9d1df712a45_result,37.0,668340555d67e9d1df712a45,6790928bebf0b969fc839b02,679826202b2114cc04234446,1108.0,j,ballFalling,500.0,453.6711431702998,210.33,5.0,fallScene,True,gt,3000.0,453.6711431702998,210.33,500.0,546.3288568297003,546.3288568297003,True
668340555d67e9d1df712a45_result,38.0,668340555d67e9d1df712a45,6790928bebf0b969fc839b02,679826202b2114cc04234446,861.0,j,ballFalling,500.0,453.6711431702998,210.33,5.0,fallScene,False,gt,3000.0,453.6711431702998,210.33,500.0,453.6711431702998,453.6711431702998,True
668340555d67e9d1df712a45_result,39.0,668340555d67e9d1df712a45,6790928bebf0b969fc839b02,679826202b2114cc04234446,710.0,j,ballFalling,604.4000000000001,575.4211431702997,266.76,12.0,fallScene,True,gt,3000.0,575.4211431702997,266.76,395.5999999999999,424.57885682970027,424.57885682970027,True
668340555d67e9d1df712a45_result,40.0,668340555d67e9d1df712a45,6790928bebf0b969fc839b02,679826202b2114cc04234446,2313.0,f,ballFalling,604.4000000000001,575.4211431702997,266.76,12.0,fallScene,False,mid,3000.0,536.4288568297004,300.0,604.4000000000001,575.4211431702997,536.4288568297004,True
668340555d67e9d1df712a45_result,41.0,668340555d67e9d1df712a45,6790928bebf0b969fc839b02,679826202b2114cc04234446,2526.0,j,ballFalling,500.0,510.8711431702997,369.03,8.0,fallScene,False,lp,3000.0,501.0,151.0,500.0,510.8711431702997,501.0,False
668340555d67e9d1df712a45_result,42.0,668340555d67e9d1df712a45,6790928bebf0b969fc839b02,679826202b2114cc04234446,1351.0,f,ballFalling,604.4000000000001,596.8711431702998,394.5,10.0,fallScene,True,mid,3000.0,536.4288568297004,300.0,395.5999999999999,403.1288568297002,463.5711431702996,True
668340555d67e9d1df712a45_result,43.0,668340555d67e9d1df712a45,6790928bebf0b969fc839b02,679826202b2114cc04234446,1044.0,f,ballFalling,604.4000000000001,575.4211431702997,266.76,12.0,fallScene,False,lp,3000.0,603.4000000000001,151.0,604.4000000000001,575.4211431702997,603.4000000000001,True
668340555d67e9d1df712a45_result,44.0,668340555d67e9d1df712a45,6790928bebf0b969fc839b02,679826202b2114cc04234446,1799.0,f,ballFalling,322.3,379.3711431702997,245.25,1.0,fallScene,True,mid,3000.0,390.27114317029975,300.0,677.7,620.6288568297002,609.7288568297002,True
668340555d67e9d1df712a45_result,45.0,668340555d67e9d1df712a45,6790928bebf0b969fc839b02,679826202b2114cc04234446,1147.0,j,ballFalling,500.0,553.4711431702997,282.51,7.0,fallScene,True,mid,3000.0,501.0,300.0,500.0,446.5288568297003,499.0,False
668340555d67e9d1df712a45_result,46.0,668340555d67e9d1df712a45,6790928bebf0b969fc839b02,679826202b2114cc04234446,938.0,f,ballFalling,604.4000000000001,667.6211431702998,201.78,9.0,fallScene,False,lp,3000.0,605.4000000000001,151.0,604.4000000000001,667.6211431702998,605.4000000000001,True
668340555d67e9d1df712a45_result,47.0,668340555d67e9d1df712a45,6790928bebf0b969fc839b02,679826202b2114cc04234446,923.0,f,ballFalling,604.4000000000001,650.0211431702996,404.58,11.0,fallScene,True,lp,3000.0,605.4000000000001,372.6340973215488,395.5999999999999,349.97885682970036,394.5999999999999,True
668340555d67e9d1df712a45_result,48.0,668340555d67e9d1df712a45,6790928bebf0b969fc839b02,679826202b2114cc04234446,863.0,j,ballFalling,322.3,379.3711431702997,245.25,1.0,fallScene,True,gt,3000.0,379.3711431702997,245.25,677.7,620.6288568297002,620.6288568297002,True
668340555d67e9d1df712a45_result,49.0,668340555d67e9d1df712a45,6790928bebf0b969fc839b02,679826202b2114cc04234446,650.0,f,ballFalling,604.4000000000001,667.6211431702998,201.78,9.0,fallScene,True,lp,1000.0,605.4000000000001,151.0,395.5999999999999,332.3788568297002,394.5999999999999,True
668340555d67e9d1df712a45_result,50.0,668340555d67e9d1df712a45,6790928bebf0b969fc839b02,679826202b2114cc04234446,746.0,f,ballFalling,604.4000000000001,650.0211431702996,404.58,11.0,fallScene,True,lp,1000.0,605.4000000000001,372.6340973215488,395.5999999999999,349.97885682970036,394.5999999999999,True
668340555d67e9d1df712a45_result,51.0,668340555d67e9d1df712a45,6790928bebf0b969fc839b02,679826202b2114cc04234446,732.0,j,ballFalling,604.4000000000001,667.6211431702998,201.78,9.0,fallScene,False,gt,1000.0,667.6211431702998,201.78,604.4000000000001,667.6211431702998,667.6211431702998,True
668340555d67e9d1df712a45_result,52.0,668340555d67e9d1df712a45,6790928bebf0b969fc839b02,679826202b2114cc04234446,734.0,f,ballFalling,322.3,296.07114317029976,371.46,3.0,fallScene,False,lp,1000.0,321.3,287.3327096511259,322.3,296.07114317029976,321.3,True
668340555d67e9d1df712a45_result,53.0,668340555d67e9d1df712a45,6790928bebf0b969fc839b02,679826202b2114cc04234446,840.0,j,ballFalling,322.3,379.3711431702997,245.25,1.0,fallScene,False,mid,1000.0,390.27114317029975,300.0,322.3,379.3711431702997,390.27114317029975,False
668340555d67e9d1df712a45_result,54.0,668340555d67e9d1df712a45,6790928bebf0b969fc839b02,679826202b2114cc04234446,834.0,f,ballFalling,500.0,553.4711431702997,282.51,7.0,fallScene,True,mid,1000.0,501.0,300.0,500.0,446.5288568297003,499.0,True
668340555d67e9d1df712a45_result,55.0,668340555d67e9d1df712a45,6790928bebf0b969fc839b02,679826202b2114cc04234446,804.0,f,ballFalling,322.3,379.3711431702997,245.25,1.0,fallScene,False,lp,1000.0,323.3,217.74551669457017,322.3,379.3711431702997,323.3,True
668340555d67e9d1df712a45_result,56.0,668340555d67e9d1df712a45,6790928bebf0b969fc839b02,679826202b2114cc04234446,733.0,j,ballFalling,322.3,308.07114317029976,253.89,2.0,fallScene,False,gt,1000.0,308.07114317029976,253.89,322.3,308.07114317029976,308.07114317029976,True
668340555d67e9d1df712a45_result,57.0,668340555d67e9d1df712a45,6790928bebf0b969fc839b02,679826202b2114cc04234446,968.0,j,ballFalling,322.3,356.42114317029973,357.87,4.0,fallScene,True,lp,1000.0,323.3,297.4070551689986,677.7,643.5788568297003,676.7,False
668340555d67e9d1df712a45_result,58.0,668340555d67e9d1df712a45,6790928bebf0b969fc839b02,679826202b2114cc04234446,562.0,f,ballFalling,604.4000000000001,575.4211431702997,266.76,12.0,fallScene,False,lp,1000.0,603.4000000000001,151.0,604.4000000000001,575.4211431702997,603.4000000000001,True
668340555d67e9d1df712a45_result,59.0,668340555d67e9d1df712a45,6790928bebf0b969fc839b02,679826202b2114cc04234446,787.0,f,ballFalling,604.4000000000001,650.0211431702996,404.58,11.0,fallScene,True,lp,1000.0,605.4000000000001,372.6340973215488,395.5999999999999,349.97885682970036,394.5999999999999,True
668340555d67e9d1df712a45_result,60.0,668340555d67e9d1df712a45,6790928bebf0b969fc839b02,679826202b2114cc04234446,712.0,j,ballFalling,500.0,553.4711431702997,282.51,7.0,fallScene,True,lp,1000.0,501.0,227.2843295913261,500.0,446.5288568297003,499.0,False
668340555d67e9d1df712a45_result,61.0,668340555d67e9d1df712a45,6790928bebf0b969fc839b02,679826202b2114cc04234446,856.0,f,ballFalling,500.0,479.9211431702998,330.87,6.0,fallScene,True,gt,1000.0,479.9211431702998,330.87,500.0,520.0788568297003,520.0788568297003,False
668340555d67e9d1df712a45_result,62.0,668340555d67e9d1df712a45,6790928bebf0b969fc839b02,679826202b2114cc04234446,794.0,j,ballFalling,604.4000000000001,575.4211431702997,266.76,12.0,fallScene,False,mid,1000.0,536.4288568297004,300.0,604.4000000000001,575.4211431702997,536.4288568297004,False
668340555d67e9d1df712a45_result,63.0,668340555d67e9d1df712a45,6790928bebf0b969fc839b02,679826202b2114cc04234446,874.0,f,ballFalling,322.3,356.42114317029973,357.87,4.0,fallScene,False,lp,1000.0,323.3,297.4070551689986,322.3,356.42114317029973,323.3,True
668340555d67e9d1df712a45_result,64.0,668340555d67e9d1df712a45,6790928bebf0b969fc839b02,679826202b2114cc04234446,,,ballFalling,322.3,296.07114317029976,371.46,3.0,fallScene,True,lp,1000.0,321.3,287.3327096511259,677.7,703.9288568297002,678.7,
668340555d67e9d1df712a45_result,65.0,668340555d67e9d1df712a45,6790928bebf0b969fc839b02,679826202b2114cc04234446,849.0,j,ballFalling,322.3,308.07114317029976,253.89,2.0,fallScene,True,gt,1000.0,308.07114317029976,253.89,677.7,691.9288568297002,691.9288568297002,True
668340555d67e9d1df712a45_result,66.0,668340555d67e9d1df712a45,6790928bebf0b969fc839b02,679826202b2114cc04234446,555.0,f,ballFalling,604.4000000000001,667.6211431702998,201.78,9.0,fallScene,False,lp,1000.0,605.4000000000001,151.0,604.4000000000001,667.6211431702998,605.4000000000001,True
668340555d67e9d1df712a45_result,67.0,668340555d67e9d1df712a45,6790928bebf0b969fc839b02,679826202b2114cc04234446,813.0,f,ballFalling,604.4000000000001,596.8711431702998,394.5,10.0,fallScene,True,lp,1000.0,603.4000000000001,215.50214355555383,395.5999999999999,403.1288568297002,396.5999999999999,True
668340555d67e9d1df712a45_result,68.0,668340555d67e9d1df712a45,6790928bebf0b969fc839b02,679826202b2114cc04234446,883.0,f,ballFalling,322.3,379.3711431702997,245.25,1.0,fallScene,False,lp,1000.0,323.3,217.74551669457017,322.3,379.3711431702997,323.3,True
668340555d67e9d1df712a45_result,69.0,668340555d67e9d1df712a45,6790928bebf0b969fc839b02,679826202b2114cc04234446,823.0,f,ballFalling,604.4000000000001,650.0211431702996,404.58,11.0,fallScene,True,mid,1000.0,605.4000000000001,300.0,395.5999999999999,349.97885682970036,394.5999999999999,True
668340555d67e9d1df712a45_result,70.0,668340555d67e9d1df712a45,6790928bebf0b969fc839b02,679826202b2114cc04234446,,,ballFalling,604.4000000000001,667.6211431702998,201.78,9.0,fallScene,False,mid,1000.0,605.4000000000001,300.0,604.4000000000001,667.6211431702998,605.4000000000001,
668340555d67e9d1df712a45_result,71.0,668340555d67e9d1df712a45,6790928bebf0b969fc839b02,679826202b2114cc04234446,894.0,j,ballFalling,322.3,356.42114317029973,357.87,4.0,fallScene,False,mid,1000.0,390.27114317029975,300.0,322.3,356.42114317029973,390.27114317029975,False
668340555d67e9d1df712a45_result,72.0,668340555d67e9d1df712a45,6790928bebf0b969fc839b02,679826202b2114cc04234446,862.0,f,ballFalling,500.0,510.8711431702997,369.03,8.0,fallScene,True,gt,1000.0,510.8711431702997,369.03,500.0,489.1288568297003,489.1288568297003,False
668340555d67e9d1df712a45_result,73.0,668340555d67e9d1df712a45,6790928bebf0b969fc839b02,679826202b2114cc04234446,,,ballFalling,322.3,379.3711431702997,245.25,1.0,fallScene,True,gt,1000.0,379.3711431702997,245.25,677.7,620.6288568297002,620.6288568297002,
668340555d67e9d1df712a45_result,74.0,668340555d67e9d1df712a45,6790928bebf0b969fc839b02,679826202b2114cc04234446,577.0,j,ballFalling,500.0,479.9211431702998,330.87,6.0,fallScene,False,mid,1000.0,499.0,300.0,500.0,479.9211431702998,499.0,False
668340555d67e9d1df712a45_result,75.0,668340555d67e9d1df712a45,6790928bebf0b969fc839b02,679826202b2114cc04234446,650.0,f,ballFalling,604.4000000000001,575.4211431702997,266.76,12.0,fallScene,True,lp,1000.0,603.4000000000001,151.0,395.5999999999999,424.57885682970027,396.5999999999999,True
668340555d67e9d1df712a45_result,76.0,668340555d67e9d1df712a45,6790928bebf0b969fc839b02,679826202b2114cc04234446,621.0,j,ballFalling,500.0,453.6711431702998,210.33,5.0,fallScene,False,mid,1000.0,499.0,300.0,500.0,453.6711431702998,499.0,False
668340555d67e9d1df712a45_result,77.0,668340555d67e9d1df712a45,6790928bebf0b969fc839b02,679826202b2114cc04234446,860.0,f,ballFalling,322.3,308.07114317029976,253.89,2.0,fallScene,True,lp,1000.0,321.3,151.0,677.7,691.9288568297002,678.7,True
668340555d67e9d1df712a45_result,78.0,668340555d67e9d1df712a45,6790928bebf0b969fc839b02,679826202b2114cc04234446,761.0,j,ballFalling,500.0,510.8711431702997,369.03,8.0,fallScene,True,mid,1000.0,501.0,300.0,500.0,489.1288568297003,499.0,False
668340555d67e9d1df712a45_result,79.0,668340555d67e9d1df712a45,6790928bebf0b969fc839b02,679826202b2114cc04234446,499.0,j,ballFalling,322.3,308.07114317029976,253.89,2.0,fallScene,False,mid,1000.0,321.3,300.0,322.3,308.07114317029976,321.3,False
668340555d67e9d1df712a45_result,80.0,668340555d67e9d1df712a45,6790928bebf0b969fc839b02,679826202b2114cc04234446,894.0,j,ballFalling,500.0,453.6711431702998,210.33,5.0,fallScene,False,gt,1000.0,453.6711431702998,210.33,500.0,453.6711431702998,453.6711431702998,True
668340555d67e9d1df712a45_result,81.0,668340555d67e9d1df712a45,6790928bebf0b969fc839b02,679826202b2114cc04234446,502.0,j,ballFalling,322.3,308.07114317029976,253.89,2.0,fallScene,False,mid,1000.0,321.3,300.0,322.3,308.07114317029976,321.3,False
668340555d67e9d1df712a45_result,82.0,668340555d67e9d1df712a45,6790928bebf0b969fc839b02,679826202b2114cc04234446,625.0,j,ballFalling,322.3,379.3711431702997,245.25,1.0,fallScene,False,mid,1000.0,390.27114317029975,300.0,322.3,379.3711431702997,390.27114317029975,False
668340555d67e9d1df712a45_result,83.0,668340555d67e9d1df712a45,6790928bebf0b969fc839b02,679826202b2114cc04234446,743.0,f,ballFalling,500.0,453.6711431702998,210.33,5.0,fallScene,True,lp,1000.0,499.0,151.0,500.0,546.3288568297003,501.0,True
668340555d67e9d1df712a45_result,84.0,668340555d67e9d1df712a45,6790928bebf0b969fc839b02,679826202b2114cc04234446,920.0,f,ballFalling,322.3,296.07114317029976,371.46,3.0,fallScene,False,mid,1000.0,321.3,300.0,322.3,296.07114317029976,321.3,True
668340555d67e9d1df712a45_result,85.0,668340555d67e9d1df712a45,6790928bebf0b969fc839b02,679826202b2114cc04234446,590.0,j,ballFalling,500.0,553.4711431702997,282.51,7.0,fallScene,True,gt,1000.0,553.4711431702997,282.51,500.0,446.5288568297003,446.5288568297003,True
668340555d67e9d1df712a45_result,86.0,668340555d67e9d1df712a45,6790928bebf0b969fc839b02,679826202b2114cc04234446,881.0,f,ballFalling,604.4000000000001,596.8711431702998,394.5,10.0,fallScene,True,mid,1000.0,536.4288568297004,300.0,395.5999999999999,403.1288568297002,463.5711431702996,True
668340555d67e9d1df712a45_result,87.0,668340555d67e9d1df712a45,6790928bebf0b969fc839b02,679826202b2114cc04234446,652.0,j,ballFalling,500.0,510.8711431702997,369.03,8.0,fallScene,False,lp,1000.0,501.0,151.0,500.0,510.8711431702997,501.0,False
668340555d67e9d1df712a45_result,88.0,668340555d67e9d1df712a45,6790928bebf0b969fc839b02,679826202b2114cc04234446,826.0,f,ballFalling,322.3,356.42114317029973,357.87,4.0,fallScene,False,gt,1000.0,356.42114317029973,357.87,322.3,356.42114317029973,356.42114317029973,False
668340555d67e9d1df712a45_result,89.0,668340555d67e9d1df712a45,6790928bebf0b969fc839b02,679826202b2114cc04234446,981.0,f,ballFalling,500.0,553.4711431702997,282.51,7.0,fallScene,True,mid,1000.0,501.0,300.0,500.0,446.5288568297003,499.0,True
668340555d67e9d1df712a45_result,90.0,668340555d67e9d1df712a45,6790928bebf0b969fc839b02,679826202b2114cc04234446,471.0,j,ballFalling,604.4000000000001,575.4211431702997,266.76,12.0,fallScene,False,gt,1000.0,575.4211431702997,266.76,604.4000000000001,575.4211431702997,575.4211431702997,True
668340555d67e9d1df712a45_result,91.0,668340555d67e9d1df712a45,6790928bebf0b969fc839b02,679826202b2114cc04234446,454.0,j,ballFalling,322.3,296.07114317029976,371.46,3.0,fallScene,True,gt,1000.0,296.07114317029976,371.46,677.7,703.9288568297002,703.9288568297002,True
668340555d67e9d1df712a45_result,92.0,668340555d67e9d1df712a45,6790928bebf0b969fc839b02,679826202b2114cc04234446,842.0,f,ballFalling,500.0,479.9211431702998,330.87,6.0,fallScene,False,mid,1000.0,499.0,300.0,500.0,479.9211431702998,499.0,True
668340555d67e9d1df712a45_result,93.0,668340555d67e9d1df712a45,6790928bebf0b969fc839b02,679826202b2114cc04234446,769.0,f,ballFalling,322.3,296.07114317029976,371.46,3.0,fallScene,True,mid,1000.0,321.3,300.0,677.7,703.9288568297002,678.7,True
668340555d67e9d1df712a45_result,94.0,668340555d67e9d1df712a45,6790928bebf0b969fc839b02,679826202b2114cc04234446,980.0,j,ballFalling,322.3,356.42114317029973,357.87,4.0,fallScene,False,mid,1000.0,390.27114317029975,300.0,322.3,356.42114317029973,390.27114317029975,False
668340555d67e9d1df712a45_result,95.0,668340555d67e9d1df712a45,6790928bebf0b969fc839b02,679826202b2114cc04234446,912.0,f,ballFalling,500.0,453.6711431702998,210.33,5.0,fallScene,False,mid,1000.0,499.0,300.0,500.0,453.6711431702998,499.0,True
668340555d67e9d1df712a45_result,96.0,668340555d67e9d1df712a45,6790928bebf0b969fc839b02,679826202b2114cc04234446,805.0,f,ballFalling,500.0,479.9211431702998,330.87,6.0,fallScene,True,lp,1000.0,499.0,189.92909825697632,500.0,520.0788568297003,501.0,True
668340555d67e9d1df712a45_result,97.0,668340555d67e9d1df712a45,6790928bebf0b969fc839b02,679826202b2114cc04234446,606.0,j,ballFalling,322.3,356.42114317029973,357.87,4.0,fallScene,False,gt,3000.0,356.42114317029973,357.87,322.3,356.42114317029973,356.42114317029973,True
668340555d67e9d1df712a45_result,98.0,668340555d67e9d1df712a45,6790928bebf0b969fc839b02,679826202b2114cc04234446,729.0,f,ballFalling,604.4000000000001,650.0211431702996,404.58,11.0,fallScene,False,gt,3000.0,650.0211431702996,404.58,604.4000000000001,650.0211431702996,650.0211431702996,False
668340555d67e9d1df712a45_result,99.0,668340555d67e9d1df712a45,6790928bebf0b969fc839b02,679826202b2114cc04234446,1347.0,f,ballFalling,322.3,296.07114317029976,371.46,3.0,fallScene,True,lp,3000.0,321.3,287.3327096511259,677.7,703.9288568297002,678.7,True
668340555d67e9d1df712a45_result,100.0,668340555d67e9d1df712a45,6790928bebf0b969fc839b02,679826202b2114cc04234446,956.0,j,ballFalling,500.0,553.4711431702997,282.51,7.0,fallScene,True,lp,3000.0,501.0,227.2843295913261,500.0,446.5288568297003,499.0,False
668340555d67e9d1df712a45_result,101.0,668340555d67e9d1df712a45,6790928bebf0b969fc839b02,679826202b2114cc04234446,795.0,f,ballFalling,322.3,356.42114317029973,357.87,4.0,fallScene,False,gt,3000.0,356.42114317029973,357.87,322.3,356.42114317029973,356.42114317029973,False
668340555d67e9d1df712a45_result,102.0,668340555d67e9d1df712a45,6790928bebf0b969fc839b02,679826202b2114cc04234446,1009.0,f,ballFalling,604.4000000000001,650.0211431702996,404.58,11.0,fallScene,False,mid,3000.0,605.4000000000001,300.0,604.4000000000001,650.0211431702996,605.4000000000001,True
668340555d67e9d1df712a45_result,103.0,668340555d67e9d1df712a45,6790928bebf0b969fc839b02,679826202b2114cc04234446,1713.0,j,ballFalling,604.4000000000001,667.6211431702998,201.78,9.0,fallScene,False,mid,3000.0,605.4000000000001,300.0,604.4000000000001,667.6211431702998,605.4000000000001,False
668340555d67e9d1df712a45_result,104.0,668340555d67e9d1df712a45,6790928bebf0b969fc839b02,679826202b2114cc04234446,1431.0,j,ballFalling,500.0,510.8711431702997,369.03,8.0,fallScene,True,gt,3000.0,510.8711431702997,369.03,500.0,489.1288568297003,489.1288568297003,True
668340555d67e9d1df712a45_result,105.0,668340555d67e9d1df712a45,6790928bebf0b969fc839b02,679826202b2114cc04234446,1109.0,j,ballFalling,604.4000000000001,596.8711431702998,394.5,10.0,fallScene,False,gt,3000.0,596.8711431702998,394.5,604.4000000000001,596.8711431702998,596.8711431702998,True
668340555d67e9d1df712a45_result,106.0,668340555d67e9d1df712a45,6790928bebf0b969fc839b02,679826202b2114cc04234446,657.0,j,ballFalling,322.3,308.07114317029976,253.89,2.0,fallScene,False,mid,3000.0,321.3,300.0,322.3,308.07114317029976,321.3,False
668340555d67e9d1df712a45_result,107.0,668340555d67e9d1df712a45,6790928bebf0b969fc839b02,679826202b2114cc04234446,829.0,f,ballFalling,604.4000000000001,575.4211431702997,266.76,12.0,fallScene,True,mid,3000.0,536.4288568297004,300.0,395.5999999999999,424.57885682970027,463.5711431702996,True
668340555d67e9d1df712a45_result,108.0,668340555d67e9d1df712a45,6790928bebf0b969fc839b02,679826202b2114cc04234446,1143.0,j,ballFalling,322.3,356.42114317029973,357.87,4.0,fallScene,False,mid,3000.0,390.27114317029975,300.0,322.3,356.42114317029973,390.27114317029975,False
668340555d67e9d1df712a45_result,109.0,668340555d67e9d1df712a45,6790928bebf0b969fc839b02,679826202b2114cc04234446,1168.0,j,ballFalling,322.3,308.07114317029976,253.89,2.0,fallScene,True,lp,3000.0,321.3,151.0,677.7,691.9288568297002,678.7,False
668340555d67e9d1df712a45_result,110.0,668340555d67e9d1df712a45,6790928bebf0b969fc839b02,679826202b2114cc04234446,1221.0,f,ballFalling,322.3,379.3711431702997,245.25,1.0,fallScene,False,lp,3000.0,323.3,217.74551669457017,322.3,379.3711431702997,323.3,True
668340555d67e9d1df712a45_result,111.0,668340555d67e9d1df712a45,6790928bebf0b969fc839b02,679826202b2114cc04234446,587.0,j,ballFalling,500.0,479.9211431702998,330.87,6.0,fallScene,False,gt,3000.0,479.9211431702998,330.87,500.0,479.9211431702998,479.9211431702998,True
668340555d67e9d1df712a45_result,112.0,668340555d67e9d1df712a45,6790928bebf0b969fc839b02,679826202b2114cc04234446,1187.0,f,ballFalling,500.0,453.6711431702998,210.33,5.0,fallScene,False,lp,3000.0,499.0,151.0,500.0,453.6711431702998,499.0,True
668340555d67e9d1df712a45_result,113.0,668340555d67e9d1df712a45,6790928bebf0b969fc839b02,679826202b2114cc04234446,1396.0,j,ballFalling,500.0,510.8711431702997,369.03,8.0,fallScene,False,gt,3000.0,510.8711431702997,369.03,500.0,510.8711431702997,510.8711431702997,True
668340555d67e9d1df712a45_result,114.0,668340555d67e9d1df712a45,6790928bebf0b969fc839b02,679826202b2114cc04234446,1093.0,j,ballFalling,322.3,308.07114317029976,253.89,2.0,fallScene,True,lp,3000.0,321.3,151.0,677.7,691.9288568297002,678.7,False
668340555d67e9d1df712a45_result,115.0,668340555d67e9d1df712a45,6790928bebf0b969fc839b02,679826202b2114cc04234446,775.0,j,ballFalling,500.0,510.8711431702997,369.03,8.0,fallScene,False,mid,3000.0,501.0,300.0,500.0,510.8711431702997,501.0,False
668340555d67e9d1df712a45_result,116.0,668340555d67e9d1df712a45,6790928bebf0b969fc839b02,679826202b2114cc04234446,1128.0,j,ballFalling,604.4000000000001,667.6211431702998,201.78,9.0,fallScene,True,lp,3000.0,605.4000000000001,151.0,395.5999999999999,332.3788568297002,394.5999999999999,False
668340555d67e9d1df712a45_result,117.0,668340555d67e9d1df712a45,6790928bebf0b969fc839b02,679826202b2114cc04234446,872.0,j,ballFalling,500.0,553.4711431702997,282.51,7.0,fallScene,False,gt,3000.0,553.4711431702997,282.51,500.0,553.4711431702997,553.4711431702997,True
668340555d67e9d1df712a45_result,118.0,668340555d67e9d1df712a45,6790928bebf0b969fc839b02,679826202b2114cc04234446,800.0,j,ballFalling,604.4000000000001,650.0211431702996,404.58,11.0,fallScene,True,mid,3000.0,605.4000000000001,300.0,395.5999999999999,349.97885682970036,394.5999999999999,False
668340555d67e9d1df712a45_result,119.0,668340555d67e9d1df712a45,6790928bebf0b969fc839b02,679826202b2114cc04234446,1907.0,f,ballFalling,322.3,379.3711431702997,245.25,1.0,fallScene,True,mid,3000.0,390.27114317029975,300.0,677.7,620.6288568297002,609.7288568297002,True
668340555d67e9d1df712a45_result,120.0,668340555d67e9d1df712a45,6790928bebf0b969fc839b02,679826202b2114cc04234446,1727.0,j,ballFalling,604.4000000000001,596.8711431702998,394.5,10.0,fallScene,False,gt,3000.0,596.8711431702998,394.5,604.4000000000001,596.8711431702998,596.8711431702998,True
668340555d67e9d1df712a45_result,121.0,668340555d67e9d1df712a45,6790928bebf0b969fc839b02,679826202b2114cc04234446,1068.0,j,ballFalling,500.0,479.9211431702998,330.87,6.0,fallScene,False,lp,3000.0,499.0,189.92909825697632,500.0,479.9211431702998,499.0,False
668340555d67e9d1df712a45_result,122.0,668340555d67e9d1df712a45,6790928bebf0b969fc839b02,679826202b2114cc04234446,1362.0,j,ballFalling,500.0,453.6711431702998,210.33,5.0,fallScene,False,lp,3000.0,499.0,151.0,500.0,453.6711431702998,499.0,False
668340555d67e9d1df712a45_result,123.0,668340555d67e9d1df712a45,6790928bebf0b969fc839b02,679826202b2114cc04234446,1119.0,j,ballFalling,500.0,479.9211431702998,330.87,6.0,fallScene,False,mid,3000.0,499.0,300.0,500.0,479.9211431702998,499.0,False
668340555d67e9d1df712a45_result,124.0,668340555d67e9d1df712a45,6790928bebf0b969fc839b02,679826202b2114cc04234446,791.0,j,ballFalling,322.3,356.42114317029973,357.87,4.0,fallScene,True,mid,3000.0,390.27114317029975,300.0,677.7,643.5788568297003,609.7288568297002,False
668340555d67e9d1df712a45_result,125.0,668340555d67e9d1df712a45,6790928bebf0b969fc839b02,679826202b2114cc04234446,594.0,j,ballFalling,322.3,308.07114317029976,253.89,2.0,fallScene,True,gt,3000.0,308.07114317029976,253.89,677.7,691.9288568297002,691.9288568297002,True
668340555d67e9d1df712a45_result,126.0,668340555d67e9d1df712a45,6790928bebf0b969fc839b02,679826202b2114cc04234446,1254.0,j,ballFalling,500.0,510.8711431702997,369.03,8.0,fallScene,True,lp,3000.0,501.0,151.0,500.0,489.1288568297003,499.0,False
668340555d67e9d1df712a45_result,127.0,668340555d67e9d1df712a45,6790928bebf0b969fc839b02,679826202b2114cc04234446,1377.0,j,ballFalling,500.0,453.6711431702998,210.33,5.0,fallScene,True,mid,3000.0,499.0,300.0,500.0,546.3288568297003,501.0,False
668340555d67e9d1df712a45_result,128.0,668340555d67e9d1df712a45,6790928bebf0b969fc839b02,679826202b2114cc04234446,801.0,j,ballFalling,500.0,479.9211431702998,330.87,6.0,fallScene,False,mid,3000.0,499.0,300.0,500.0,479.9211431702998,499.0,False
668340555d67e9d1df712a45_result,129.0,668340555d67e9d1df712a45,6790928bebf0b969fc839b02,679826202b2114cc04234446,2284.0,f,ballFalling,500.0,479.9211431702998,330.87,6.0,fallScene,False,lp,3000.0,499.0,189.92909825697632,500.0,479.9211431702998,499.0,True
668340555d67e9d1df712a45_result,130.0,668340555d67e9d1df712a45,6790928bebf0b969fc839b02,679826202b2114cc04234446,1468.0,j,ballFalling,322.3,296.07114317029976,371.46,3.0,fallScene,True,mid,3000.0,321.3,300.0,677.7,703.9288568297002,678.7,False
668340555d67e9d1df712a45_result,131.0,668340555d67e9d1df712a45,6790928bebf0b969fc839b02,679826202b2114cc04234446,747.0,j,ballFalling,322.3,308.07114317029976,253.89,2.0,fallScene,False,mid,3000.0,321.3,300.0,322.3,308.07114317029976,321.3,False
668340555d67e9d1df712a45_result,132.0,668340555d67e9d1df712a45,6790928bebf0b969fc839b02,679826202b2114cc04234446,1853.0,f,ballFalling,604.4000000000001,575.4211431702997,266.76,12.0,fallScene,False,lp,3000.0,603.4000000000001,151.0,604.4000000000001,575.4211431702997,603.4000000000001,True
668340555d67e9d1df712a45_result,133.0,668340555d67e9d1df712a45,6790928bebf0b969fc839b02,679826202b2114cc04234446,1868.0,f,ballFalling,604.4000000000001,596.8711431702998,394.5,10.0,fallScene,True,mid,3000.0,536.4288568297004,300.0,395.5999999999999,403.1288568297002,463.5711431702996,True
668340555d67e9d1df712a45_result,134.0,668340555d67e9d1df712a45,6790928bebf0b969fc839b02,679826202b2114cc04234446,616.0,j,ballFalling,604.4000000000001,596.8711431702998,394.5,10.0,fallScene,False,lp,3000.0,603.4000000000001,215.50214355555383,604.4000000000001,596.8711431702998,603.4000000000001,False
668340555d67e9d1df712a45_result,135.0,668340555d67e9d1df712a45,6790928bebf0b969fc839b02,679826202b2114cc04234446,889.0,f,ballFalling,500.0,453.6711431702998,210.33,5.0,fallScene,True,mid,3000.0,499.0,300.0,500.0,546.3288568297003,501.0,True
668340555d67e9d1df712a45_result,136.0,668340555d67e9d1df712a45,6790928bebf0b969fc839b02,679826202b2114cc04234446,684.0,j,ballFalling,322.3,296.07114317029976,371.46,3.0,fallScene,False,gt,3000.0,296.07114317029976,371.46,322.3,296.07114317029976,296.07114317029976,True
668340555d67e9d1df712a45_result,137.0,668340555d67e9d1df712a45,6790928bebf0b969fc839b02,679826202b2114cc04234446,2610.0,f,ballFalling,322.3,296.07114317029976,371.46,3.0,fallScene,False,lp,3000.0,321.3,287.3327096511259,322.3,296.07114317029976,321.3,True
668340555d67e9d1df712a45_result,138.0,668340555d67e9d1df712a45,6790928bebf0b969fc839b02,679826202b2114cc04234446,795.0,j,ballFalling,500.0,553.4711431702997,282.51,7.0,fallScene,True,mid,3000.0,501.0,300.0,500.0,446.5288568297003,499.0,False
668340555d67e9d1df712a45_result,139.0,668340555d67e9d1df712a45,6790928bebf0b969fc839b02,679826202b2114cc04234446,2251.0,j,ballFalling,604.4000000000001,667.6211431702998,201.78,9.0,fallScene,True,gt,3000.0,667.6211431702998,201.78,395.5999999999999,332.3788568297002,332.3788568297002,True
668340555d67e9d1df712a45_result,140.0,668340555d67e9d1df712a45,6790928bebf0b969fc839b02,679826202b2114cc04234446,1896.0,f,ballFalling,500.0,479.9211431702998,330.87,6.0,fallScene,True,gt,3000.0,479.9211431702998,330.87,500.0,520.0788568297003,520.0788568297003,False
668340555d67e9d1df712a45_result,141.0,668340555d67e9d1df712a45,6790928bebf0b969fc839b02,679826202b2114cc04234446,2092.0,f,ballFalling,604.4000000000001,667.6211431702998,201.78,9.0,fallScene,True,gt,3000.0,667.6211431702998,201.78,395.5999999999999,332.3788568297002,332.3788568297002,False
668340555d67e9d1df712a45_result,142.0,668340555d67e9d1df712a45,6790928bebf0b969fc839b02,679826202b2114cc04234446,1933.0,f,ballFalling,604.4000000000001,650.0211431702996,404.58,11.0,fallScene,False,gt,3000.0,650.0211431702996,404.58,604.4000000000001,650.0211431702996,650.0211431702996,False
668340555d67e9d1df712a45_result,143.0,668340555d67e9d1df712a45,6790928bebf0b969fc839b02,679826202b2114cc04234446,1328.0,j,ballFalling,500.0,553.4711431702997,282.51,7.0,fallScene,True,gt,3000.0,553.4711431702997,282.51,500.0,446.5288568297003,446.5288568297003,True
668340555d67e9d1df712a45_result,144.0,668340555d67e9d1df712a45,6790928bebf0b969fc839b02,679826202b2114cc04234446,869.0,j,ballFalling,604.4000000000001,596.8711431702998,394.5,10.0,fallScene,True,lp,3000.0,603.4000000000001,215.50214355555383,395.5999999999999,403.1288568297002,396.5999999999999,False
672976d49260ec8c490d70f6_result,1.0,672976d49260ec8c490d70f6,6790928bebf0b969fc839b02,67929d22457fc8cbfa645ce1,784.0,j,ballFalling,604.4000000000001,575.4211431702997,266.76,12.0,fallScene,False,gt,1000.0,575.4211431702997,266.76,604.4000000000001,575.4211431702997,575.4211431702997,True
672976d49260ec8c490d70f6_result,2.0,672976d49260ec8c490d70f6,6790928bebf0b969fc839b02,67929d22457fc8cbfa645ce1,908.0,j,ballFalling,604.4000000000001,596.8711431702998,394.5,10.0,fallScene,True,lp,1000.0,603.4000000000001,215.50214355555383,395.5999999999999,403.1288568297002,396.5999999999999,False
672976d49260ec8c490d70f6_result,3.0,672976d49260ec8c490d70f6,6790928bebf0b969fc839b02,67929d22457fc8cbfa645ce1,746.0,f,ballFalling,604.4000000000001,650.0211431702996,404.58,11.0,fallScene,False,mid,1000.0,605.4000000000001,300.0,604.4000000000001,650.0211431702996,605.4000000000001,True
672976d49260ec8c490d70f6_result,4.0,672976d49260ec8c490d70f6,6790928bebf0b969fc839b02,67929d22457fc8cbfa645ce1,992.0,j,ballFalling,322.3,308.07114317029976,253.89,2.0,fallScene,True,gt,1000.0,308.07114317029976,253.89,677.7,691.9288568297002,691.9288568297002,True
672976d49260ec8c490d70f6_result,5.0,672976d49260ec8c490d70f6,6790928bebf0b969fc839b02,67929d22457fc8cbfa645ce1,854.0,f,ballFalling,604.4000000000001,575.4211431702997,266.76,12.0,fallScene,False,mid,1000.0,536.4288568297004,300.0,604.4000000000001,575.4211431702997,536.4288568297004,True
672976d49260ec8c490d70f6_result,6.0,672976d49260ec8c490d70f6,6790928bebf0b969fc839b02,67929d22457fc8cbfa645ce1,,,ballFalling,604.4000000000001,596.8711431702998,394.5,10.0,fallScene,True,lp,1000.0,603.4000000000001,215.50214355555383,395.5999999999999,403.1288568297002,396.5999999999999,
672976d49260ec8c490d70f6_result,7.0,672976d49260ec8c490d70f6,6790928bebf0b969fc839b02,67929d22457fc8cbfa645ce1,938.0,f,ballFalling,322.3,308.07114317029976,253.89,2.0,fallScene,True,mid,1000.0,321.3,300.0,677.7,691.9288568297002,678.7,True
672976d49260ec8c490d70f6_result,8.0,672976d49260ec8c490d70f6,6790928bebf0b969fc839b02,67929d22457fc8cbfa645ce1,913.0,j,ballFalling,500.0,453.6711431702998,210.33,5.0,fallScene,True,mid,1000.0,499.0,300.0,500.0,546.3288568297003,501.0,False
672976d49260ec8c490d70f6_result,9.0,672976d49260ec8c490d70f6,6790928bebf0b969fc839b02,67929d22457fc8cbfa645ce1,824.0,j,ballFalling,322.3,356.42114317029973,357.87,4.0,fallScene,False,mid,1000.0,390.27114317029975,300.0,322.3,356.42114317029973,390.27114317029975,False
672976d49260ec8c490d70f6_result,10.0,672976d49260ec8c490d70f6,6790928bebf0b969fc839b02,67929d22457fc8cbfa645ce1,933.0,f,ballFalling,322.3,308.07114317029976,253.89,2.0,fallScene,False,lp,1000.0,321.3,151.0,322.3,308.07114317029976,321.3,True
672976d49260ec8c490d70f6_result,11.0,672976d49260ec8c490d70f6,6790928bebf0b969fc839b02,67929d22457fc8cbfa645ce1,861.0,j,ballFalling,322.3,379.3711431702997,245.25,1.0,fallScene,True,lp,1000.0,323.3,217.74551669457017,677.7,620.6288568297002,676.7,False
672976d49260ec8c490d70f6_result,12.0,672976d49260ec8c490d70f6,6790928bebf0b969fc839b02,67929d22457fc8cbfa645ce1,997.0,j,ballFalling,500.0,510.8711431702997,369.03,8.0,fallScene,False,gt,1000.0,510.8711431702997,369.03,500.0,510.8711431702997,510.8711431702997,True
672976d49260ec8c490d70f6_result,13.0,672976d49260ec8c490d70f6,6790928bebf0b969fc839b02,67929d22457fc8cbfa645ce1,,,ballFalling,604.4000000000001,596.8711431702998,394.5,10.0,fallScene,True,gt,1000.0,596.8711431702998,394.5,395.5999999999999,403.1288568297002,403.1288568297002,
672976d49260ec8c490d70f6_result,14.0,672976d49260ec8c490d70f6,6790928bebf0b969fc839b02,67929d22457fc8cbfa645ce1,9.0,f,ballFalling,500.0,479.9211431702998,330.87,6.0,fallScene,True,lp,1000.0,499.0,189.92909825697632,500.0,520.0788568297003,501.0,True
672976d49260ec8c490d70f6_result,15.0,672976d49260ec8c490d70f6,6790928bebf0b969fc839b02,67929d22457fc8cbfa645ce1,819.0,f,ballFalling,604.4000000000001,667.6211431702998,201.78,9.0,fallScene,False,mid,1000.0,605.4000000000001,300.0,604.4000000000001,667.6211431702998,605.4000000000001,True
672976d49260ec8c490d70f6_result,16.0,672976d49260ec8c490d70f6,6790928bebf0b969fc839b02,67929d22457fc8cbfa645ce1,722.0,j,ballFalling,322.3,356.42114317029973,357.87,4.0,fallScene,True,gt,1000.0,356.42114317029973,357.87,677.7,643.5788568297003,643.5788568297003,True
672976d49260ec8c490d70f6_result,17.0,672976d49260ec8c490d70f6,6790928bebf0b969fc839b02,67929d22457fc8cbfa645ce1,936.0,j,ballFalling,322.3,296.07114317029976,371.46,3.0,fallScene,True,lp,1000.0,321.3,287.3327096511259,677.7,703.9288568297002,678.7,False
672976d49260ec8c490d70f6_result,18.0,672976d49260ec8c490d70f6,6790928bebf0b969fc839b02,67929d22457fc8cbfa645ce1,,,ballFalling,500.0,553.4711431702997,282.51,7.0,fallScene,False,gt,1000.0,553.4711431702997,282.51,500.0,553.4711431702997,553.4711431702997,
672976d49260ec8c490d70f6_result,19.0,672976d49260ec8c490d70f6,6790928bebf0b969fc839b02,67929d22457fc8cbfa645ce1,653.0,f,ballFalling,500.0,510.8711431702997,369.03,8.0,fallScene,True,lp,1000.0,501.0,151.0,500.0,489.1288568297003,499.0,True
672976d49260ec8c490d70f6_result,20.0,672976d49260ec8c490d70f6,6790928bebf0b969fc839b02,67929d22457fc8cbfa645ce1,836.0,j,ballFalling,500.0,553.4711431702997,282.51,7.0,fallScene,True,mid,1000.0,501.0,300.0,500.0,446.5288568297003,499.0,False
672976d49260ec8c490d70f6_result,21.0,672976d49260ec8c490d70f6,6790928bebf0b969fc839b02,67929d22457fc8cbfa645ce1,,,ballFalling,322.3,308.07114317029976,253.89,2.0,fallScene,False,mid,1000.0,321.3,300.0,322.3,308.07114317029976,321.3,
672976d49260ec8c490d70f6_result,22.0,672976d49260ec8c490d70f6,6790928bebf0b969fc839b02,67929d22457fc8cbfa645ce1,647.0,j,ballFalling,322.3,308.07114317029976,253.89,2.0,fallScene,False,gt,1000.0,308.07114317029976,253.89,322.3,308.07114317029976,308.07114317029976,True
672976d49260ec8c490d70f6_result,23.0,672976d49260ec8c490d70f6,6790928bebf0b969fc839b02,67929d22457fc8cbfa645ce1,887.0,j,ballFalling,500.0,479.9211431702998,330.87,6.0,fallScene,False,gt,1000.0,479.9211431702998,330.87,500.0,479.9211431702998,479.9211431702998,True
672976d49260ec8c490d70f6_result,24.0,672976d49260ec8c490d70f6,6790928bebf0b969fc839b02,67929d22457fc8cbfa645ce1,806.0,j,ballFalling,500.0,510.8711431702997,369.03,8.0,fallScene,True,gt,1000.0,510.8711431702997,369.03,500.0,489.1288568297003,489.1288568297003,True
672976d49260ec8c490d70f6_result,25.0,672976d49260ec8c490d70f6,6790928bebf0b969fc839b02,67929d22457fc8cbfa645ce1,1066.0,j,ballFalling,322.3,356.42114317029973,357.87,4.0,fallScene,False,lp,3000.0,323.3,297.4070551689986,322.3,356.42114317029973,323.3,False
672976d49260ec8c490d70f6_result,26.0,672976d49260ec8c490d70f6,6790928bebf0b969fc839b02,67929d22457fc8cbfa645ce1,1193.0,f,ballFalling,322.3,379.3711431702997,245.25,1.0,fallScene,True,lp,3000.0,323.3,217.74551669457017,677.7,620.6288568297002,676.7,True
672976d49260ec8c490d70f6_result,27.0,672976d49260ec8c490d70f6,6790928bebf0b969fc839b02,67929d22457fc8cbfa645ce1,1006.0,j,ballFalling,322.3,308.07114317029976,253.89,2.0,fallScene,True,mid,3000.0,321.3,300.0,677.7,691.9288568297002,678.7,False
672976d49260ec8c490d70f6_result,28.0,672976d49260ec8c490d70f6,6790928bebf0b969fc839b02,67929d22457fc8cbfa645ce1,1689.0,f,ballFalling,322.3,296.07114317029976,371.46,3.0,fallScene,False,lp,3000.0,321.3,287.3327096511259,322.3,296.07114317029976,321.3,True
672976d49260ec8c490d70f6_result,29.0,672976d49260ec8c490d70f6,6790928bebf0b969fc839b02,67929d22457fc8cbfa645ce1,1234.0,j,ballFalling,500.0,453.6711431702998,210.33,5.0,fallScene,False,mid,3000.0,499.0,300.0,500.0,453.6711431702998,499.0,False
672976d49260ec8c490d70f6_result,30.0,672976d49260ec8c490d70f6,6790928bebf0b969fc839b02,67929d22457fc8cbfa645ce1,1568.0,f,ballFalling,604.4000000000001,650.0211431702996,404.58,11.0,fallScene,False,lp,3000.0,605.4000000000001,372.6340973215488,604.4000000000001,650.0211431702996,605.4000000000001,True
672976d49260ec8c490d70f6_result,31.0,672976d49260ec8c490d70f6,6790928bebf0b969fc839b02,67929d22457fc8cbfa645ce1,2179.0,f,ballFalling,500.0,510.8711431702997,369.03,8.0,fallScene,True,lp,3000.0,501.0,151.0,500.0,489.1288568297003,499.0,True
672976d49260ec8c490d70f6_result,32.0,672976d49260ec8c490d70f6,6790928bebf0b969fc839b02,67929d22457fc8cbfa645ce1,2148.0,f,ballFalling,604.4000000000001,667.6211431702998,201.78,9.0,fallScene,True,mid,3000.0,605.4000000000001,300.0,395.5999999999999,332.3788568297002,394.5999999999999,True
672976d49260ec8c490d70f6_result,33.0,672976d49260ec8c490d70f6,6790928bebf0b969fc839b02,67929d22457fc8cbfa645ce1,1527.0,f,ballFalling,604.4000000000001,596.8711431702998,394.5,10.0,fallScene,False,gt,3000.0,596.8711431702998,394.5,604.4000000000001,596.8711431702998,596.8711431702998,False
672976d49260ec8c490d70f6_result,34.0,672976d49260ec8c490d70f6,6790928bebf0b969fc839b02,67929d22457fc8cbfa645ce1,2261.0,j,ballFalling,500.0,553.4711431702997,282.51,7.0,fallScene,False,gt,3000.0,553.4711431702997,282.51,500.0,553.4711431702997,553.4711431702997,True
672976d49260ec8c490d70f6_result,35.0,672976d49260ec8c490d70f6,6790928bebf0b969fc839b02,67929d22457fc8cbfa645ce1,1391.0,f,ballFalling,500.0,479.9211431702998,330.87,6.0,fallScene,True,lp,3000.0,499.0,189.92909825697632,500.0,520.0788568297003,501.0,True
672976d49260ec8c490d70f6_result,36.0,672976d49260ec8c490d70f6,6790928bebf0b969fc839b02,67929d22457fc8cbfa645ce1,1076.0,f,ballFalling,322.3,308.07114317029976,253.89,2.0,fallScene,False,mid,3000.0,321.3,300.0,322.3,308.07114317029976,321.3,True
672976d49260ec8c490d70f6_result,37.0,672976d49260ec8c490d70f6,6790928bebf0b969fc839b02,67929d22457fc8cbfa645ce1,1724.0,f,ballFalling,500.0,453.6711431702998,210.33,5.0,fallScene,False,lp,3000.0,499.0,151.0,500.0,453.6711431702998,499.0,True
672976d49260ec8c490d70f6_result,38.0,672976d49260ec8c490d70f6,6790928bebf0b969fc839b02,67929d22457fc8cbfa645ce1,2397.0,f,ballFalling,604.4000000000001,596.8711431702998,394.5,10.0,fallScene,False,lp,3000.0,603.4000000000001,215.50214355555383,604.4000000000001,596.8711431702998,603.4000000000001,True
672976d49260ec8c490d70f6_result,39.0,672976d49260ec8c490d70f6,6790928bebf0b969fc839b02,67929d22457fc8cbfa645ce1,1403.0,j,ballFalling,604.4000000000001,650.0211431702996,404.58,11.0,fallScene,False,lp,3000.0,605.4000000000001,372.6340973215488,604.4000000000001,650.0211431702996,605.4000000000001,False
672976d49260ec8c490d70f6_result,40.0,672976d49260ec8c490d70f6,6790928bebf0b969fc839b02,67929d22457fc8cbfa645ce1,1847.0,f,ballFalling,500.0,510.8711431702997,369.03,8.0,fallScene,False,gt,3000.0,510.8711431702997,369.03,500.0,510.8711431702997,510.8711431702997,False
672976d49260ec8c490d70f6_result,41.0,672976d49260ec8c490d70f6,6790928bebf0b969fc839b02,67929d22457fc8cbfa645ce1,1465.0,f,ballFalling,604.4000000000001,667.6211431702998,201.78,9.0,fallScene,False,lp,3000.0,605.4000000000001,151.0,604.4000000000001,667.6211431702998,605.4000000000001,True
672976d49260ec8c490d70f6_result,42.0,672976d49260ec8c490d70f6,6790928bebf0b969fc839b02,67929d22457fc8cbfa645ce1,1850.0,j,ballFalling,604.4000000000001,667.6211431702998,201.78,9.0,fallScene,False,gt,3000.0,667.6211431702998,201.78,604.4000000000001,667.6211431702998,667.6211431702998,True
672976d49260ec8c490d70f6_result,43.0,672976d49260ec8c490d70f6,6790928bebf0b969fc839b02,67929d22457fc8cbfa645ce1,2024.0,j,ballFalling,322.3,296.07114317029976,371.46,3.0,fallScene,True,mid,3000.0,321.3,300.0,677.7,703.9288568297002,678.7,False
672976d49260ec8c490d70f6_result,44.0,672976d49260ec8c490d70f6,6790928bebf0b969fc839b02,67929d22457fc8cbfa645ce1,1612.0,j,ballFalling,322.3,308.07114317029976,253.89,2.0,fallScene,False,lp,3000.0,321.3,151.0,322.3,308.07114317029976,321.3,False
672976d49260ec8c490d70f6_result,45.0,672976d49260ec8c490d70f6,6790928bebf0b969fc839b02,67929d22457fc8cbfa645ce1,1230.0,f,ballFalling,500.0,553.4711431702997,282.51,7.0,fallScene,False,gt,3000.0,553.4711431702997,282.51,500.0,553.4711431702997,553.4711431702997,False
672976d49260ec8c490d70f6_result,46.0,672976d49260ec8c490d70f6,6790928bebf0b969fc839b02,67929d22457fc8cbfa645ce1,1439.0,j,ballFalling,500.0,553.4711431702997,282.51,7.0,fallScene,True,lp,3000.0,501.0,227.2843295913261,500.0,446.5288568297003,499.0,False
672976d49260ec8c490d70f6_result,47.0,672976d49260ec8c490d70f6,6790928bebf0b969fc839b02,67929d22457fc8cbfa645ce1,1188.0,f,ballFalling,604.4000000000001,575.4211431702997,266.76,12.0,fallScene,False,mid,3000.0,536.4288568297004,300.0,604.4000000000001,575.4211431702997,536.4288568297004,True
672976d49260ec8c490d70f6_result,48.0,672976d49260ec8c490d70f6,6790928bebf0b969fc839b02,67929d22457fc8cbfa645ce1,1832.0,j,ballFalling,500.0,510.8711431702997,369.03,8.0,fallScene,False,lp,3000.0,501.0,151.0,500.0,510.8711431702997,501.0,False
672976d49260ec8c490d70f6_result,49.0,672976d49260ec8c490d70f6,6790928bebf0b969fc839b02,67929d22457fc8cbfa645ce1,1531.0,f,ballFalling,500.0,510.8711431702997,369.03,8.0,fallScene,True,mid,3000.0,501.0,300.0,500.0,489.1288568297003,499.0,True
672976d49260ec8c490d70f6_result,50.0,672976d49260ec8c490d70f6,6790928bebf0b969fc839b02,67929d22457fc8cbfa645ce1,1240.0,j,ballFalling,500.0,553.4711431702997,282.51,7.0,fallScene,True,mid,3000.0,501.0,300.0,500.0,446.5288568297003,499.0,False
672976d49260ec8c490d70f6_result,51.0,672976d49260ec8c490d70f6,6790928bebf0b969fc839b02,67929d22457fc8cbfa645ce1,1310.0,f,ballFalling,604.4000000000001,650.0211431702996,404.58,11.0,fallScene,True,mid,3000.0,605.4000000000001,300.0,395.5999999999999,349.97885682970036,394.5999999999999,True
672976d49260ec8c490d70f6_result,52.0,672976d49260ec8c490d70f6,6790928bebf0b969fc839b02,67929d22457fc8cbfa645ce1,1373.0,f,ballFalling,500.0,453.6711431702998,210.33,5.0,fallScene,True,mid,3000.0,499.0,300.0,500.0,546.3288568297003,501.0,True
672976d49260ec8c490d70f6_result,53.0,672976d49260ec8c490d70f6,6790928bebf0b969fc839b02,67929d22457fc8cbfa645ce1,832.0,f,ballFalling,604.4000000000001,596.8711431702998,394.5,10.0,fallScene,False,mid,3000.0,536.4288568297004,300.0,604.4000000000001,596.8711431702998,536.4288568297004,True
672976d49260ec8c490d70f6_result,54.0,672976d49260ec8c490d70f6,6790928bebf0b969fc839b02,67929d22457fc8cbfa645ce1,1888.0,j,ballFalling,322.3,296.07114317029976,371.46,3.0,fallScene,False,lp,3000.0,321.3,287.3327096511259,322.3,296.07114317029976,321.3,False
672976d49260ec8c490d70f6_result,55.0,672976d49260ec8c490d70f6,6790928bebf0b969fc839b02,67929d22457fc8cbfa645ce1,1923.0,f,ballFalling,604.4000000000001,596.8711431702998,394.5,10.0,fallScene,True,lp,3000.0,603.4000000000001,215.50214355555383,395.5999999999999,403.1288568297002,396.5999999999999,True
672976d49260ec8c490d70f6_result,56.0,672976d49260ec8c490d70f6,6790928bebf0b969fc839b02,67929d22457fc8cbfa645ce1,1859.0,f,ballFalling,604.4000000000001,667.6211431702998,201.78,9.0,fallScene,False,lp,3000.0,605.4000000000001,151.0,604.4000000000001,667.6211431702998,605.4000000000001,True
672976d49260ec8c490d70f6_result,57.0,672976d49260ec8c490d70f6,6790928bebf0b969fc839b02,67929d22457fc8cbfa645ce1,1288.0,j,ballFalling,322.3,356.42114317029973,357.87,4.0,fallScene,False,lp,3000.0,323.3,297.4070551689986,322.3,356.42114317029973,323.3,False
672976d49260ec8c490d70f6_result,58.0,672976d49260ec8c490d70f6,6790928bebf0b969fc839b02,67929d22457fc8cbfa645ce1,936.0,f,ballFalling,322.3,379.3711431702997,245.25,1.0,fallScene,False,mid,3000.0,390.27114317029975,300.0,322.3,379.3711431702997,390.27114317029975,True
672976d49260ec8c490d70f6_result,59.0,672976d49260ec8c490d70f6,6790928bebf0b969fc839b02,67929d22457fc8cbfa645ce1,1005.0,f,ballFalling,604.4000000000001,575.4211431702997,266.76,12.0,fallScene,False,mid,3000.0,536.4288568297004,300.0,604.4000000000001,575.4211431702997,536.4288568297004,True
672976d49260ec8c490d70f6_result,60.0,672976d49260ec8c490d70f6,6790928bebf0b969fc839b02,67929d22457fc8cbfa645ce1,1216.0,j,ballFalling,500.0,479.9211431702998,330.87,6.0,fallScene,False,lp,3000.0,499.0,189.92909825697632,500.0,479.9211431702998,499.0,False
672976d49260ec8c490d70f6_result,61.0,672976d49260ec8c490d70f6,6790928bebf0b969fc839b02,67929d22457fc8cbfa645ce1,877.0,f,ballFalling,322.3,356.42114317029973,357.87,4.0,fallScene,False,mid,3000.0,390.27114317029975,300.0,322.3,356.42114317029973,390.27114317029975,True
672976d49260ec8c490d70f6_result,62.0,672976d49260ec8c490d70f6,6790928bebf0b969fc839b02,67929d22457fc8cbfa645ce1,1756.0,f,ballFalling,604.4000000000001,575.4211431702997,266.76,12.0,fallScene,False,gt,3000.0,575.4211431702997,266.76,604.4000000000001,575.4211431702997,575.4211431702997,False
672976d49260ec8c490d70f6_result,63.0,672976d49260ec8c490d70f6,6790928bebf0b969fc839b02,67929d22457fc8cbfa645ce1,1194.0,j,ballFalling,604.4000000000001,650.0211431702996,404.58,11.0,fallScene,False,mid,3000.0,605.4000000000001,300.0,604.4000000000001,650.0211431702996,605.4000000000001,False
672976d49260ec8c490d70f6_result,64.0,672976d49260ec8c490d70f6,6790928bebf0b969fc839b02,67929d22457fc8cbfa645ce1,1495.0,f,ballFalling,604.4000000000001,575.4211431702997,266.76,12.0,fallScene,True,gt,3000.0,575.4211431702997,266.76,395.5999999999999,424.57885682970027,424.57885682970027,False
672976d49260ec8c490d70f6_result,65.0,672976d49260ec8c490d70f6,6790928bebf0b969fc839b02,67929d22457fc8cbfa645ce1,1627.0,f,ballFalling,500.0,510.8711431702997,369.03,8.0,fallScene,True,mid,3000.0,501.0,300.0,500.0,489.1288568297003,499.0,True
672976d49260ec8c490d70f6_result,66.0,672976d49260ec8c490d70f6,6790928bebf0b969fc839b02,67929d22457fc8cbfa645ce1,760.0,f,ballFalling,322.3,356.42114317029973,357.87,4.0,fallScene,True,mid,3000.0,390.27114317029975,300.0,677.7,643.5788568297003,609.7288568297002,True
672976d49260ec8c490d70f6_result,67.0,672976d49260ec8c490d70f6,6790928bebf0b969fc839b02,67929d22457fc8cbfa645ce1,1782.0,j,ballFalling,322.3,308.07114317029976,253.89,2.0,fallScene,True,lp,3000.0,321.3,151.0,677.7,691.9288568297002,678.7,False
672976d49260ec8c490d70f6_result,68.0,672976d49260ec8c490d70f6,6790928bebf0b969fc839b02,67929d22457fc8cbfa645ce1,1851.0,f,ballFalling,604.4000000000001,575.4211431702997,266.76,12.0,fallScene,False,lp,3000.0,603.4000000000001,151.0,604.4000000000001,575.4211431702997,603.4000000000001,True
672976d49260ec8c490d70f6_result,69.0,672976d49260ec8c490d70f6,6790928bebf0b969fc839b02,67929d22457fc8cbfa645ce1,1247.0,f,ballFalling,604.4000000000001,596.8711431702998,394.5,10.0,fallScene,True,gt,3000.0,596.8711431702998,394.5,395.5999999999999,403.1288568297002,403.1288568297002,False
672976d49260ec8c490d70f6_result,70.0,672976d49260ec8c490d70f6,6790928bebf0b969fc839b02,67929d22457fc8cbfa645ce1,778.0,f,ballFalling,500.0,479.9211431702998,330.87,6.0,fallScene,True,gt,3000.0,479.9211431702998,330.87,500.0,520.0788568297003,520.0788568297003,False
672976d49260ec8c490d70f6_result,71.0,672976d49260ec8c490d70f6,6790928bebf0b969fc839b02,67929d22457fc8cbfa645ce1,864.0,f,ballFalling,322.3,379.3711431702997,245.25,1.0,fallScene,True,gt,3000.0,379.3711431702997,245.25,677.7,620.6288568297002,620.6288568297002,False
672976d49260ec8c490d70f6_result,72.0,672976d49260ec8c490d70f6,6790928bebf0b969fc839b02,67929d22457fc8cbfa645ce1,1347.0,f,ballFalling,500.0,510.8711431702997,369.03,8.0,fallScene,True,gt,3000.0,510.8711431702997,369.03,500.0,489.1288568297003,489.1288568297003,False
672976d49260ec8c490d70f6_result,73.0,672976d49260ec8c490d70f6,6790928bebf0b969fc839b02,67929d22457fc8cbfa645ce1,907.0,f,ballFalling,604.4000000000001,667.6211431702998,201.78,9.0,fallScene,True,lp,1000.0,605.4000000000001,151.0,395.5999999999999,332.3788568297002,394.5999999999999,True
672976d49260ec8c490d70f6_result,74.0,672976d49260ec8c490d70f6,6790928bebf0b969fc839b02,67929d22457fc8cbfa645ce1,895.0,f,ballFalling,604.4000000000001,650.0211431702996,404.58,11.0,fallScene,False,gt,1000.0,650.0211431702996,404.58,604.4000000000001,650.0211431702996,650.0211431702996,False
672976d49260ec8c490d70f6_result,75.0,672976d49260ec8c490d70f6,6790928bebf0b969fc839b02,67929d22457fc8cbfa645ce1,,,ballFalling,604.4000000000001,596.8711431702998,394.5,10.0,fallScene,True,gt,1000.0,596.8711431702998,394.5,395.5999999999999,403.1288568297002,403.1288568297002,
672976d49260ec8c490d70f6_result,76.0,672976d49260ec8c490d70f6,6790928bebf0b969fc839b02,67929d22457fc8cbfa645ce1,,,ballFalling,322.3,379.3711431702997,245.25,1.0,fallScene,True,gt,1000.0,379.3711431702997,245.25,677.7,620.6288568297002,620.6288568297002,
672976d49260ec8c490d70f6_result,77.0,672976d49260ec8c490d70f6,6790928bebf0b969fc839b02,67929d22457fc8cbfa645ce1,743.0,j,ballFalling,604.4000000000001,650.0211431702996,404.58,11.0,fallScene,True,lp,1000.0,605.4000000000001,372.6340973215488,395.5999999999999,349.97885682970036,394.5999999999999,False
672976d49260ec8c490d70f6_result,78.0,672976d49260ec8c490d70f6,6790928bebf0b969fc839b02,67929d22457fc8cbfa645ce1,870.0,j,ballFalling,500.0,479.9211431702998,330.87,6.0,fallScene,False,mid,1000.0,499.0,300.0,500.0,479.9211431702998,499.0,False
672976d49260ec8c490d70f6_result,79.0,672976d49260ec8c490d70f6,6790928bebf0b969fc839b02,67929d22457fc8cbfa645ce1,752.0,f,ballFalling,604.4000000000001,575.4211431702997,266.76,12.0,fallScene,False,mid,1000.0,536.4288568297004,300.0,604.4000000000001,575.4211431702997,536.4288568297004,True
672976d49260ec8c490d70f6_result,80.0,672976d49260ec8c490d70f6,6790928bebf0b969fc839b02,67929d22457fc8cbfa645ce1,823.0,f,ballFalling,604.4000000000001,575.4211431702997,266.76,12.0,fallScene,True,lp,1000.0,603.4000000000001,151.0,395.5999999999999,424.57885682970027,396.5999999999999,True
672976d49260ec8c490d70f6_result,81.0,672976d49260ec8c490d70f6,6790928bebf0b969fc839b02,67929d22457fc8cbfa645ce1,597.0,j,ballFalling,322.3,356.42114317029973,357.87,4.0,fallScene,True,lp,1000.0,323.3,297.4070551689986,677.7,643.5788568297003,676.7,False
672976d49260ec8c490d70f6_result,82.0,672976d49260ec8c490d70f6,6790928bebf0b969fc839b02,67929d22457fc8cbfa645ce1,815.0,j,ballFalling,500.0,479.9211431702998,330.87,6.0,fallScene,True,mid,1000.0,499.0,300.0,500.0,520.0788568297003,501.0,False
672976d49260ec8c490d70f6_result,83.0,672976d49260ec8c490d70f6,6790928bebf0b969fc839b02,67929d22457fc8cbfa645ce1,795.0,f,ballFalling,500.0,553.4711431702997,282.51,7.0,fallScene,False,lp,1000.0,501.0,227.2843295913261,500.0,553.4711431702997,501.0,True
672976d49260ec8c490d70f6_result,84.0,672976d49260ec8c490d70f6,6790928bebf0b969fc839b02,67929d22457fc8cbfa645ce1,945.0,f,ballFalling,604.4000000000001,667.6211431702998,201.78,9.0,fallScene,False,gt,1000.0,667.6211431702998,201.78,604.4000000000001,667.6211431702998,667.6211431702998,False
672976d49260ec8c490d70f6_result,85.0,672976d49260ec8c490d70f6,6790928bebf0b969fc839b02,67929d22457fc8cbfa645ce1,825.0,f,ballFalling,500.0,453.6711431702998,210.33,5.0,fallScene,True,gt,1000.0,453.6711431702998,210.33,500.0,546.3288568297003,546.3288568297003,False
672976d49260ec8c490d70f6_result,86.0,672976d49260ec8c490d70f6,6790928bebf0b969fc839b02,67929d22457fc8cbfa645ce1,854.0,f,ballFalling,322.3,356.42114317029973,357.87,4.0,fallScene,True,mid,1000.0,390.27114317029975,300.0,677.7,643.5788568297003,609.7288568297002,True
672976d49260ec8c490d70f6_result,87.0,672976d49260ec8c490d70f6,6790928bebf0b969fc839b02,67929d22457fc8cbfa645ce1,643.0,f,ballFalling,604.4000000000001,596.8711431702998,394.5,10.0,fallScene,False,mid,1000.0,536.4288568297004,300.0,604.4000000000001,596.8711431702998,536.4288568297004,True
672976d49260ec8c490d70f6_result,88.0,672976d49260ec8c490d70f6,6790928bebf0b969fc839b02,67929d22457fc8cbfa645ce1,730.0,j,ballFalling,500.0,453.6711431702998,210.33,5.0,fallScene,False,mid,1000.0,499.0,300.0,500.0,453.6711431702998,499.0,False
672976d49260ec8c490d70f6_result,89.0,672976d49260ec8c490d70f6,6790928bebf0b969fc839b02,67929d22457fc8cbfa645ce1,710.0,f,ballFalling,604.4000000000001,667.6211431702998,201.78,9.0,fallScene,False,gt,1000.0,667.6211431702998,201.78,604.4000000000001,667.6211431702998,667.6211431702998,False
672976d49260ec8c490d70f6_result,90.0,672976d49260ec8c490d70f6,6790928bebf0b969fc839b02,67929d22457fc8cbfa645ce1,797.0,f,ballFalling,500.0,453.6711431702998,210.33,5.0,fallScene,True,gt,1000.0,453.6711431702998,210.33,500.0,546.3288568297003,546.3288568297003,False
672976d49260ec8c490d70f6_result,91.0,672976d49260ec8c490d70f6,6790928bebf0b969fc839b02,67929d22457fc8cbfa645ce1,856.0,j,ballFalling,500.0,510.8711431702997,369.03,8.0,fallScene,False,lp,1000.0,501.0,151.0,500.0,510.8711431702997,501.0,False
672976d49260ec8c490d70f6_result,92.0,672976d49260ec8c490d70f6,6790928bebf0b969fc839b02,67929d22457fc8cbfa645ce1,969.0,f,ballFalling,604.4000000000001,650.0211431702996,404.58,11.0,fallScene,False,lp,1000.0,605.4000000000001,372.6340973215488,604.4000000000001,650.0211431702996,605.4000000000001,True
672976d49260ec8c490d70f6_result,93.0,672976d49260ec8c490d70f6,6790928bebf0b969fc839b02,67929d22457fc8cbfa645ce1,671.0,j,ballFalling,322.3,308.07114317029976,253.89,2.0,fallScene,False,lp,1000.0,321.3,151.0,322.3,308.07114317029976,321.3,False
672976d49260ec8c490d70f6_result,94.0,672976d49260ec8c490d70f6,6790928bebf0b969fc839b02,67929d22457fc8cbfa645ce1,834.0,f,ballFalling,500.0,479.9211431702998,330.87,6.0,fallScene,True,gt,1000.0,479.9211431702998,330.87,500.0,520.0788568297003,520.0788568297003,False
672976d49260ec8c490d70f6_result,95.0,672976d49260ec8c490d70f6,6790928bebf0b969fc839b02,67929d22457fc8cbfa645ce1,760.0,f,ballFalling,322.3,296.07114317029976,371.46,3.0,fallScene,True,gt,1000.0,296.07114317029976,371.46,677.7,703.9288568297002,703.9288568297002,False
672976d49260ec8c490d70f6_result,96.0,672976d49260ec8c490d70f6,6790928bebf0b969fc839b02,67929d22457fc8cbfa645ce1,759.0,j,ballFalling,322.3,379.3711431702997,245.25,1.0,fallScene,False,lp,1000.0,323.3,217.74551669457017,322.3,379.3711431702997,323.3,False
672976d49260ec8c490d70f6_result,97.0,672976d49260ec8c490d70f6,6790928bebf0b969fc839b02,67929d22457fc8cbfa645ce1,969.0,f,ballFalling,322.3,296.07114317029976,371.46,3.0,fallScene,True,mid,1000.0,321.3,300.0,677.7,703.9288568297002,678.7,True
672976d49260ec8c490d70f6_result,98.0,672976d49260ec8c490d70f6,6790928bebf0b969fc839b02,67929d22457fc8cbfa645ce1,705.0,f,ballFalling,322.3,379.3711431702997,245.25,1.0,fallScene,False,mid,1000.0,390.27114317029975,300.0,322.3,379.3711431702997,390.27114317029975,True
672976d49260ec8c490d70f6_result,99.0,672976d49260ec8c490d70f6,6790928bebf0b969fc839b02,67929d22457fc8cbfa645ce1,638.0,f,ballFalling,500.0,510.8711431702997,369.03,8.0,fallScene,False,mid,1000.0,501.0,300.0,500.0,510.8711431702997,501.0,True
672976d49260ec8c490d70f6_result,100.0,672976d49260ec8c490d70f6,6790928bebf0b969fc839b02,67929d22457fc8cbfa645ce1,949.0,f,ballFalling,604.4000000000001,575.4211431702997,266.76,12.0,fallScene,True,lp,1000.0,603.4000000000001,151.0,395.5999999999999,424.57885682970027,396.5999999999999,True
672976d49260ec8c490d70f6_result,101.0,672976d49260ec8c490d70f6,6790928bebf0b969fc839b02,67929d22457fc8cbfa645ce1,899.0,j,ballFalling,500.0,553.4711431702997,282.51,7.0,fallScene,True,gt,1000.0,553.4711431702997,282.51,500.0,446.5288568297003,446.5288568297003,True
672976d49260ec8c490d70f6_result,102.0,672976d49260ec8c490d70f6,6790928bebf0b969fc839b02,67929d22457fc8cbfa645ce1,690.0,f,ballFalling,322.3,379.3711431702997,245.25,1.0,fallScene,True,mid,1000.0,390.27114317029975,300.0,677.7,620.6288568297002,609.7288568297002,True
672976d49260ec8c490d70f6_result,103.0,672976d49260ec8c490d70f6,6790928bebf0b969fc839b02,67929d22457fc8cbfa645ce1,857.0,j,ballFalling,604.4000000000001,650.0211431702996,404.58,11.0,fallScene,False,mid,1000.0,605.4000000000001,300.0,604.4000000000001,650.0211431702996,605.4000000000001,False
672976d49260ec8c490d70f6_result,104.0,672976d49260ec8c490d70f6,6790928bebf0b969fc839b02,67929d22457fc8cbfa645ce1,866.0,f,ballFalling,322.3,296.07114317029976,371.46,3.0,fallScene,True,gt,1000.0,296.07114317029976,371.46,677.7,703.9288568297002,703.9288568297002,False
672976d49260ec8c490d70f6_result,105.0,672976d49260ec8c490d70f6,6790928bebf0b969fc839b02,67929d22457fc8cbfa645ce1,,,ballFalling,500.0,453.6711431702998,210.33,5.0,fallScene,True,lp,1000.0,499.0,151.0,500.0,546.3288568297003,501.0,
672976d49260ec8c490d70f6_result,106.0,672976d49260ec8c490d70f6,6790928bebf0b969fc839b02,67929d22457fc8cbfa645ce1,902.0,j,ballFalling,500.0,510.8711431702997,369.03,8.0,fallScene,True,mid,1000.0,501.0,300.0,500.0,489.1288568297003,499.0,False
672976d49260ec8c490d70f6_result,107.0,672976d49260ec8c490d70f6,6790928bebf0b969fc839b02,67929d22457fc8cbfa645ce1,884.0,j,ballFalling,500.0,553.4711431702997,282.51,7.0,fallScene,False,mid,1000.0,501.0,300.0,500.0,553.4711431702997,501.0,False
672976d49260ec8c490d70f6_result,108.0,672976d49260ec8c490d70f6,6790928bebf0b969fc839b02,67929d22457fc8cbfa645ce1,796.0,f,ballFalling,322.3,356.42114317029973,357.87,4.0,fallScene,False,gt,1000.0,356.42114317029973,357.87,322.3,356.42114317029973,356.42114317029973,False
672976d49260ec8c490d70f6_result,109.0,672976d49260ec8c490d70f6,6790928bebf0b969fc839b02,67929d22457fc8cbfa645ce1,,,ballFalling,604.4000000000001,650.0211431702996,404.58,11.0,fallScene,False,gt,1000.0,650.0211431702996,404.58,604.4000000000001,650.0211431702996,650.0211431702996,
672976d49260ec8c490d70f6_result,110.0,672976d49260ec8c490d70f6,6790928bebf0b969fc839b02,67929d22457fc8cbfa645ce1,505.0,j,ballFalling,500.0,553.4711431702997,282.51,7.0,fallScene,False,lp,1000.0,501.0,227.2843295913261,500.0,553.4711431702997,501.0,False
672976d49260ec8c490d70f6_result,111.0,672976d49260ec8c490d70f6,6790928bebf0b969fc839b02,67929d22457fc8cbfa645ce1,970.0,j,ballFalling,500.0,479.9211431702998,330.87,6.0,fallScene,True,lp,1000.0,499.0,189.92909825697632,500.0,520.0788568297003,501.0,False
672976d49260ec8c490d70f6_result,112.0,672976d49260ec8c490d70f6,6790928bebf0b969fc839b02,67929d22457fc8cbfa645ce1,883.0,j,ballFalling,322.3,296.07114317029976,371.46,3.0,fallScene,True,mid,1000.0,321.3,300.0,677.7,703.9288568297002,678.7,False
672976d49260ec8c490d70f6_result,113.0,672976d49260ec8c490d70f6,6790928bebf0b969fc839b02,67929d22457fc8cbfa645ce1,962.0,f,ballFalling,604.4000000000001,575.4211431702997,266.76,12.0,fallScene,False,gt,1000.0,575.4211431702997,266.76,604.4000000000001,575.4211431702997,575.4211431702997,False
672976d49260ec8c490d70f6_result,114.0,672976d49260ec8c490d70f6,6790928bebf0b969fc839b02,67929d22457fc8cbfa645ce1,818.0,f,ballFalling,500.0,453.6711431702998,210.33,5.0,fallScene,True,lp,1000.0,499.0,151.0,500.0,546.3288568297003,501.0,True
672976d49260ec8c490d70f6_result,115.0,672976d49260ec8c490d70f6,6790928bebf0b969fc839b02,67929d22457fc8cbfa645ce1,708.0,f,ballFalling,604.4000000000001,667.6211431702998,201.78,9.0,fallScene,False,lp,1000.0,605.4000000000001,151.0,604.4000000000001,667.6211431702998,605.4000000000001,True
672976d49260ec8c490d70f6_result,116.0,672976d49260ec8c490d70f6,6790928bebf0b969fc839b02,67929d22457fc8cbfa645ce1,569.0,f,ballFalling,604.4000000000001,596.8711431702998,394.5,10.0,fallScene,False,mid,1000.0,536.4288568297004,300.0,604.4000000000001,596.8711431702998,536.4288568297004,True
672976d49260ec8c490d70f6_result,117.0,672976d49260ec8c490d70f6,6790928bebf0b969fc839b02,67929d22457fc8cbfa645ce1,776.0,j,ballFalling,322.3,296.07114317029976,371.46,3.0,fallScene,True,lp,1000.0,321.3,287.3327096511259,677.7,703.9288568297002,678.7,False
672976d49260ec8c490d70f6_result,118.0,672976d49260ec8c490d70f6,6790928bebf0b969fc839b02,67929d22457fc8cbfa645ce1,709.0,j,ballFalling,322.3,356.42114317029973,357.87,4.0,fallScene,False,lp,1000.0,323.3,297.4070551689986,322.3,356.42114317029973,323.3,False
672976d49260ec8c490d70f6_result,119.0,672976d49260ec8c490d70f6,6790928bebf0b969fc839b02,67929d22457fc8cbfa645ce1,734.0,j,ballFalling,322.3,379.3711431702997,245.25,1.0,fallScene,False,gt,1000.0,379.3711431702997,245.25,322.3,379.3711431702997,379.3711431702997,True
672976d49260ec8c490d70f6_result,120.0,672976d49260ec8c490d70f6,6790928bebf0b969fc839b02,67929d22457fc8cbfa645ce1,952.0,f,ballFalling,604.4000000000001,667.6211431702998,201.78,9.0,fallScene,False,mid,1000.0,605.4000000000001,300.0,604.4000000000001,667.6211431702998,605.4000000000001,True
672976d49260ec8c490d70f6_result,121.0,672976d49260ec8c490d70f6,6790928bebf0b969fc839b02,67929d22457fc8cbfa645ce1,885.0,f,ballFalling,604.4000000000001,596.8711431702998,394.5,10.0,fallScene,False,mid,3000.0,536.4288568297004,300.0,604.4000000000001,596.8711431702998,536.4288568297004,True
672976d49260ec8c490d70f6_result,122.0,672976d49260ec8c490d70f6,6790928bebf0b969fc839b02,67929d22457fc8cbfa645ce1,1312.0,j,ballFalling,322.3,308.07114317029976,253.89,2.0,fallScene,False,gt,3000.0,308.07114317029976,253.89,322.3,308.07114317029976,308.07114317029976,True
672976d49260ec8c490d70f6_result,123.0,672976d49260ec8c490d70f6,6790928bebf0b969fc839b02,67929d22457fc8cbfa645ce1,1779.0,j,ballFalling,500.0,479.9211431702998,330.87,6.0,fallScene,False,mid,3000.0,499.0,300.0,500.0,479.9211431702998,499.0,False
672976d49260ec8c490d70f6_result,124.0,672976d49260ec8c490d70f6,6790928bebf0b969fc839b02,67929d22457fc8cbfa645ce1,1145.0,f,ballFalling,604.4000000000001,575.4211431702997,266.76,12.0,fallScene,True,lp,3000.0,603.4000000000001,151.0,395.5999999999999,424.57885682970027,396.5999999999999,True
672976d49260ec8c490d70f6_result,125.0,672976d49260ec8c490d70f6,6790928bebf0b969fc839b02,67929d22457fc8cbfa645ce1,1422.0,f,ballFalling,322.3,356.42114317029973,357.87,4.0,fallScene,True,gt,3000.0,356.42114317029973,357.87,677.7,643.5788568297003,643.5788568297003,False
672976d49260ec8c490d70f6_result,126.0,672976d49260ec8c490d70f6,6790928bebf0b969fc839b02,67929d22457fc8cbfa645ce1,1171.0,j,ballFalling,500.0,553.4711431702997,282.51,7.0,fallScene,True,mid,3000.0,501.0,300.0,500.0,446.5288568297003,499.0,False
672976d49260ec8c490d70f6_result,127.0,672976d49260ec8c490d70f6,6790928bebf0b969fc839b02,67929d22457fc8cbfa645ce1,938.0,f,ballFalling,322.3,356.42114317029973,357.87,4.0,fallScene,True,gt,3000.0,356.42114317029973,357.87,677.7,643.5788568297003,643.5788568297003,False
672976d49260ec8c490d70f6_result,128.0,672976d49260ec8c490d70f6,6790928bebf0b969fc839b02,67929d22457fc8cbfa645ce1,1088.0,j,ballFalling,500.0,553.4711431702997,282.51,7.0,fallScene,True,lp,3000.0,501.0,227.2843295913261,500.0,446.5288568297003,499.0,False
672976d49260ec8c490d70f6_result,129.0,672976d49260ec8c490d70f6,6790928bebf0b969fc839b02,67929d22457fc8cbfa645ce1,863.0,f,ballFalling,604.4000000000001,650.0211431702996,404.58,11.0,fallScene,False,gt,3000.0,650.0211431702996,404.58,604.4000000000001,650.0211431702996,650.0211431702996,False
672976d49260ec8c490d70f6_result,130.0,672976d49260ec8c490d70f6,6790928bebf0b969fc839b02,67929d22457fc8cbfa645ce1,748.0,f,ballFalling,322.3,379.3711431702997,245.25,1.0,fallScene,True,mid,3000.0,390.27114317029975,300.0,677.7,620.6288568297002,609.7288568297002,True
672976d49260ec8c490d70f6_result,131.0,672976d49260ec8c490d70f6,6790928bebf0b969fc839b02,67929d22457fc8cbfa645ce1,1542.0,f,ballFalling,604.4000000000001,667.6211431702998,201.78,9.0,fallScene,False,gt,3000.0,667.6211431702998,201.78,604.4000000000001,667.6211431702998,667.6211431702998,False
672976d49260ec8c490d70f6_result,132.0,672976d49260ec8c490d70f6,6790928bebf0b969fc839b02,67929d22457fc8cbfa645ce1,1896.0,j,ballFalling,500.0,479.9211431702998,330.87,6.0,fallScene,False,mid,3000.0,499.0,300.0,500.0,479.9211431702998,499.0,False
672976d49260ec8c490d70f6_result,133.0,672976d49260ec8c490d70f6,6790928bebf0b969fc839b02,67929d22457fc8cbfa645ce1,1246.0,f,ballFalling,604.4000000000001,650.0211431702996,404.58,11.0,fallScene,True,gt,3000.0,650.0211431702996,404.58,395.5999999999999,349.97885682970036,349.97885682970036,False
672976d49260ec8c490d70f6_result,134.0,672976d49260ec8c490d70f6,6790928bebf0b969fc839b02,67929d22457fc8cbfa645ce1,2142.0,j,ballFalling,500.0,479.9211431702998,330.87,6.0,fallScene,False,gt,3000.0,479.9211431702998,330.87,500.0,479.9211431702998,479.9211431702998,True
672976d49260ec8c490d70f6_result,135.0,672976d49260ec8c490d70f6,6790928bebf0b969fc839b02,67929d22457fc8cbfa645ce1,2053.0,f,ballFalling,322.3,308.07114317029976,253.89,2.0,fallScene,True,gt,3000.0,308.07114317029976,253.89,677.7,691.9288568297002,691.9288568297002,False
672976d49260ec8c490d70f6_result,136.0,672976d49260ec8c490d70f6,6790928bebf0b969fc839b02,67929d22457fc8cbfa645ce1,882.0,j,ballFalling,322.3,296.07114317029976,371.46,3.0,fallScene,True,mid,3000.0,321.3,300.0,677.7,703.9288568297002,678.7,False
672976d49260ec8c490d70f6_result,137.0,672976d49260ec8c490d70f6,6790928bebf0b969fc839b02,67929d22457fc8cbfa645ce1,920.0,j,ballFalling,322.3,379.3711431702997,245.25,1.0,fallScene,False,gt,3000.0,379.3711431702997,245.25,322.3,379.3711431702997,379.3711431702997,True
672976d49260ec8c490d70f6_result,138.0,672976d49260ec8c490d70f6,6790928bebf0b969fc839b02,67929d22457fc8cbfa645ce1,1903.0,f,ballFalling,500.0,453.6711431702998,210.33,5.0,fallScene,True,gt,3000.0,453.6711431702998,210.33,500.0,546.3288568297003,546.3288568297003,False
672976d49260ec8c490d70f6_result,139.0,672976d49260ec8c490d70f6,6790928bebf0b969fc839b02,67929d22457fc8cbfa645ce1,1567.0,j,ballFalling,604.4000000000001,667.6211431702998,201.78,9.0,fallScene,True,mid,3000.0,605.4000000000001,300.0,395.5999999999999,332.3788568297002,394.5999999999999,False
672976d49260ec8c490d70f6_result,140.0,672976d49260ec8c490d70f6,6790928bebf0b969fc839b02,67929d22457fc8cbfa645ce1,1445.0,f,ballFalling,322.3,296.07114317029976,371.46,3.0,fallScene,False,gt,3000.0,296.07114317029976,371.46,322.3,296.07114317029976,296.07114317029976,False
672976d49260ec8c490d70f6_result,141.0,672976d49260ec8c490d70f6,6790928bebf0b969fc839b02,67929d22457fc8cbfa645ce1,874.0,f,ballFalling,322.3,296.07114317029976,371.46,3.0,fallScene,True,gt,3000.0,296.07114317029976,371.46,677.7,703.9288568297002,703.9288568297002,False
672976d49260ec8c490d70f6_result,142.0,672976d49260ec8c490d70f6,6790928bebf0b969fc839b02,67929d22457fc8cbfa645ce1,1690.0,j,ballFalling,500.0,453.6711431702998,210.33,5.0,fallScene,True,gt,3000.0,453.6711431702998,210.33,500.0,546.3288568297003,546.3288568297003,True
672976d49260ec8c490d70f6_result,143.0,672976d49260ec8c490d70f6,6790928bebf0b969fc839b02,67929d22457fc8cbfa645ce1,2353.0,j,ballFalling,500.0,453.6711431702998,210.33,5.0,fallScene,True,lp,3000.0,499.0,151.0,500.0,546.3288568297003,501.0,False
672976d49260ec8c490d70f6_result,144.0,672976d49260ec8c490d70f6,6790928bebf0b969fc839b02,67929d22457fc8cbfa645ce1,1182.0,f,ballFalling,322.3,379.3711431702997,245.25,1.0,fallScene,False,lp,3000.0,323.3,217.74551669457017,322.3,379.3711431702997,323.3,True
67915f6f598c16696b97305d_result,1.0,67915f6f598c16696b97305d,6790928bebf0b969fc839b02,67929efec7adfe61a0d3fdf9,892.0,j,ballFalling,500.0,453.6711431702998,210.33,5.0,fallScene,True,lp,1000.0,499.0,151.0,500.0,546.3288568297003,501.0,False
67915f6f598c16696b97305d_result,2.0,67915f6f598c16696b97305d,6790928bebf0b969fc839b02,67929efec7adfe61a0d3fdf9,930.0,f,ballFalling,500.0,453.6711431702998,210.33,5.0,fallScene,True,mid,1000.0,499.0,300.0,500.0,546.3288568297003,501.0,True
67915f6f598c16696b97305d_result,3.0,67915f6f598c16696b97305d,6790928bebf0b969fc839b02,67929efec7adfe61a0d3fdf9,799.0,j,ballFalling,322.3,379.3711431702997,245.25,1.0,fallScene,True,mid,1000.0,390.27114317029975,300.0,677.7,620.6288568297002,609.7288568297002,False
67915f6f598c16696b97305d_result,4.0,67915f6f598c16696b97305d,6790928bebf0b969fc839b02,67929efec7adfe61a0d3fdf9,709.0,j,ballFalling,322.3,356.42114317029973,357.87,4.0,fallScene,True,mid,1000.0,390.27114317029975,300.0,677.7,643.5788568297003,609.7288568297002,False
67915f6f598c16696b97305d_result,5.0,67915f6f598c16696b97305d,6790928bebf0b969fc839b02,67929efec7adfe61a0d3fdf9,953.0,f,ballFalling,322.3,379.3711431702997,245.25,1.0,fallScene,True,gt,1000.0,379.3711431702997,245.25,677.7,620.6288568297002,620.6288568297002,False
67915f6f598c16696b97305d_result,6.0,67915f6f598c16696b97305d,6790928bebf0b969fc839b02,67929efec7adfe61a0d3fdf9,,,ballFalling,604.4000000000001,596.8711431702998,394.5,10.0,fallScene,False,lp,1000.0,603.4000000000001,215.50214355555383,604.4000000000001,596.8711431702998,603.4000000000001,
67915f6f598c16696b97305d_result,7.0,67915f6f598c16696b97305d,6790928bebf0b969fc839b02,67929efec7adfe61a0d3fdf9,700.0,f,ballFalling,322.3,308.07114317029976,253.89,2.0,fallScene,False,mid,1000.0,321.3,300.0,322.3,308.07114317029976,321.3,True
67915f6f598c16696b97305d_result,8.0,67915f6f598c16696b97305d,6790928bebf0b969fc839b02,67929efec7adfe61a0d3fdf9,551.0,j,ballFalling,500.0,510.8711431702997,369.03,8.0,fallScene,True,mid,1000.0,501.0,300.0,500.0,489.1288568297003,499.0,False
67915f6f598c16696b97305d_result,9.0,67915f6f598c16696b97305d,6790928bebf0b969fc839b02,67929efec7adfe61a0d3fdf9,,,ballFalling,604.4000000000001,650.0211431702996,404.58,11.0,fallScene,False,mid,1000.0,605.4000000000001,300.0,604.4000000000001,650.0211431702996,605.4000000000001,
67915f6f598c16696b97305d_result,10.0,67915f6f598c16696b97305d,6790928bebf0b969fc839b02,67929efec7adfe61a0d3fdf9,551.0,j,ballFalling,322.3,379.3711431702997,245.25,1.0,fallScene,True,lp,1000.0,323.3,217.74551669457017,677.7,620.6288568297002,676.7,False
67915f6f598c16696b97305d_result,11.0,67915f6f598c16696b97305d,6790928bebf0b969fc839b02,67929efec7adfe61a0d3fdf9,757.0,f,ballFalling,500.0,510.8711431702997,369.03,8.0,fallScene,False,lp,1000.0,501.0,151.0,500.0,510.8711431702997,501.0,True
67915f6f598c16696b97305d_result,12.0,67915f6f598c16696b97305d,6790928bebf0b969fc839b02,67929efec7adfe61a0d3fdf9,827.0,f,ballFalling,604.4000000000001,650.0211431702996,404.58,11.0,fallScene,False,gt,1000.0,650.0211431702996,404.58,604.4000000000001,650.0211431702996,650.0211431702996,False
67915f6f598c16696b97305d_result,13.0,67915f6f598c16696b97305d,6790928bebf0b969fc839b02,67929efec7adfe61a0d3fdf9,817.0,f,ballFalling,500.0,553.4711431702997,282.51,7.0,fallScene,False,gt,1000.0,553.4711431702997,282.51,500.0,553.4711431702997,553.4711431702997,False
67915f6f598c16696b97305d_result,14.0,67915f6f598c16696b97305d,6790928bebf0b969fc839b02,67929efec7adfe61a0d3fdf9,587.0,j,ballFalling,322.3,356.42114317029973,357.87,4.0,fallScene,True,lp,1000.0,323.3,297.4070551689986,677.7,643.5788568297003,676.7,False
67915f6f598c16696b97305d_result,15.0,67915f6f598c16696b97305d,6790928bebf0b969fc839b02,67929efec7adfe61a0d3fdf9,866.0,j,ballFalling,500.0,553.4711431702997,282.51,7.0,fallScene,True,mid,1000.0,501.0,300.0,500.0,446.5288568297003,499.0,False
67915f6f598c16696b97305d_result,16.0,67915f6f598c16696b97305d,6790928bebf0b969fc839b02,67929efec7adfe61a0d3fdf9,719.0,f,ballFalling,500.0,553.4711431702997,282.51,7.0,fallScene,True,gt,1000.0,553.4711431702997,282.51,500.0,446.5288568297003,446.5288568297003,False
67915f6f598c16696b97305d_result,17.0,67915f6f598c16696b97305d,6790928bebf0b969fc839b02,67929efec7adfe61a0d3fdf9,734.0,j,ballFalling,604.4000000000001,667.6211431702998,201.78,9.0,fallScene,True,gt,1000.0,667.6211431702998,201.78,395.5999999999999,332.3788568297002,332.3788568297002,True
67915f6f598c16696b97305d_result,18.0,67915f6f598c16696b97305d,6790928bebf0b969fc839b02,67929efec7adfe61a0d3fdf9,940.0,f,ballFalling,322.3,308.07114317029976,253.89,2.0,fallScene,True,lp,1000.0,321.3,151.0,677.7,691.9288568297002,678.7,True
67915f6f598c16696b97305d_result,19.0,67915f6f598c16696b97305d,6790928bebf0b969fc839b02,67929efec7adfe61a0d3fdf9,,,ballFalling,604.4000000000001,575.4211431702997,266.76,12.0,fallScene,False,mid,1000.0,536.4288568297004,300.0,604.4000000000001,575.4211431702997,536.4288568297004,
67915f6f598c16696b97305d_result,20.0,67915f6f598c16696b97305d,6790928bebf0b969fc839b02,67929efec7adfe61a0d3fdf9,421.0,f,ballFalling,322.3,379.3711431702997,245.25,1.0,fallScene,False,lp,1000.0,323.3,217.74551669457017,322.3,379.3711431702997,323.3,True
67915f6f598c16696b97305d_result,21.0,67915f6f598c16696b97305d,6790928bebf0b969fc839b02,67929efec7adfe61a0d3fdf9,733.0,j,ballFalling,604.4000000000001,650.0211431702996,404.58,11.0,fallScene,False,mid,1000.0,605.4000000000001,300.0,604.4000000000001,650.0211431702996,605.4000000000001,False
67915f6f598c16696b97305d_result,22.0,67915f6f598c16696b97305d,6790928bebf0b969fc839b02,67929efec7adfe61a0d3fdf9,526.0,j,ballFalling,500.0,479.9211431702998,330.87,6.0,fallScene,False,mid,1000.0,499.0,300.0,500.0,479.9211431702998,499.0,False
67915f6f598c16696b97305d_result,23.0,67915f6f598c16696b97305d,6790928bebf0b969fc839b02,67929efec7adfe61a0d3fdf9,891.0,f,ballFalling,322.3,356.42114317029973,357.87,4.0,fallScene,True,gt,1000.0,356.42114317029973,357.87,677.7,643.5788568297003,643.5788568297003,False
67915f6f598c16696b97305d_result,24.0,67915f6f598c16696b97305d,6790928bebf0b969fc839b02,67929efec7adfe61a0d3fdf9,830.0,f,ballFalling,500.0,453.6711431702998,210.33,5.0,fallScene,True,gt,1000.0,453.6711431702998,210.33,500.0,546.3288568297003,546.3288568297003,False
67915f6f598c16696b97305d_result,25.0,67915f6f598c16696b97305d,6790928bebf0b969fc839b02,67929efec7adfe61a0d3fdf9,915.0,f,ballFalling,322.3,308.07114317029976,253.89,2.0,fallScene,True,gt,3000.0,308.07114317029976,253.89,677.7,691.9288568297002,691.9288568297002,False
67915f6f598c16696b97305d_result,26.0,67915f6f598c16696b97305d,6790928bebf0b969fc839b02,67929efec7adfe61a0d3fdf9,747.0,f,ballFalling,322.3,379.3711431702997,245.25,1.0,fallScene,False,gt,3000.0,379.3711431702997,245.25,322.3,379.3711431702997,379.3711431702997,False
67915f6f598c16696b97305d_result,27.0,67915f6f598c16696b97305d,6790928bebf0b969fc839b02,67929efec7adfe61a0d3fdf9,515.0,j,ballFalling,604.4000000000001,667.6211431702998,201.78,9.0,fallScene,False,lp,3000.0,605.4000000000001,151.0,604.4000000000001,667.6211431702998,605.4000000000001,False
67915f6f598c16696b97305d_result,28.0,67915f6f598c16696b97305d,6790928bebf0b969fc839b02,67929efec7adfe61a0d3fdf9,655.0,f,ballFalling,604.4000000000001,575.4211431702997,266.76,12.0,fallScene,False,lp,3000.0,603.4000000000001,151.0,604.4000000000001,575.4211431702997,603.4000000000001,True
67915f6f598c16696b97305d_result,29.0,67915f6f598c16696b97305d,6790928bebf0b969fc839b02,67929efec7adfe61a0d3fdf9,598.0,f,ballFalling,500.0,510.8711431702997,369.03,8.0,fallScene,True,mid,3000.0,501.0,300.0,500.0,489.1288568297003,499.0,True
67915f6f598c16696b97305d_result,30.0,67915f6f598c16696b97305d,6790928bebf0b969fc839b02,67929efec7adfe61a0d3fdf9,732.0,f,ballFalling,604.4000000000001,575.4211431702997,266.76,12.0,fallScene,True,mid,3000.0,536.4288568297004,300.0,395.5999999999999,424.57885682970027,463.5711431702996,True
67915f6f598c16696b97305d_result,31.0,67915f6f598c16696b97305d,6790928bebf0b969fc839b02,67929efec7adfe61a0d3fdf9,775.0,j,ballFalling,322.3,356.42114317029973,357.87,4.0,fallScene,True,mid,3000.0,390.27114317029975,300.0,677.7,643.5788568297003,609.7288568297002,False
67915f6f598c16696b97305d_result,32.0,67915f6f598c16696b97305d,6790928bebf0b969fc839b02,67929efec7adfe61a0d3fdf9,1682.0,f,ballFalling,500.0,510.8711431702997,369.03,8.0,fallScene,True,mid,3000.0,501.0,300.0,500.0,489.1288568297003,499.0,True
67915f6f598c16696b97305d_result,33.0,67915f6f598c16696b97305d,6790928bebf0b969fc839b02,67929efec7adfe61a0d3fdf9,884.0,f,ballFalling,500.0,553.4711431702997,282.51,7.0,fallScene,False,lp,3000.0,501.0,227.2843295913261,500.0,553.4711431702997,501.0,True
67915f6f598c16696b97305d_result,34.0,67915f6f598c16696b97305d,6790928bebf0b969fc839b02,67929efec7adfe61a0d3fdf9,683.0,f,ballFalling,500.0,453.6711431702998,210.33,5.0,fallScene,True,lp,3000.0,499.0,151.0,500.0,546.3288568297003,501.0,True
67915f6f598c16696b97305d_result,35.0,67915f6f598c16696b97305d,6790928bebf0b969fc839b02,67929efec7adfe61a0d3fdf9,582.0,f,ballFalling,500.0,553.4711431702997,282.51,7.0,fallScene,False,lp,3000.0,501.0,227.2843295913261,500.0,553.4711431702997,501.0,True
67915f6f598c16696b97305d_result,36.0,67915f6f598c16696b97305d,6790928bebf0b969fc839b02,67929efec7adfe61a0d3fdf9,668.0,f,ballFalling,500.0,510.8711431702997,369.03,8.0,fallScene,True,lp,3000.0,501.0,151.0,500.0,489.1288568297003,499.0,True
67915f6f598c16696b97305d_result,37.0,67915f6f598c16696b97305d,6790928bebf0b969fc839b02,67929efec7adfe61a0d3fdf9,687.0,j,ballFalling,322.3,296.07114317029976,371.46,3.0,fallScene,False,lp,3000.0,321.3,287.3327096511259,322.3,296.07114317029976,321.3,False
67915f6f598c16696b97305d_result,38.0,67915f6f598c16696b97305d,6790928bebf0b969fc839b02,67929efec7adfe61a0d3fdf9,486.0,f,ballFalling,500.0,553.4711431702997,282.51,7.0,fallScene,False,gt,3000.0,553.4711431702997,282.51,500.0,553.4711431702997,553.4711431702997,False
67915f6f598c16696b97305d_result,39.0,67915f6f598c16696b97305d,6790928bebf0b969fc839b02,67929efec7adfe61a0d3fdf9,501.0,j,ballFalling,604.4000000000001,667.6211431702998,201.78,9.0,fallScene,False,mid,3000.0,605.4000000000001,300.0,604.4000000000001,667.6211431702998,605.4000000000001,False
67915f6f598c16696b97305d_result,40.0,67915f6f598c16696b97305d,6790928bebf0b969fc839b02,67929efec7adfe61a0d3fdf9,701.0,j,ballFalling,500.0,479.9211431702998,330.87,6.0,fallScene,False,mid,3000.0,499.0,300.0,500.0,479.9211431702998,499.0,False
67915f6f598c16696b97305d_result,41.0,67915f6f598c16696b97305d,6790928bebf0b969fc839b02,67929efec7adfe61a0d3fdf9,904.0,f,ballFalling,500.0,510.8711431702997,369.03,8.0,fallScene,False,gt,3000.0,510.8711431702997,369.03,500.0,510.8711431702997,510.8711431702997,False
67915f6f598c16696b97305d_result,42.0,67915f6f598c16696b97305d,6790928bebf0b969fc839b02,67929efec7adfe61a0d3fdf9,1126.0,f,ballFalling,500.0,479.9211431702998,330.87,6.0,fallScene,True,lp,3000.0,499.0,189.92909825697632,500.0,520.0788568297003,501.0,True
67915f6f598c16696b97305d_result,43.0,67915f6f598c16696b97305d,6790928bebf0b969fc839b02,67929efec7adfe61a0d3fdf9,802.0,j,ballFalling,322.3,379.3711431702997,245.25,1.0,fallScene,True,mid,3000.0,390.27114317029975,300.0,677.7,620.6288568297002,609.7288568297002,False
67915f6f598c16696b97305d_result,44.0,67915f6f598c16696b97305d,6790928bebf0b969fc839b02,67929efec7adfe61a0d3fdf9,888.0,f,ballFalling,500.0,453.6711431702998,210.33,5.0,fallScene,True,gt,3000.0,453.6711431702998,210.33,500.0,546.3288568297003,546.3288568297003,False
67915f6f598c16696b97305d_result,45.0,67915f6f598c16696b97305d,6790928bebf0b969fc839b02,67929efec7adfe61a0d3fdf9,1051.0,j,ballFalling,322.3,296.07114317029976,371.46,3.0,fallScene,False,mid,3000.0,321.3,300.0,322.3,296.07114317029976,321.3,False
67915f6f598c16696b97305d_result,46.0,67915f6f598c16696b97305d,6790928bebf0b969fc839b02,67929efec7adfe61a0d3fdf9,540.0,f,ballFalling,322.3,356.42114317029973,357.87,4.0,fallScene,False,lp,3000.0,323.3,297.4070551689986,322.3,356.42114317029973,323.3,True
67915f6f598c16696b97305d_result,47.0,67915f6f598c16696b97305d,6790928bebf0b969fc839b02,67929efec7adfe61a0d3fdf9,721.0,f,ballFalling,500.0,453.6711431702998,210.33,5.0,fallScene,True,gt,3000.0,453.6711431702998,210.33,500.0,546.3288568297003,546.3288568297003,False
67915f6f598c16696b97305d_result,48.0,67915f6f598c16696b97305d,6790928bebf0b969fc839b02,67929efec7adfe61a0d3fdf9,1370.0,f,ballFalling,322.3,379.3711431702997,245.25,1.0,fallScene,True,gt,3000.0,379.3711431702997,245.25,677.7,620.6288568297002,620.6288568297002,False
67915f6f598c16696b97305d_result,49.0,67915f6f598c16696b97305d,6790928bebf0b969fc839b02,67929efec7adfe61a0d3fdf9,973.0,j,ballFalling,322.3,308.07114317029976,253.89,2.0,fallScene,True,mid,3000.0,321.3,300.0,677.7,691.9288568297002,678.7,False
67915f6f598c16696b97305d_result,50.0,67915f6f598c16696b97305d,6790928bebf0b969fc839b02,67929efec7adfe61a0d3fdf9,812.0,f,ballFalling,604.4000000000001,575.4211431702997,266.76,12.0,fallScene,True,lp,3000.0,603.4000000000001,151.0,395.5999999999999,424.57885682970027,396.5999999999999,True
67915f6f598c16696b97305d_result,51.0,67915f6f598c16696b97305d,6790928bebf0b969fc839b02,67929efec7adfe61a0d3fdf9,696.0,f,ballFalling,604.4000000000001,667.6211431702998,201.78,9.0,fallScene,True,gt,3000.0,667.6211431702998,201.78,395.5999999999999,332.3788568297002,332.3788568297002,False
67915f6f598c16696b97305d_result,52.0,67915f6f598c16696b97305d,6790928bebf0b969fc839b02,67929efec7adfe61a0d3fdf9,787.0,f,ballFalling,322.3,379.3711431702997,245.25,1.0,fallScene,True,lp,3000.0,323.3,217.74551669457017,677.7,620.6288568297002,676.7,True
67915f6f598c16696b97305d_result,53.0,67915f6f598c16696b97305d,6790928bebf0b969fc839b02,67929efec7adfe61a0d3fdf9,767.0,f,ballFalling,500.0,479.9211431702998,330.87,6.0,fallScene,True,gt,3000.0,479.9211431702998,330.87,500.0,520.0788568297003,520.0788568297003,False
67915f6f598c16696b97305d_result,54.0,67915f6f598c16696b97305d,6790928bebf0b969fc839b02,67929efec7adfe61a0d3fdf9,787.0,j,ballFalling,322.3,296.07114317029976,371.46,3.0,fallScene,True,gt,3000.0,296.07114317029976,371.46,677.7,703.9288568297002,703.9288568297002,True
67915f6f598c16696b97305d_result,55.0,67915f6f598c16696b97305d,6790928bebf0b969fc839b02,67929efec7adfe61a0d3fdf9,598.0,j,ballFalling,604.4000000000001,650.0211431702996,404.58,11.0,fallScene,False,lp,3000.0,605.4000000000001,372.6340973215488,604.4000000000001,650.0211431702996,605.4000000000001,False
67915f6f598c16696b97305d_result,56.0,67915f6f598c16696b97305d,6790928bebf0b969fc839b02,67929efec7adfe61a0d3fdf9,791.0,j,ballFalling,322.3,356.42114317029973,357.87,4.0,fallScene,False,gt,3000.0,356.42114317029973,357.87,322.3,356.42114317029973,356.42114317029973,True
67915f6f598c16696b97305d_result,57.0,67915f6f598c16696b97305d,6790928bebf0b969fc839b02,67929efec7adfe61a0d3fdf9,934.0,f,ballFalling,322.3,308.07114317029976,253.89,2.0,fallScene,False,lp,3000.0,321.3,151.0,322.3,308.07114317029976,321.3,True
67915f6f598c16696b97305d_result,58.0,67915f6f598c16696b97305d,6790928bebf0b969fc839b02,67929efec7adfe61a0d3fdf9,667.0,j,ballFalling,500.0,453.6711431702998,210.33,5.0,fallScene,True,mid,3000.0,499.0,300.0,500.0,546.3288568297003,501.0,False
67915f6f598c16696b97305d_result,59.0,67915f6f598c16696b97305d,6790928bebf0b969fc839b02,67929efec7adfe61a0d3fdf9,746.0,j,ballFalling,604.4000000000001,596.8711431702998,394.5,10.0,fallScene,False,mid,3000.0,536.4288568297004,300.0,604.4000000000001,596.8711431702998,536.4288568297004,False
67915f6f598c16696b97305d_result,60.0,67915f6f598c16696b97305d,6790928bebf0b969fc839b02,67929efec7adfe61a0d3fdf9,151.0,f,ballFalling,500.0,553.4711431702997,282.51,7.0,fallScene,False,mid,3000.0,501.0,300.0,500.0,553.4711431702997,501.0,True
67915f6f598c16696b97305d_result,61.0,67915f6f598c16696b97305d,6790928bebf0b969fc839b02,67929efec7adfe61a0d3fdf9,132.0,f,ballFalling,604.4000000000001,650.0211431702996,404.58,11.0,fallScene,False,gt,3000.0,650.0211431702996,404.58,604.4000000000001,650.0211431702996,650.0211431702996,False
67915f6f598c16696b97305d_result,62.0,67915f6f598c16696b97305d,6790928bebf0b969fc839b02,67929efec7adfe61a0d3fdf9,484.0,j,ballFalling,322.3,356.42114317029973,357.87,4.0,fallScene,True,lp,3000.0,323.3,297.4070551689986,677.7,643.5788568297003,676.7,False
67915f6f598c16696b97305d_result,63.0,67915f6f598c16696b97305d,6790928bebf0b969fc839b02,67929efec7adfe61a0d3fdf9,942.0,f,ballFalling,322.3,308.07114317029976,253.89,2.0,fallScene,False,lp,3000.0,321.3,151.0,322.3,308.07114317029976,321.3,True
67915f6f598c16696b97305d_result,64.0,67915f6f598c16696b97305d,6790928bebf0b969fc839b02,67929efec7adfe61a0d3fdf9,733.0,f,ballFalling,500.0,479.9211431702998,330.87,6.0,fallScene,False,lp,3000.0,499.0,189.92909825697632,500.0,479.9211431702998,499.0,True
67915f6f598c16696b97305d_result,65.0,67915f6f598c16696b97305d,6790928bebf0b969fc839b02,67929efec7adfe61a0d3fdf9,981.0,f,ballFalling,604.4000000000001,596.8711431702998,394.5,10.0,fallScene,False,lp,3000.0,603.4000000000001,215.50214355555383,604.4000000000001,596.8711431702998,603.4000000000001,True
67915f6f598c16696b97305d_result,66.0,67915f6f598c16696b97305d,6790928bebf0b969fc839b02,67929efec7adfe61a0d3fdf9,1204.0,j,ballFalling,604.4000000000001,650.0211431702996,404.58,11.0,fallScene,True,mid,3000.0,605.4000000000001,300.0,395.5999999999999,349.97885682970036,394.5999999999999,False
67915f6f598c16696b97305d_result,67.0,67915f6f598c16696b97305d,6790928bebf0b969fc839b02,67929efec7adfe61a0d3fdf9,485.0,f,ballFalling,604.4000000000001,575.4211431702997,266.76,12.0,fallScene,False,gt,3000.0,575.4211431702997,266.76,604.4000000000001,575.4211431702997,575.4211431702997,False
67915f6f598c16696b97305d_result,68.0,67915f6f598c16696b97305d,6790928bebf0b969fc839b02,67929efec7adfe61a0d3fdf9,404.0,j,ballFalling,604.4000000000001,650.0211431702996,404.58,11.0,fallScene,True,lp,3000.0,605.4000000000001,372.6340973215488,395.5999999999999,349.97885682970036,394.5999999999999,False
67915f6f598c16696b97305d_result,69.0,67915f6f598c16696b97305d,6790928bebf0b969fc839b02,67929efec7adfe61a0d3fdf9,869.0,j,ballFalling,322.3,296.07114317029976,371.46,3.0,fallScene,False,mid,3000.0,321.3,300.0,322.3,296.07114317029976,321.3,False
67915f6f598c16696b97305d_result,70.0,67915f6f598c16696b97305d,6790928bebf0b969fc839b02,67929efec7adfe61a0d3fdf9,1000.0,f,ballFalling,500.0,453.6711431702998,210.33,5.0,fallScene,False,mid,3000.0,499.0,300.0,500.0,453.6711431702998,499.0,True
67915f6f598c16696b97305d_result,71.0,67915f6f598c16696b97305d,6790928bebf0b969fc839b02,67929efec7adfe61a0d3fdf9,1483.0,f,ballFalling,604.4000000000001,596.8711431702998,394.5,10.0,fallScene,True,gt,3000.0,596.8711431702998,394.5,395.5999999999999,403.1288568297002,403.1288568297002,False
67915f6f598c16696b97305d_result,72.0,67915f6f598c16696b97305d,6790928bebf0b969fc839b02,67929efec7adfe61a0d3fdf9,824.0,j,ballFalling,322.3,356.42114317029973,357.87,4.0,fallScene,False,mid,3000.0,390.27114317029975,300.0,322.3,356.42114317029973,390.27114317029975,False
67915f6f598c16696b97305d_result,73.0,67915f6f598c16696b97305d,6790928bebf0b969fc839b02,67929efec7adfe61a0d3fdf9,794.0,f,ballFalling,604.4000000000001,650.0211431702996,404.58,11.0,fallScene,True,gt,3000.0,650.0211431702996,404.58,395.5999999999999,349.97885682970036,349.97885682970036,False
67915f6f598c16696b97305d_result,74.0,67915f6f598c16696b97305d,6790928bebf0b969fc839b02,67929efec7adfe61a0d3fdf9,733.0,j,ballFalling,322.3,379.3711431702997,245.25,1.0,fallScene,True,mid,3000.0,390.27114317029975,300.0,677.7,620.6288568297002,609.7288568297002,False
67915f6f598c16696b97305d_result,75.0,67915f6f598c16696b97305d,6790928bebf0b969fc839b02,67929efec7adfe61a0d3fdf9,199.0,f,ballFalling,500.0,479.9211431702998,330.87,6.0,fallScene,True,mid,3000.0,499.0,300.0,500.0,520.0788568297003,501.0,True
67915f6f598c16696b97305d_result,76.0,67915f6f598c16696b97305d,6790928bebf0b969fc839b02,67929efec7adfe61a0d3fdf9,835.0,f,ballFalling,604.4000000000001,667.6211431702998,201.78,9.0,fallScene,True,lp,3000.0,605.4000000000001,151.0,395.5999999999999,332.3788568297002,394.5999999999999,True
67915f6f598c16696b97305d_result,77.0,67915f6f598c16696b97305d,6790928bebf0b969fc839b02,67929efec7adfe61a0d3fdf9,517.0,j,ballFalling,604.4000000000001,650.0211431702996,404.58,11.0,fallScene,False,mid,3000.0,605.4000000000001,300.0,604.4000000000001,650.0211431702996,605.4000000000001,False
67915f6f598c16696b97305d_result,78.0,67915f6f598c16696b97305d,6790928bebf0b969fc839b02,67929efec7adfe61a0d3fdf9,1306.0,f,ballFalling,500.0,510.8711431702997,369.03,8.0,fallScene,True,gt,3000.0,510.8711431702997,369.03,500.0,489.1288568297003,489.1288568297003,False
67915f6f598c16696b97305d_result,79.0,67915f6f598c16696b97305d,6790928bebf0b969fc839b02,67929efec7adfe61a0d3fdf9,749.0,f,ballFalling,500.0,510.8711431702997,369.03,8.0,fallScene,True,lp,3000.0,501.0,151.0,500.0,489.1288568297003,499.0,True
67915f6f598c16696b97305d_result,80.0,67915f6f598c16696b97305d,6790928bebf0b969fc839b02,67929efec7adfe61a0d3fdf9,966.0,j,ballFalling,322.3,296.07114317029976,371.46,3.0,fallScene,True,gt,3000.0,296.07114317029976,371.46,677.7,703.9288568297002,703.9288568297002,True
67915f6f598c16696b97305d_result,81.0,67915f6f598c16696b97305d,6790928bebf0b969fc839b02,67929efec7adfe61a0d3fdf9,620.0,f,ballFalling,604.4000000000001,596.8711431702998,394.5,10.0,fallScene,False,gt,3000.0,596.8711431702998,394.5,604.4000000000001,596.8711431702998,596.8711431702998,False
67915f6f598c16696b97305d_result,82.0,67915f6f598c16696b97305d,6790928bebf0b969fc839b02,67929efec7adfe61a0d3fdf9,1817.0,j,ballFalling,604.4000000000001,667.6211431702998,201.78,9.0,fallScene,True,mid,3000.0,605.4000000000001,300.0,395.5999999999999,332.3788568297002,394.5999999999999,False
67915f6f598c16696b97305d_result,83.0,67915f6f598c16696b97305d,6790928bebf0b969fc839b02,67929efec7adfe61a0d3fdf9,938.0,f,ballFalling,604.4000000000001,596.8711431702998,394.5,10.0,fallScene,True,lp,3000.0,603.4000000000001,215.50214355555383,395.5999999999999,403.1288568297002,396.5999999999999,True
67915f6f598c16696b97305d_result,84.0,67915f6f598c16696b97305d,6790928bebf0b969fc839b02,67929efec7adfe61a0d3fdf9,1650.0,j,ballFalling,500.0,453.6711431702998,210.33,5.0,fallScene,False,lp,3000.0,499.0,151.0,500.0,453.6711431702998,499.0,False
67915f6f598c16696b97305d_result,85.0,67915f6f598c16696b97305d,6790928bebf0b969fc839b02,67929efec7adfe61a0d3fdf9,704.0,f,ballFalling,500.0,553.4711431702997,282.51,7.0,fallScene,False,gt,3000.0,553.4711431702997,282.51,500.0,553.4711431702997,553.4711431702997,False
67915f6f598c16696b97305d_result,86.0,67915f6f598c16696b97305d,6790928bebf0b969fc839b02,67929efec7adfe61a0d3fdf9,1584.0,j,ballFalling,500.0,479.9211431702998,330.87,6.0,fallScene,False,gt,3000.0,479.9211431702998,330.87,500.0,479.9211431702998,479.9211431702998,True
